rt,stimulus,response,phase,trial_type,trial_index,time_elapsed,internal_node_id,node0,node1,node2,node3,which_list,user_id,mouse_events,final_locations,audio_start_time,screen_width,screen_height,verb,compatibility,target_animal,target_instrument,audio,images,question_order,daily_subjnum,unique_id
9374,"
    <p>This experiment uses your camera for eye tracking.</p>
    <p>No video is saved from this experiment. The only data recorded are predictions about where you are looking.</p>
    <p>Before we begin, there are a few things to do that can improve the accuracy of the eye tracking.</p>
  ",,initial-calibration,html-button-response,1,11480,0.0-1.0-0.0,0,1,0,NA,list_2,6a935167-a0f5-4399-b6dd-8928fe8bae35,,,NA,NA,NA,NA,NA,NA,NA,NA,,,1,1__6a935167-a0f5-4399-b6dd-8928fe8bae35
1219,"
    <p>If you wear glasses and can complete the task without them, please remove your glasses.</p>
    <p>If you need to keep your glasses on to read this text, you can leave them on.</p>
  ",,initial-calibration,html-button-response,2,12701,0.0-1.0-1.0,0,1,1,NA,list_2,6a935167-a0f5-4399-b6dd-8928fe8bae35,,,NA,NA,NA,NA,NA,NA,NA,NA,,,1,1__6a935167-a0f5-4399-b6dd-8928fe8bae35
594,"
    <p>Please close additional browser tabs and apps running in the background.</p>
    <p>The eye tracker works best when there are fewer things running at the same time.</p>
  ",,initial-calibration,html-button-response,3,13296,0.0-1.0-2.0,0,1,2,NA,list_2,6a935167-a0f5-4399-b6dd-8928fe8bae35,,,NA,NA,NA,NA,NA,NA,NA,NA,,,1,1__6a935167-a0f5-4399-b6dd-8928fe8bae35
1219,"
    <p>Try to avoid bright lights behind you.</p>
    <p>The eye tracker works best if your face is well lit from the front.</p>
    <p>If you can, adjust the lighting in your room.</p>
  ",,initial-calibration,html-button-response,4,14517,0.0-1.0-3.0,0,1,3,NA,list_2,6a935167-a0f5-4399-b6dd-8928fe8bae35,,,NA,NA,NA,NA,NA,NA,NA,NA,,,1,1__6a935167-a0f5-4399-b6dd-8928fe8bae35
1089,"
    <p>Turn off anything that may produce an alert or notification during the task.</p>
  ",,initial-calibration,html-button-response,5,15608,0.0-1.0-4.0,0,1,4,NA,list_2,6a935167-a0f5-4399-b6dd-8928fe8bae35,,,NA,NA,NA,NA,NA,NA,NA,NA,,,1,1__6a935167-a0f5-4399-b6dd-8928fe8bae35
2351,"
    <p>In order to participate you must allow the experiment to use your camera.</p>
    <p>You will be prompted to do this on the next screen.</p>
    <p>If you do not wish to allow use of your camera, you cannot participate in this experiment.<p>
    <p>It may take up to 30 seconds for the camera to initialize after you give permission.</p>
  ",,initial-calibration,html-button-response,6,17961,0.0-1.0-5.0,0,1,5,NA,list_2,6a935167-a0f5-4399-b6dd-8928fe8bae35,,,NA,NA,NA,NA,NA,NA,NA,NA,,,1,1__6a935167-a0f5-4399-b6dd-8928fe8bae35
1276,"
    <p>Now you'll calibrate the eye tracking, so that the software can use the image of your eyes to predict where you are looking.</p>
    <p>You'll see a series of dots appear on the screen. Look at each dot and click on it.</p>
  ",,initial-calibration,html-button-response,9,35816,0.0-1.0-8.0,0,1,8,NA,list_2,6a935167-a0f5-4399-b6dd-8928fe8bae35,,,NA,NA,NA,NA,NA,NA,NA,NA,,,1,1__6a935167-a0f5-4399-b6dd-8928fe8bae35
1709,"
    <p>Now we'll measure the accuracy of the calibration.</p>
    <p>Keep your head still, and move your eyes to look at the dots.</p>
    <p style=""font-weight: bold;"">You do not need to click on the dots this time.</p>
  ",,initial-calibration,html-button-response,11,62089,0.0-1.0-10.0,0,1,10,NA,list_2,6a935167-a0f5-4399-b6dd-8928fe8bae35,,,NA,NA,NA,NA,NA,NA,NA,NA,,,1,1__6a935167-a0f5-4399-b6dd-8928fe8bae35
6611,"
    <p>The accuracy of the calibration is a little lower than we'd like.</p>
    <p>Let's try calibrating one more time.</p>
    <p>Keep your head still, look at the dots, and click on them.<p>
  ",,recalibration,html-button-response,13,84802,0.0-1.0-12.0-0.0,0,1,12,0,list_2,6a935167-a0f5-4399-b6dd-8928fe8bae35,,,NA,NA,NA,NA,NA,NA,NA,NA,,,1,1__6a935167-a0f5-4399-b6dd-8928fe8bae35
3655,"
    <p>Now we'll measure the accuracy of the calibration.</p>
    <p>Keep your head still, and move your eyes to look at the dots.</p>
    <p style=""font-weight: bold;"">You do not need to click on the dots this time.</p>
  ",,recalibration,html-button-response,15,121389,0.0-1.0-12.0-2.0,0,1,12,2,list_2,6a935167-a0f5-4399-b6dd-8928fe8bae35,,,NA,NA,NA,NA,NA,NA,NA,NA,,,1,1__6a935167-a0f5-4399-b6dd-8928fe8bae35
3180,"
    <p>Great, we're done with calibration!</p>
    <p>Remember to keep your head still as you continue to the experiment.</p>
  ",,initial-calibration,html-button-response,17,140673,0.0-1.0-13.0,0,1,13,NA,list_2,6a935167-a0f5-4399-b6dd-8928fe8bae35,,,NA,NA,NA,NA,NA,NA,NA,NA,,,1,1__6a935167-a0f5-4399-b6dd-8928fe8bae35
3117," <p>To complete this experiment you need to be able to listen to audio.
                <p>Adjust your volume to a comfortable level.</p>
                <p>Once you can clearly hear the audio, press the spacebar to continue.</p>
              ",,NA,html-keyboard-response,19,143793,0.0-3.0,0,3,NA,NA,list_2,6a935167-a0f5-4399-b6dd-8928fe8bae35,,,NA,NA,NA,NA,NA,NA,NA,NA,,,1,1__6a935167-a0f5-4399-b6dd-8928fe8bae35
3446,"<p>You will be presented with four objects and an audio prompt. </p><p>Listen to the audio prompt and do your best to follow the instructions using your mouse.</p><p>You can pick up and move objects on the screen, or just move your mouse to act out the directions.</p><p>For example, if the audio says to look at an object, you should move your mouse on top of the object as if ""looking"" with your cursor.</p>",,NA,html-button-response,21,147241,0.0-5.0,0,5,NA,NA,list_2,6a935167-a0f5-4399-b6dd-8928fe8bae35,,,NA,NA,NA,NA,NA,NA,NA,NA,,,1,1__6a935167-a0f5-4399-b6dd-8928fe8bae35
5270,<p>Let's start with three practice trials.</p><p>Try to keep your head still throughout the trials and press the <b>spacebar</b> when you are done with a trial.</p><p>Press the spacebar to continue.</p>,,NA,html-keyboard-response,22,152513,0.0-6.0,0,6,NA,NA,list_2,6a935167-a0f5-4399-b6dd-8928fe8bae35,,,NA,NA,NA,NA,NA,NA,NA,NA,,,1,1__6a935167-a0f5-4399-b6dd-8928fe8bae35
NA, ,,NA,eye-track-image-sort,23,158917,0.0-7.0-0.0,0,7,0,NA,list_2,6a935167-a0f5-4399-b6dd-8928fe8bae35,,,153129,1366,768,NA,NA,NA,NA,NA,,,1,1__6a935167-a0f5-4399-b6dd-8928fe8bae35
2087, ,,NA,html-button-response,24,161006,0.0-7.0-1.0,0,7,1,NA,list_2,6a935167-a0f5-4399-b6dd-8928fe8bae35,,,NA,NA,NA,NA,NA,NA,NA,NA,,,1,1__6a935167-a0f5-4399-b6dd-8928fe8bae35
NA, ,,NA,eye-track-image-sort,25,173953,0.0-7.0-0.1,0,7,0.1,NA,list_2,6a935167-a0f5-4399-b6dd-8928fe8bae35,,,161615,1366,768,NA,NA,NA,NA,NA,,,1,1__6a935167-a0f5-4399-b6dd-8928fe8bae35
1837, ,,NA,html-button-response,26,175792,0.0-7.0-1.1,0,7,1.1,NA,list_2,6a935167-a0f5-4399-b6dd-8928fe8bae35,,,NA,NA,NA,NA,NA,NA,NA,NA,,,1,1__6a935167-a0f5-4399-b6dd-8928fe8bae35
NA, ,,NA,eye-track-image-sort,27,188745,0.0-7.0-0.2,0,7,0.2,NA,list_2,6a935167-a0f5-4399-b6dd-8928fe8bae35,,,176406,1366,768,NA,NA,NA,NA,NA,,,1,1__6a935167-a0f5-4399-b6dd-8928fe8bae35
2605, ,,NA,html-button-response,28,191351,0.0-7.0-1.2,0,7,1.2,NA,list_2,6a935167-a0f5-4399-b6dd-8928fe8bae35,,,NA,NA,NA,NA,NA,NA,NA,NA,,,1,1__6a935167-a0f5-4399-b6dd-8928fe8bae35
9414,"<p>We will now begin the experiment.</p><p>Remember to <b>stay as still as possible</b> and act out the instructions with your cursor.</p><p>Make sure to press the spacebar once you have completed the prompt.</p><p>After each trial, you will be asked to press a button to proceed to the next trial</p><p>Press the spacebar to begin.",,NA,html-keyboard-response,29,200766,0.0-8.0,0,8,NA,NA,list_2,6a935167-a0f5-4399-b6dd-8928fe8bae35,,,NA,NA,NA,NA,NA,NA,NA,NA,,,1,1__6a935167-a0f5-4399-b6dd-8928fe8bae35
NA, ,,NA,eye-track-image-sort,30,218132,0.0-9.0-0.0,0,9,0,NA,list_2,6a935167-a0f5-4399-b6dd-8928fe8bae35,,,201391,1366,768,strike,instrument,#jspsych-freesort-draggable-3,#jspsych-freesort-draggable-2,/static/media/strike_the_elephant_with_the_necklace.d78c45d8.mp3,,,1,1__6a935167-a0f5-4399-b6dd-8928fe8bae35
NA, ,,NA,eye-track-image-sort,32,230419,0.0-9.0-0.1,0,9,0.1,NA,list_2,6a935167-a0f5-4399-b6dd-8928fe8bae35,,,220343,1366,768,hit,instrument,#jspsych-freesort-draggable-2,#jspsych-freesort-draggable-3,/static/media/hit_the_mouse_with_the_tube.b96fbfc7.mp3,,,1,1__6a935167-a0f5-4399-b6dd-8928fe8bae35
NA, ,,NA,eye-track-image-sort,34,244702,0.0-9.0-0.2,0,9,0.2,NA,list_2,6a935167-a0f5-4399-b6dd-8928fe8bae35,,,233736,1366,768,NA,filler,NA,NA,/static/media/113_sentence1.f17d2d04.mp3,,,1,1__6a935167-a0f5-4399-b6dd-8928fe8bae35
NA, ,,NA,eye-track-image-sort,36,260026,0.0-9.0-0.3,0,9,0.3,NA,list_2,6a935167-a0f5-4399-b6dd-8928fe8bae35,,,246948,1366,768,locate,equibiased,#jspsych-freesort-draggable-0,#jspsych-freesort-draggable-3,/static/media/locate_the_camel_with_the_tube.3d81c0a5.mp3,,,1,1__6a935167-a0f5-4399-b6dd-8928fe8bae35
NA, ,,NA,eye-track-image-sort,38,272164,0.0-9.0-0.4,0,9,0.4,NA,list_2,6a935167-a0f5-4399-b6dd-8928fe8bae35,,,261898,1366,768,tease,instrument,#jspsych-freesort-draggable-0,#jspsych-freesort-draggable-3,/static/media/tease_the_dog_with_the_crayon.bad0a53f.mp3,,,1,1__6a935167-a0f5-4399-b6dd-8928fe8bae35
NA, ,,NA,eye-track-image-sort,40,286620,0.0-9.0-0.5,0,9,0.5,NA,list_2,6a935167-a0f5-4399-b6dd-8928fe8bae35,,,274613,1366,768,cuddle,modifier,#jspsych-freesort-draggable-2,#jspsych-freesort-draggable-1,/static/media/cuddle_the_whale_with_the_microphone.0e84cc93.mp3,,,1,1__6a935167-a0f5-4399-b6dd-8928fe8bae35
NA, ,,NA,eye-track-image-sort,42,298274,0.0-9.0-0.6,0,9,0.6,NA,list_2,6a935167-a0f5-4399-b6dd-8928fe8bae35,,,289082,1366,768,hug,modifier,#jspsych-freesort-draggable-2,#jspsych-freesort-draggable-1,/static/media/hug_the_panda_with_the_partyhat.2e78ebb2.mp3,,,1,1__6a935167-a0f5-4399-b6dd-8928fe8bae35
NA, ,,NA,eye-track-image-sort,44,318462,0.0-9.0-0.7,0,9,0.7,NA,list_2,6a935167-a0f5-4399-b6dd-8928fe8bae35,,,300298,1366,768,pickout,modifier,#jspsych-freesort-draggable-2,#jspsych-freesort-draggable-1,/static/media/pickout_the_ladybug_with_the_net.2eeebd75.mp3,,,1,1__6a935167-a0f5-4399-b6dd-8928fe8bae35
NA, ,,NA,eye-track-image-sort,46,333306,0.0-9.0-0.8,0,9,0.8,NA,list_2,6a935167-a0f5-4399-b6dd-8928fe8bae35,,,321079,1366,768,NA,filler,NA,NA,/static/media/119_sentence1.9433bdf3.mp3,,,1,1__6a935167-a0f5-4399-b6dd-8928fe8bae35
NA, ,,NA,eye-track-image-sort,48,360378,0.0-9.0-0.9,0,9,0.9,NA,list_2,6a935167-a0f5-4399-b6dd-8928fe8bae35,,,335848,1366,768,NA,filler,NA,NA,/static/media/121_sentence1.456addf7.mp3,,,1,1__6a935167-a0f5-4399-b6dd-8928fe8bae35
NA, ,,NA,eye-track-image-sort,50,372512,0.0-9.0-0.10,0,9,0.1,NA,list_2,6a935167-a0f5-4399-b6dd-8928fe8bae35,,,363055,1366,768,bop,instrument,#jspsych-freesort-draggable-0,#jspsych-freesort-draggable-3,/static/media/bop_the_elephant_with_the_spoon.110119b3.mp3,,,1,1__6a935167-a0f5-4399-b6dd-8928fe8bae35
NA, ,,NA,eye-track-image-sort,52,388347,0.0-9.0-0.11,0,9,0.11,NA,list_2,6a935167-a0f5-4399-b6dd-8928fe8bae35,,,374724,1366,768,NA,filler,NA,NA,/static/media/131_sentence1.90b6c402.mp3,,,1,1__6a935167-a0f5-4399-b6dd-8928fe8bae35
NA, ,,NA,eye-track-image-sort,54,400951,0.0-9.0-0.12,0,9,0.12,NA,list_2,6a935167-a0f5-4399-b6dd-8928fe8bae35,,,390669,1366,768,bop,instrument,#jspsych-freesort-draggable-2,#jspsych-freesort-draggable-1,/static/media/bop_the_panda_with_the_napkin.5ce4c3d5.mp3,,,1,1__6a935167-a0f5-4399-b6dd-8928fe8bae35
NA, ,,NA,eye-track-image-sort,56,412676,0.0-9.0-0.13,0,9,0.13,NA,list_2,6a935167-a0f5-4399-b6dd-8928fe8bae35,,,402985,1366,768,NA,filler,NA,NA,/static/media/133_sentence1.fea05768.mp3,,,1,1__6a935167-a0f5-4399-b6dd-8928fe8bae35
NA, ,,NA,eye-track-image-sort,58,427224,0.0-9.0-0.14,0,9,0.14,NA,list_2,6a935167-a0f5-4399-b6dd-8928fe8bae35,,,415757,1366,768,scuff,equibiased,#jspsych-freesort-draggable-2,#jspsych-freesort-draggable-1,/static/media/scuff_the_pig_with_the_cup.7f47e4af.mp3,,,1,1__6a935167-a0f5-4399-b6dd-8928fe8bae35
NA, ,,NA,eye-track-image-sort,60,438487,0.0-9.0-0.15,0,9,0.15,NA,list_2,6a935167-a0f5-4399-b6dd-8928fe8bae35,,,429427,1366,768,pickout,modifier,#jspsych-freesort-draggable-0,#jspsych-freesort-draggable-3,/static/media/pick_out_the_duckling_with_a_straw.dcd48524.mp3,,,1,1__6a935167-a0f5-4399-b6dd-8928fe8bae35
NA, ,,NA,eye-track-image-sort,62,450858,0.0-9.0-0.16,0,9,0.16,NA,list_2,6a935167-a0f5-4399-b6dd-8928fe8bae35,,,440537,1366,768,tease,instrument,#jspsych-freesort-draggable-2,#jspsych-freesort-draggable-1,/static/media/tease_the_leopard_with_the_lollipop.19778664.mp3,,,1,1__6a935167-a0f5-4399-b6dd-8928fe8bae35
NA, ,,NA,eye-track-image-sort,64,463538,0.0-9.0-0.17,0,9,0.17,NA,list_2,6a935167-a0f5-4399-b6dd-8928fe8bae35,,,453567,1366,768,pat,equibiased,#jspsych-freesort-draggable-2,#jspsych-freesort-draggable-1,/static/media/pat_the_leopard_with_the_flower.ed40e9f6.mp3,,,1,1__6a935167-a0f5-4399-b6dd-8928fe8bae35
NA, ,,NA,eye-track-image-sort,66,476709,0.0-9.0-0.18,0,9,0.18,NA,list_2,6a935167-a0f5-4399-b6dd-8928fe8bae35,,,466337,1366,768,NA,filler,NA,NA,/static/media/124_sentence1.f133eea3.mp3,,,1,1__6a935167-a0f5-4399-b6dd-8928fe8bae35
NA, ,,NA,eye-track-image-sort,68,491620,0.0-9.0-0.19,0,9,0.19,NA,list_2,6a935167-a0f5-4399-b6dd-8928fe8bae35,,,478937,1366,768,pet,modifier,#jspsych-freesort-draggable-0,#jspsych-freesort-draggable-3,/static/media/pet_the_dolphin_with_the_tongs.a84bd679.mp3,,,1,1__6a935167-a0f5-4399-b6dd-8928fe8bae35
NA, ,,NA,eye-track-image-sort,70,506261,0.0-9.0-0.20,0,9,0.2,NA,list_2,6a935167-a0f5-4399-b6dd-8928fe8bae35,,,493622,1366,768,squeeze,modifier,#jspsych-freesort-draggable-0,#jspsych-freesort-draggable-3,/static/media/squeeze_the_bunny_with_the_microphone.a32f47b5.mp3,,,1,1__6a935167-a0f5-4399-b6dd-8928fe8bae35
NA, ,,NA,eye-track-image-sort,72,516324,0.0-9.0-0.21,0,9,0.21,NA,list_2,6a935167-a0f5-4399-b6dd-8928fe8bae35,,,508461,1366,768,NA,filler,NA,NA,/static/media/135_sentence1.a0e2e661.mp3,,,1,1__6a935167-a0f5-4399-b6dd-8928fe8bae35
NA, ,,NA,eye-track-image-sort,74,526521,0.0-9.0-0.22,0,9,0.22,NA,list_2,6a935167-a0f5-4399-b6dd-8928fe8bae35,,,518684,1366,768,locate,equibiased,#jspsych-freesort-draggable-2,#jspsych-freesort-draggable-1,/static/media/locate_the_penguin_with_the_straw.d0498344.mp3,,,1,1__6a935167-a0f5-4399-b6dd-8928fe8bae35
NA, ,,NA,eye-track-image-sort,76,540109,0.0-9.0-0.23,0,9,0.23,NA,list_2,6a935167-a0f5-4399-b6dd-8928fe8bae35,,,529001,1366,768,feel,equibiased,#jspsych-freesort-draggable-0,#jspsych-freesort-draggable-3,/static/media/feel_the_bear_with_the_pen.755827c4.mp3,,,1,1__6a935167-a0f5-4399-b6dd-8928fe8bae35
NA, ,,NA,eye-track-image-sort,78,549011,0.0-9.0-0.24,0,9,0.24,NA,list_2,6a935167-a0f5-4399-b6dd-8928fe8bae35,,,541901,1366,768,point,equibiased,#jspsych-freesort-draggable-2,#jspsych-freesort-draggable-1,/static/media/point_to_the_penguin_with_the_funnel.f1fc709d.mp3,,,1,1__6a935167-a0f5-4399-b6dd-8928fe8bae35
NA, ,,NA,eye-track-image-sort,80,563430,0.0-9.0-0.25,0,9,0.25,NA,list_2,6a935167-a0f5-4399-b6dd-8928fe8bae35,,,551299,1366,768,pinch,equibiased,#jspsych-freesort-draggable-0,#jspsych-freesort-draggable-3,/static/media/pinch_the_leopard_with_the_toothbrush.97d1994a.mp3,,,1,1__6a935167-a0f5-4399-b6dd-8928fe8bae35
NA, ,,NA,eye-track-image-sort,82,578291,0.0-9.0-0.26,0,9,0.26,NA,list_2,6a935167-a0f5-4399-b6dd-8928fe8bae35,,,565674,1366,768,clean,instrument,#jspsych-freesort-draggable-0,#jspsych-freesort-draggable-3,/static/media/clean_the_dog_with_the_leaf.23dfbced.mp3,,,1,1__6a935167-a0f5-4399-b6dd-8928fe8bae35
NA, ,,NA,eye-track-image-sort,84,589690,0.0-9.0-0.27,0,9,0.27,NA,list_2,6a935167-a0f5-4399-b6dd-8928fe8bae35,,,580231,1366,768,pat,equibiased,#jspsych-freesort-draggable-0,#jspsych-freesort-draggable-3,/static/media/pat_the_dog_with_the_pencil.eebda833.mp3,,,1,1__6a935167-a0f5-4399-b6dd-8928fe8bae35
NA, ,,NA,eye-track-image-sort,86,600368,0.0-9.0-0.28,0,9,0.28,NA,list_2,6a935167-a0f5-4399-b6dd-8928fe8bae35,,,591615,1366,768,NA,filler,NA,NA,/static/media/116_sentence1.0234232c.mp3,,,1,1__6a935167-a0f5-4399-b6dd-8928fe8bae35
NA, ,,NA,eye-track-image-sort,88,610694,0.0-9.0-0.29,0,9,0.29,NA,list_2,6a935167-a0f5-4399-b6dd-8928fe8bae35,,,602813,1366,768,pinch,equibiased,#jspsych-freesort-draggable-2,#jspsych-freesort-draggable-1,/static/media/pinch_the_panda_with_the_hat.eb0f0971.mp3,,,1,1__6a935167-a0f5-4399-b6dd-8928fe8bae35
NA, ,,NA,eye-track-image-sort,90,621363,0.0-9.0-0.30,0,9,0.3,NA,list_2,6a935167-a0f5-4399-b6dd-8928fe8bae35,,,613347,1366,768,NA,filler,NA,NA,/static/media/123_sentence1.aa4c7f19.mp3,,,1,1__6a935167-a0f5-4399-b6dd-8928fe8bae35
NA, ,,NA,eye-track-image-sort,90,651006,0.0-9.0-0.32,0,9,0.32,NA,list_2,6a935167-a0f5-4399-b6dd-8928fe8bae35,,,647325,1366,768,find,modifier,#jspsych-freesort-draggable-0,#jspsych-freesort-draggable-3,/static/media/find_the_bird_with_the_towel.54d35032.mp3,,,1,1__6a935167-a0f5-4399-b6dd-8928fe8bae35
NA, ,,NA,eye-track-image-sort,92,634106,0.0-9.0-0.31,0,9,0.31,NA,list_2,6a935167-a0f5-4399-b6dd-8928fe8bae35,,,623590,1366,768,knockon,equibiased,#jspsych-freesort-draggable-0,#jspsych-freesort-draggable-2,/static/media/knock_on_the_bunny_with_the_sponge.fbea7878.mp3,,,1,1__6a935167-a0f5-4399-b6dd-8928fe8bae35
NA, ,,NA,eye-track-image-sort,92,657058,0.0-9.0-0.33,0,9,0.33,NA,list_2,6a935167-a0f5-4399-b6dd-8928fe8bae35,,,653055,1366,768,select,modifier,#jspsych-freesort-draggable-0,#jspsych-freesort-draggable-3,/static/media/select_the_squirrel_with_the_towel.18352388.mp3,,,1,1__6a935167-a0f5-4399-b6dd-8928fe8bae35
NA, ,,NA,eye-track-image-sort,94,662661,0.0-9.0-0.34,0,9,0.34,NA,list_2,6a935167-a0f5-4399-b6dd-8928fe8bae35,,,659563,1366,768,poke,instrument,#jspsych-freesort-draggable-0,#jspsych-freesort-draggable-3,/static/media/poke_the_bunny_with_the_violin.c625ece5.mp3,,,1,1__6a935167-a0f5-4399-b6dd-8928fe8bae35
NA, ,,NA,eye-track-image-sort,96,667896,0.0-9.0-0.35,0,9,0.35,NA,list_2,6a935167-a0f5-4399-b6dd-8928fe8bae35,,,664585,1366,768,knockon,equibiased,#jspsych-freesort-draggable-0,#jspsych-freesort-draggable-2,/static/media/knock_on_the_bunny_with_the_sponge.fbea7878.mp3,,,1,1__6a935167-a0f5-4399-b6dd-8928fe8bae35
NA, ,,NA,eye-track-image-sort,98,672358,0.0-9.0-0.36,0,9,0.36,NA,list_2,6a935167-a0f5-4399-b6dd-8928fe8bae35,,,669890,1366,768,NA,filler,NA,NA,/static/media/135_sentence1.a0e2e661.mp3,,,1,1__6a935167-a0f5-4399-b6dd-8928fe8bae35
NA, ,,NA,eye-track-image-sort,100,680383,0.0-9.0-0.37,0,9,0.37,NA,list_2,6a935167-a0f5-4399-b6dd-8928fe8bae35,,,674951,1366,768,NA,filler,NA,NA,/static/media/120_sentence1.c582a280.mp3,,,1,1__6a935167-a0f5-4399-b6dd-8928fe8bae35
NA, ,,NA,eye-track-image-sort,102,686841,0.0-9.0-0.38,0,9,0.38,NA,list_2,6a935167-a0f5-4399-b6dd-8928fe8bae35,,,683395,1366,768,pickout,modifier,#jspsych-freesort-draggable-0,#jspsych-freesort-draggable-3,/static/media/pick_out_the_duckling_with_a_straw.dcd48524.mp3,,,1,1__6a935167-a0f5-4399-b6dd-8928fe8bae35
3202,<p>You are halfway through the experiment! </p><p>We are now going to re-calibrate the eye-tracking software to ensure accuracy in the second half.</p>,,NA,html-button-response,104,691059,0.0-10.0,0,10,NA,NA,list_2,6a935167-a0f5-4399-b6dd-8928fe8bae35,,,NA,NA,NA,NA,NA,NA,NA,NA,,,1,1__6a935167-a0f5-4399-b6dd-8928fe8bae35
1955,"
    <p>We're going to take a moment to calibrate the eye tracker again.</p>
    <p>You'll see a series of dots appear on the screen. Look at each dot and click on it.</p>
  ",,boost-calibration,html-button-response,105,693016,0.0-11.0-0.0,0,11,0,NA,list_2,6a935167-a0f5-4399-b6dd-8928fe8bae35,,,NA,NA,NA,NA,NA,NA,NA,NA,,,1,1__6a935167-a0f5-4399-b6dd-8928fe8bae35
2809,"
    <p>Now we'll measure the accuracy of the calibration.</p>
    <p>Keep your head still, and move your eyes to look at the dots.</p>
    <p style=""font-weight: bold;"">You do not need to click on the dots this time.</p>
  ",,boost-calibration,html-button-response,107,720309,0.0-11.0-2.0,0,11,2,NA,list_2,6a935167-a0f5-4399-b6dd-8928fe8bae35,,,NA,NA,NA,NA,NA,NA,NA,NA,,,1,1__6a935167-a0f5-4399-b6dd-8928fe8bae35
1896,"
    <p>Great, we're done with calibration!</p>
    <p>Remember to keep your head still as you continue to the experiment.</p>
  ",,boost-calibration,html-button-response,109,738283,0.0-11.0-4.0,0,11,4,NA,list_2,6a935167-a0f5-4399-b6dd-8928fe8bae35,,,NA,NA,NA,NA,NA,NA,NA,NA,,,1,1__6a935167-a0f5-4399-b6dd-8928fe8bae35
NA, ,,NA,eye-track-image-sort,110,743993,0.0-12.0-0.0,0,12,0,NA,list_2,6a935167-a0f5-4399-b6dd-8928fe8bae35,,,739160,1366,768,clean,instrument,#jspsych-freesort-draggable-0,#jspsych-freesort-draggable-3,/static/media/clean_the_dog_with_the_leaf.23dfbced.mp3,,,1,1__6a935167-a0f5-4399-b6dd-8928fe8bae35
NA, ,,NA,eye-track-image-sort,112,753300,0.0-12.0-0.1,0,12,0.1,NA,list_2,6a935167-a0f5-4399-b6dd-8928fe8bae35,,,745883,1366,768,NA,filler,NA,NA,/static/media/124_sentence1.f133eea3.mp3,,,1,1__6a935167-a0f5-4399-b6dd-8928fe8bae35
NA, ,,NA,eye-track-image-sort,114,760867,0.0-12.0-0.2,0,12,0.2,NA,list_2,6a935167-a0f5-4399-b6dd-8928fe8bae35,,,755321,1366,768,bop,instrument,#jspsych-freesort-draggable-2,#jspsych-freesort-draggable-1,/static/media/bop_the_panda_with_the_napkin.5ce4c3d5.mp3,,,1,1__6a935167-a0f5-4399-b6dd-8928fe8bae35
NA, ,,NA,eye-track-image-sort,116,768170,0.0-12.0-0.3,0,12,0.3,NA,list_2,6a935167-a0f5-4399-b6dd-8928fe8bae35,,,762829,1366,768,hug,modifier,#jspsych-freesort-draggable-0,#jspsych-freesort-draggable-3,/static/media/hug_the_giraffe_with_the_umbrella.f63970ab.mp3,,,1,1__6a935167-a0f5-4399-b6dd-8928fe8bae35
NA, ,,NA,eye-track-image-sort,118,778015,0.0-12.0-0.4,0,12,0.4,NA,list_2,6a935167-a0f5-4399-b6dd-8928fe8bae35,,,770458,1366,768,NA,filler,NA,NA,/static/media/131_sentence1.90b6c402.mp3,,,1,1__6a935167-a0f5-4399-b6dd-8928fe8bae35
NA, ,,NA,eye-track-image-sort,120,785089,0.0-12.0-0.5,0,12,0.5,NA,list_2,6a935167-a0f5-4399-b6dd-8928fe8bae35,,,780502,1366,768,strike,instrument,#jspsych-freesort-draggable-3,#jspsych-freesort-draggable-2,/static/media/strike_the_elephant_with_the_necklace.d78c45d8.mp3,,,1,1__6a935167-a0f5-4399-b6dd-8928fe8bae35
NA, ,,NA,eye-track-image-sort,122,796552,0.0-12.0-0.6,0,12,0.6,NA,list_2,6a935167-a0f5-4399-b6dd-8928fe8bae35,,,787171,1366,768,tease,instrument,#jspsych-freesort-draggable-0,#jspsych-freesort-draggable-3,/static/media/tease_the_dog_with_the_crayon.bad0a53f.mp3,,,1,1__6a935167-a0f5-4399-b6dd-8928fe8bae35
NA, ,,NA,eye-track-image-sort,124,802921,0.0-12.0-0.7,0,12,0.7,NA,list_2,6a935167-a0f5-4399-b6dd-8928fe8bae35,,,798657,1366,768,knockon,equibiased,#jspsych-freesort-draggable-3,#jspsych-freesort-draggable-1,/static/media/knock_on_the_frog_with_the_feather.7b56ef2e.mp3,,,1,1__6a935167-a0f5-4399-b6dd-8928fe8bae35
NA, ,,NA,eye-track-image-sort,126,808813,0.0-12.0-0.8,0,12,0.8,NA,list_2,6a935167-a0f5-4399-b6dd-8928fe8bae35,,,805449,1366,768,feel,equibiased,#jspsych-freesort-draggable-0,#jspsych-freesort-draggable-3,/static/media/feel_the_bear_with_the_pen.755827c4.mp3,,,1,1__6a935167-a0f5-4399-b6dd-8928fe8bae35
NA, ,,NA,eye-track-image-sort,128,816496,0.0-12.0-0.9,0,12,0.9,NA,list_2,6a935167-a0f5-4399-b6dd-8928fe8bae35,,,810771,1366,768,pet,modifier,#jspsych-freesort-draggable-2,#jspsych-freesort-draggable-3,/static/media/pet_the_lion_with_the_sponge.770c9cac.mp3,,,1,1__6a935167-a0f5-4399-b6dd-8928fe8bae35
NA, ,,NA,eye-track-image-sort,130,823679,0.0-12.0-0.10,0,12,0.1,NA,list_2,6a935167-a0f5-4399-b6dd-8928fe8bae35,,,818416,1366,768,NA,filler,NA,NA,/static/media/114_sentence1.37992527.mp3,,,1,1__6a935167-a0f5-4399-b6dd-8928fe8bae35
NA, ,,NA,eye-track-image-sort,132,828828,0.0-12.0-0.11,0,12,0.11,NA,list_2,6a935167-a0f5-4399-b6dd-8928fe8bae35,,,825564,1366,768,point,equibiased,#jspsych-freesort-draggable-2,#jspsych-freesort-draggable-1,/static/media/point_to_the_penguin_with_the_funnel.f1fc709d.mp3,,,1,1__6a935167-a0f5-4399-b6dd-8928fe8bae35
NA, ,,NA,eye-track-image-sort,134,839241,0.0-12.0-0.12,0,12,0.12,NA,list_2,6a935167-a0f5-4399-b6dd-8928fe8bae35,,,830905,1366,768,whack,instrument,#jspsych-freesort-draggable-0,#jspsych-freesort-draggable-3,/static/media/wack_the_cow_with_the_fan.eb0daf2f.mp3,,,1,1__6a935167-a0f5-4399-b6dd-8928fe8bae35
NA, ,,NA,eye-track-image-sort,136,846969,0.0-12.0-0.13,0,12,0.13,NA,list_2,6a935167-a0f5-4399-b6dd-8928fe8bae35,,,840982,1366,768,NA,filler,NA,NA,/static/media/128_sentence1.91492674.mp3,,,1,1__6a935167-a0f5-4399-b6dd-8928fe8bae35
NA, ,,NA,eye-track-image-sort,138,855695,0.0-12.0-0.14,0,12,0.14,NA,list_2,6a935167-a0f5-4399-b6dd-8928fe8bae35,,,848707,1366,768,scuff,equibiased,#jspsych-freesort-draggable-2,#jspsych-freesort-draggable-1,/static/media/scuff_the_pig_with_the_cup.7f47e4af.mp3,,,1,1__6a935167-a0f5-4399-b6dd-8928fe8bae35
NA, ,,NA,eye-track-image-sort,140,863067,0.0-12.0-0.15,0,12,0.15,NA,list_2,6a935167-a0f5-4399-b6dd-8928fe8bae35,,,857785,1366,768,NA,filler,NA,NA,/static/media/122_sentence1.a916c832.mp3,,,1,1__6a935167-a0f5-4399-b6dd-8928fe8bae35
NA, ,,NA,eye-track-image-sort,142,872897,0.0-12.0-0.16,0,12,0.16,NA,list_2,6a935167-a0f5-4399-b6dd-8928fe8bae35,,,864920,1366,768,smack,instrument,#jspsych-freesort-draggable-3,#jspsych-freesort-draggable-1,/static/media/smack_the_leopard_with_the_hat.b15c305c.mp3,,,1,1__6a935167-a0f5-4399-b6dd-8928fe8bae35
NA, ,,NA,eye-track-image-sort,144,878168,0.0-12.0-0.17,0,12,0.17,NA,list_2,6a935167-a0f5-4399-b6dd-8928fe8bae35,,,874799,1366,768,locate,equibiased,#jspsych-freesort-draggable-0,#jspsych-freesort-draggable-3,/static/media/locate_the_camel_with_the_tube.3d81c0a5.mp3,,,1,1__6a935167-a0f5-4399-b6dd-8928fe8bae35
NA, ,,NA,eye-track-image-sort,146,887591,0.0-12.0-0.18,0,12,0.18,NA,list_2,6a935167-a0f5-4399-b6dd-8928fe8bae35,,,880365,1366,768,NA,filler,NA,NA,/static/media/112_sentence1.e186df5f.mp3,,,1,1__6a935167-a0f5-4399-b6dd-8928fe8bae35
NA, ,,NA,eye-track-image-sort,148,892861,0.0-12.0-0.19,0,12,0.19,NA,list_2,6a935167-a0f5-4399-b6dd-8928fe8bae35,,,890295,1366,768,bop,instrument,#jspsych-freesort-draggable-0,#jspsych-freesort-draggable-3,/static/media/bop_the_elephant_with_the_spoon.110119b3.mp3,,,1,1__6a935167-a0f5-4399-b6dd-8928fe8bae35
NA, ,,NA,eye-track-image-sort,150,902692,0.0-12.0-0.20,0,12,0.2,NA,list_2,6a935167-a0f5-4399-b6dd-8928fe8bae35,,,894684,1366,768,feed,equibiased,#jspsych-freesort-draggable-2,#jspsych-freesort-draggable-1,/static/media/feed_the_zebra_with_the_book.9f19c5bb.mp3,,,1,1__6a935167-a0f5-4399-b6dd-8928fe8bae35
NA, ,,NA,eye-track-image-sort,152,913358,0.0-12.0-0.21,0,12,0.21,NA,list_2,6a935167-a0f5-4399-b6dd-8928fe8bae35,,,904285,1366,768,NA,filler,NA,NA,/static/media/113_sentence1.f17d2d04.mp3,,,1,1__6a935167-a0f5-4399-b6dd-8928fe8bae35
NA, ,,NA,eye-track-image-sort,154,918557,0.0-12.0-0.22,0,12,0.22,NA,list_2,6a935167-a0f5-4399-b6dd-8928fe8bae35,,,915315,1366,768,pat,equibiased,#jspsych-freesort-draggable-2,#jspsych-freesort-draggable-1,/static/media/pat_the_leopard_with_the_flower.ed40e9f6.mp3,,,1,1__6a935167-a0f5-4399-b6dd-8928fe8bae35
NA, ,,NA,eye-track-image-sort,156,925851,0.0-12.0-0.23,0,12,0.23,NA,list_2,6a935167-a0f5-4399-b6dd-8928fe8bae35,,,921534,1366,768,cuddle,modifier,#jspsych-freesort-draggable-2,#jspsych-freesort-draggable-1,/static/media/cuddle_the_whale_with_the_microphone.0e84cc93.mp3,,,1,1__6a935167-a0f5-4399-b6dd-8928fe8bae35
NA, ,,NA,eye-track-image-sort,158,934636,0.0-12.0-0.24,0,12,0.24,NA,list_2,6a935167-a0f5-4399-b6dd-8928fe8bae35,,,928306,1366,768,strike,instrument,#jspsych-freesort-draggable-0,#jspsych-freesort-draggable-1,/static/media/strike_the_bear_with_the_umbrella.2c020ba5.mp3,,,1,1__6a935167-a0f5-4399-b6dd-8928fe8bae35
NA, ,,NA,eye-track-image-sort,160,940297,0.0-12.0-0.25,0,12,0.25,NA,list_2,6a935167-a0f5-4399-b6dd-8928fe8bae35,,,936560,1366,768,spot,equibiased,#jspsych-freesort-draggable-0,#jspsych-freesort-draggable-3,/static/media/spot_the_bird_with_the_straw.71f80b24.mp3,,,1,1__6a935167-a0f5-4399-b6dd-8928fe8bae35
NA, ,,NA,eye-track-image-sort,162,947859,0.0-12.0-0.26,0,12,0.26,NA,list_2,6a935167-a0f5-4399-b6dd-8928fe8bae35,,,942554,1366,768,rub,instrument,#jspsych-freesort-draggable-0,#jspsych-freesort-draggable-2,/static/media/rub_the_butterfly_with_the_crayon.ea67780d.mp3,,,1,1__6a935167-a0f5-4399-b6dd-8928fe8bae35
NA, ,,NA,eye-track-image-sort,164,954212,0.0-12.0-0.27,0,12,0.27,NA,list_2,6a935167-a0f5-4399-b6dd-8928fe8bae35,,,949884,1366,768,rub,instrument,#jspsych-freesort-draggable-3,#jspsych-freesort-draggable-1,/static/media/rub_the_panda_with_the_violin.0df2f2d9.mp3,,,1,1__6a935167-a0f5-4399-b6dd-8928fe8bae35
NA, ,,NA,eye-track-image-sort,166,960443,0.0-12.0-0.28,0,12,0.28,NA,list_2,6a935167-a0f5-4399-b6dd-8928fe8bae35,,,956578,1366,768,choose,modifier,#jspsych-freesort-draggable-0,#jspsych-freesort-draggable-3,/static/media/choose_the_cow_with_the_pen.b4040b06.mp3,,,1,1__6a935167-a0f5-4399-b6dd-8928fe8bae35
NA, ,,NA,eye-track-image-sort,168,968563,0.0-12.0-0.29,0,12,0.29,NA,list_2,6a935167-a0f5-4399-b6dd-8928fe8bae35,,,962349,1366,768,point,equibiased,#jspsych-freesort-draggable-0,#jspsych-freesort-draggable-3,/static/media/point_to_the_fish_with_the_leaf.0656f677.mp3,,,1,1__6a935167-a0f5-4399-b6dd-8928fe8bae35
NA, ,,NA,eye-track-image-sort,170,974577,0.0-12.0-0.30,0,12,0.3,NA,list_2,6a935167-a0f5-4399-b6dd-8928fe8bae35,,,970887,1366,768,poke,instrument,#jspsych-freesort-draggable-2,#jspsych-freesort-draggable-1,/static/media/poke_the_pig_with_the_spoon.c26d72ab.mp3,,,1,1__6a935167-a0f5-4399-b6dd-8928fe8bae35
NA, ,,NA,eye-track-image-sort,172,980244,0.0-12.0-0.31,0,12,0.31,NA,list_2,6a935167-a0f5-4399-b6dd-8928fe8bae35,,,976865,1366,768,pickout,modifier,#jspsych-freesort-draggable-2,#jspsych-freesort-draggable-1,/static/media/pickout_the_ladybug_with_the_net.2eeebd75.mp3,,,1,1__6a935167-a0f5-4399-b6dd-8928fe8bae35
NA, ,,NA,eye-track-image-sort,174,991118,0.0-12.0-0.32,0,12,0.32,NA,list_2,6a935167-a0f5-4399-b6dd-8928fe8bae35,,,982627,1366,768,NA,filler,NA,NA,/static/media/117_sentence1.3cd3d7bf.mp3,,,1,1__6a935167-a0f5-4399-b6dd-8928fe8bae35
NA, ,,NA,eye-track-image-sort,176,996611,0.0-12.0-0.33,0,12,0.33,NA,list_2,6a935167-a0f5-4399-b6dd-8928fe8bae35,,,992977,1366,768,locate,equibiased,#jspsych-freesort-draggable-2,#jspsych-freesort-draggable-1,/static/media/locate_the_penguin_with_the_straw.d0498344.mp3,,,1,1__6a935167-a0f5-4399-b6dd-8928fe8bae35
NA, ,,NA,eye-track-image-sort,178,1003000,0.0-12.0-0.34,0,12,0.34,NA,list_2,6a935167-a0f5-4399-b6dd-8928fe8bae35,,,998629,1366,768,NA,filler,NA,NA,/static/media/125_sentence1.d1fb5670.mp3,,,1,1__6a935167-a0f5-4399-b6dd-8928fe8bae35
NA, ,,NA,eye-track-image-sort,180,1012079,0.0-12.0-0.35,0,12,0.35,NA,list_2,6a935167-a0f5-4399-b6dd-8928fe8bae35,,,1005026,1366,768,feel,equibiased,#jspsych-freesort-draggable-2,#jspsych-freesort-draggable-1,/static/media/feel_the_leopard_with_the_candle.b07d1f60.mp3,,,1,1__6a935167-a0f5-4399-b6dd-8928fe8bae35
NA, ,,NA,eye-track-image-sort,182,1023673,0.0-12.0-0.36,0,12,0.36,NA,list_2,6a935167-a0f5-4399-b6dd-8928fe8bae35,,,1014287,1366,768,scuff,equibiased,#jspsych-freesort-draggable-0,#jspsych-freesort-draggable-3,/static/media/scuff_the_chicken_with_the_flower.f3226ce4.mp3,,,1,1__6a935167-a0f5-4399-b6dd-8928fe8bae35
NA, ,,NA,eye-track-image-sort,184,1029245,0.0-12.0-0.37,0,12,0.37,NA,list_2,6a935167-a0f5-4399-b6dd-8928fe8bae35,,,1025986,1366,768,squeeze,modifier,#jspsych-freesort-draggable-2,#jspsych-freesort-draggable-1,/static/media/squeeze_zebra_with_the_hat.c544d48f.mp3,,,1,1__6a935167-a0f5-4399-b6dd-8928fe8bae35
NA, ,,NA,eye-track-image-sort,186,1037502,0.0-12.0-0.38,0,12,0.38,NA,list_2,6a935167-a0f5-4399-b6dd-8928fe8bae35,,,1031779,1366,768,hit,instrument,#jspsych-freesort-draggable-2,#jspsych-freesort-draggable-0,/static/media/hit_the_frog_with_the_cup.e87a240b.mp3,,,1,1__6a935167-a0f5-4399-b6dd-8928fe8bae35
1534,<p> Were you wearing glasses during this experiment? </p>,,NA,html-button-response,188,1041153,0.0-13.0,0,13,NA,NA,list_2,6a935167-a0f5-4399-b6dd-8928fe8bae35,,,NA,NA,NA,NA,NA,NA,NA,NA,,,1,1__6a935167-a0f5-4399-b6dd-8928fe8bae35
1426,<p> Were you able to keep your head still during the course of this experiment? </p>,,NA,html-button-response,189,1042581,0.0-14.0,0,14,NA,NA,list_2,6a935167-a0f5-4399-b6dd-8928fe8bae35,,,NA,NA,NA,NA,NA,NA,NA,NA,,,1,1__6a935167-a0f5-4399-b6dd-8928fe8bae35
1667,<p> Were you distracted by any notifications? </p>,,NA,html-button-response,190,1044250,0.0-15.0,0,15,NA,NA,list_2,6a935167-a0f5-4399-b6dd-8928fe8bae35,,,NA,NA,NA,NA,NA,NA,NA,NA,,,1,1__6a935167-a0f5-4399-b6dd-8928fe8bae35
1209,<p> Were you able to hear all of the audios? </p>,,NA,html-button-response,191,1045461,0.0-16.0,0,16,NA,NA,list_2,6a935167-a0f5-4399-b6dd-8928fe8bae35,,,NA,NA,NA,NA,NA,NA,NA,NA,,,1,1__6a935167-a0f5-4399-b6dd-8928fe8bae35
3643,"If you are willing, please answer the following demographics questions. <br> Whether you answer these questions will not affect your compensation. ",,NA,html-button-response,192,1049106,0.0-17.0,0,17,NA,NA,list_2,6a935167-a0f5-4399-b6dd-8928fe8bae35,,,NA,NA,NA,NA,NA,NA,NA,NA,,,1,1__6a935167-a0f5-4399-b6dd-8928fe8bae35
3610, ,,NA,survey-text,193,1052729,0.0-18.0,0,18,NA,NA,list_2,6a935167-a0f5-4399-b6dd-8928fe8bae35,,,NA,NA,NA,NA,NA,NA,NA,NA,,,1,1__6a935167-a0f5-4399-b6dd-8928fe8bae35
10807, ,,NA,survey-multi-choice,194,1063540,0.0-19.0,0,19,NA,NA,list_2,6a935167-a0f5-4399-b6dd-8928fe8bae35,,,NA,NA,NA,NA,NA,NA,NA,NA,,,1,1__6a935167-a0f5-4399-b6dd-8928fe8bae35
24375, ,,NA,survey-text,195,1087925,0.0-20.0,0,20,NA,NA,list_2,6a935167-a0f5-4399-b6dd-8928fe8bae35,,,NA,NA,NA,NA,NA,NA,NA,NA,,,1,1__6a935167-a0f5-4399-b6dd-8928fe8bae35
6772, ,,NA,survey-text,196,1094704,0.0-21.0,0,21,NA,NA,list_2,6a935167-a0f5-4399-b6dd-8928fe8bae35,,,NA,NA,NA,NA,NA,NA,NA,NA,,,1,1__6a935167-a0f5-4399-b6dd-8928fe8bae35
12472,"<div class=""instructions""><p>You have completed the experiment. Thank you for participating!</p><p>This is an experiment about eye-tracking and how certain verbs influence associations.</p><p>One hypothesis is that sentences containing certain verbs will cause participants to fixate on the image of the target animal more than they would when other types of verbs are used.</p><p>An additional hypothesis is that particpants will first click on the image of the target object more often when a verb associated with object-use is used, rather than a verb without that association.</p><p>We will look at your individual eye and mouse movements to determine whether they show these theorized trends. If people generally do in fact follow the verb-bias trends mentioned before, then your eye and mouse movements should reflect that.</p></div>",,NA,html-button-response,198,1108214,0.0-23.0,0,23,NA,NA,list_2,6a935167-a0f5-4399-b6dd-8928fe8bae35,,,NA,NA,NA,NA,NA,NA,NA,NA,,,1,1__6a935167-a0f5-4399-b6dd-8928fe8bae35
67948,"
    <p>This experiment uses your camera for eye tracking.</p>
    <p>No video is saved from this experiment. The only data recorded are predictions about where you are looking.</p>
    <p>Before we begin, there are a few things to do that can improve the accuracy of the eye tracking.</p>
  ",,initial-calibration,html-button-response,1,70857,0.0-1.0-0.0,0,1,0,NA,list_1,6a935167-a0f5-4399-b6dd-8928fe8bae35,,,NA,NA,NA,NA,NA,NA,NA,NA,,,2,2__6a935167-a0f5-4399-b6dd-8928fe8bae35
2808,"
    <p>If you wear glasses and can complete the task without them, please remove your glasses.</p>
    <p>If you need to keep your glasses on to read this text, you can leave them on.</p>
  ",,initial-calibration,html-button-response,2,73667,0.0-1.0-1.0,0,1,1,NA,list_1,6a935167-a0f5-4399-b6dd-8928fe8bae35,,,NA,NA,NA,NA,NA,NA,NA,NA,,,2,2__6a935167-a0f5-4399-b6dd-8928fe8bae35
3283,"
    <p>Please close additional browser tabs and apps running in the background.</p>
    <p>The eye tracker works best when there are fewer things running at the same time.</p>
  ",,initial-calibration,html-button-response,3,76952,0.0-1.0-2.0,0,1,2,NA,list_1,6a935167-a0f5-4399-b6dd-8928fe8bae35,,,NA,NA,NA,NA,NA,NA,NA,NA,,,2,2__6a935167-a0f5-4399-b6dd-8928fe8bae35
4081,"
    <p>Try to avoid bright lights behind you.</p>
    <p>The eye tracker works best if your face is well lit from the front.</p>
    <p>If you can, adjust the lighting in your room.</p>
  ",,initial-calibration,html-button-response,4,81034,0.0-1.0-3.0,0,1,3,NA,list_1,6a935167-a0f5-4399-b6dd-8928fe8bae35,,,NA,NA,NA,NA,NA,NA,NA,NA,,,2,2__6a935167-a0f5-4399-b6dd-8928fe8bae35
1779,"
    <p>Turn off anything that may produce an alert or notification during the task.</p>
  ",,initial-calibration,html-button-response,5,93033,0.0-1.0-4.0,0,1,4,NA,list_1,6a935167-a0f5-4399-b6dd-8928fe8bae35,,,NA,NA,NA,NA,NA,NA,NA,NA,,,2,2__6a935167-a0f5-4399-b6dd-8928fe8bae35
2656,"
    <p>In order to participate you must allow the experiment to use your camera.</p>
    <p>You will be prompted to do this on the next screen.</p>
    <p>If you do not wish to allow use of your camera, you cannot participate in this experiment.<p>
    <p>It may take up to 30 seconds for the camera to initialize after you give permission.</p>
  ",,initial-calibration,html-button-response,6,95690,0.0-1.0-5.0,0,1,5,NA,list_1,6a935167-a0f5-4399-b6dd-8928fe8bae35,,,NA,NA,NA,NA,NA,NA,NA,NA,,,2,2__6a935167-a0f5-4399-b6dd-8928fe8bae35
2166,"
    <p>Now you'll calibrate the eye tracking, so that the software can use the image of your eyes to predict where you are looking.</p>
    <p>You'll see a series of dots appear on the screen. Look at each dot and click on it.</p>
  ",,initial-calibration,html-button-response,9,120157,0.0-1.0-8.0,0,1,8,NA,list_1,6a935167-a0f5-4399-b6dd-8928fe8bae35,,,NA,NA,NA,NA,NA,NA,NA,NA,,,2,2__6a935167-a0f5-4399-b6dd-8928fe8bae35
4256,"
    <p>Now we'll measure the accuracy of the calibration.</p>
    <p>Keep your head still, and move your eyes to look at the dots.</p>
    <p style=""font-weight: bold;"">You do not need to click on the dots this time.</p>
  ",,initial-calibration,html-button-response,11,162607,0.0-1.0-10.0,0,1,10,NA,list_1,6a935167-a0f5-4399-b6dd-8928fe8bae35,,,NA,NA,NA,NA,NA,NA,NA,NA,,,2,2__6a935167-a0f5-4399-b6dd-8928fe8bae35
2791,"
    <p>The accuracy of the calibration is a little lower than we'd like.</p>
    <p>Let's try calibrating one more time.</p>
    <p>Keep your head still, look at the dots, and click on them.<p>
  ",,recalibration,html-button-response,13,187178,0.0-1.0-12.0-0.0,0,1,12,0,list_1,6a935167-a0f5-4399-b6dd-8928fe8bae35,,,NA,NA,NA,NA,NA,NA,NA,NA,,,2,2__6a935167-a0f5-4399-b6dd-8928fe8bae35
2651,"
    <p>Great, we're done with calibration!</p>
    <p>Remember to keep your head still as you continue to the experiment.</p>
  ",,initial-calibration,html-button-response,13,181488,0.0-1.0-13.0,0,1,13,NA,list_1,6a935167-a0f5-4399-b6dd-8928fe8bae35,,,NA,NA,NA,NA,NA,NA,NA,NA,,,2,2__6a935167-a0f5-4399-b6dd-8928fe8bae35
1318,"
    <p>Now we'll measure the accuracy of the calibration.</p>
    <p>Keep your head still, and move your eyes to look at the dots.</p>
    <p style=""font-weight: bold;"">You do not need to click on the dots this time.</p>
  ",,recalibration,html-button-response,15,221789,0.0-1.0-12.0-2.0,0,1,12,2,list_1,6a935167-a0f5-4399-b6dd-8928fe8bae35,,,NA,NA,NA,NA,NA,NA,NA,NA,,,2,2__6a935167-a0f5-4399-b6dd-8928fe8bae35
8282," <p>To complete this experiment you need to be able to listen to audio.
                <p>Adjust your volume to a comfortable level.</p>
                <p>Once you can clearly hear the audio, press the spacebar to continue.</p>
              ",,NA,html-keyboard-response,15,189773,0.0-3.0,0,3,NA,NA,list_1,6a935167-a0f5-4399-b6dd-8928fe8bae35,,,NA,NA,NA,NA,NA,NA,NA,NA,,,2,2__6a935167-a0f5-4399-b6dd-8928fe8bae35
6087,"<p>You will be presented with four objects and an audio prompt. </p><p>Listen to the audio prompt and do your best to follow the instructions using your mouse.</p><p>You can pick up and move objects on the screen, or just move your mouse to act out the directions.</p><p>For example, if the audio says to look at an object, you should move your mouse on top of the object as if ""looking"" with your cursor.</p>",,NA,html-button-response,17,195867,0.0-5.0,0,5,NA,NA,list_1,6a935167-a0f5-4399-b6dd-8928fe8bae35,,,NA,NA,NA,NA,NA,NA,NA,NA,,,2,2__6a935167-a0f5-4399-b6dd-8928fe8bae35
3603,<p>Let's start with three practice trials.</p><p>Try to keep your head still throughout the trials and press the <b>spacebar</b> when you are done with a trial.</p><p>Press the spacebar to continue.</p>,,NA,html-keyboard-response,18,199472,0.0-6.0,0,6,NA,NA,list_1,6a935167-a0f5-4399-b6dd-8928fe8bae35,,,NA,NA,NA,NA,NA,NA,NA,NA,,,2,2__6a935167-a0f5-4399-b6dd-8928fe8bae35
NA, ,,NA,eye-track-image-sort,19,210794,0.0-7.0-0.0,0,7,0,NA,list_1,6a935167-a0f5-4399-b6dd-8928fe8bae35,,,201160,1366,768,NA,NA,NA,NA,NA,,,2,2__6a935167-a0f5-4399-b6dd-8928fe8bae35
2799, ,,NA,html-button-response,20,213595,0.0-7.0-1.0,0,7,1,NA,list_1,6a935167-a0f5-4399-b6dd-8928fe8bae35,,,NA,NA,NA,NA,NA,NA,NA,NA,,,2,2__6a935167-a0f5-4399-b6dd-8928fe8bae35
NA, ,,NA,eye-track-image-sort,21,221525,0.0-7.0-0.1,0,7,0.1,NA,list_1,6a935167-a0f5-4399-b6dd-8928fe8bae35,,,215284,1366,768,NA,NA,NA,NA,NA,,,2,2__6a935167-a0f5-4399-b6dd-8928fe8bae35
1858, ,,NA,html-button-response,22,223384,0.0-7.0-1.1,0,7,1.1,NA,list_1,6a935167-a0f5-4399-b6dd-8928fe8bae35,,,NA,NA,NA,NA,NA,NA,NA,NA,,,2,2__6a935167-a0f5-4399-b6dd-8928fe8bae35
NA, ,,NA,eye-track-image-sort,23,232116,0.0-7.0-0.2,0,7,0.2,NA,list_1,6a935167-a0f5-4399-b6dd-8928fe8bae35,,,225067,1366,768,NA,NA,NA,NA,NA,,,2,2__6a935167-a0f5-4399-b6dd-8928fe8bae35
1419, ,,NA,html-button-response,24,233537,0.0-7.0-1.2,0,7,1.2,NA,list_1,6a935167-a0f5-4399-b6dd-8928fe8bae35,,,NA,NA,NA,NA,NA,NA,NA,NA,,,2,2__6a935167-a0f5-4399-b6dd-8928fe8bae35
8793,"<p>We will now begin the experiment.</p><p>Remember to <b>stay as still as possible</b> and act out the instructions with your cursor.</p><p>Make sure to press the spacebar once you have completed the prompt.</p><p>After each trial, you will be asked to press a button to proceed to the next trial</p><p>Press the spacebar to begin.",,NA,html-keyboard-response,25,242332,0.0-8.0,0,8,NA,NA,list_1,6a935167-a0f5-4399-b6dd-8928fe8bae35,,,NA,NA,NA,NA,NA,NA,NA,NA,,,2,2__6a935167-a0f5-4399-b6dd-8928fe8bae35
NA, ,,NA,eye-track-image-sort,26,252630,0.0-9.0-0.0,0,9,0,NA,list_1,6a935167-a0f5-4399-b6dd-8928fe8bae35,,,244030,1366,768,NA,filler,NA,NA,/static/media/129_sentence1.d94d2f11.mp3,,,2,2__6a935167-a0f5-4399-b6dd-8928fe8bae35
NA, ,,NA,eye-track-image-sort,28,263777,0.0-9.0-0.1,0,9,0.1,NA,list_1,6a935167-a0f5-4399-b6dd-8928fe8bae35,,,255708,1366,768,find,modifier,#jspsych-free-sort-draggable-2,#jspsych-free-sort-draggable-3,/static/media/find_the_lion_with_the_towel.7e505003.mp3,,,2,2__6a935167-a0f5-4399-b6dd-8928fe8bae35
NA, ,,NA,eye-track-image-sort,30,285821,0.0-9.0-0.2,0,9,0.2,NA,list_1,6a935167-a0f5-4399-b6dd-8928fe8bae35,,,267612,1366,768,feel,equibiased,#jspsych-free-sort-draggable-2,#jspsych-free-sort-draggable-0,/static/media/feel_the_bear_with_the_candle.dcee5227.mp3,,,2,2__6a935167-a0f5-4399-b6dd-8928fe8bae35
NA, ,,NA,eye-track-image-sort,32,301775,0.0-9.0-0.3,0,9,0.3,NA,list_1,6a935167-a0f5-4399-b6dd-8928fe8bae35,,,288982,1366,768,pat,equibiased,#jspsych-free-sort-draggable-0,#jspsych-free-sort-draggable-1,/static/media/pat_the_dog_with_the_flower.3e4902f6.mp3,,,2,2__6a935167-a0f5-4399-b6dd-8928fe8bae35
NA, ,,NA,eye-track-image-sort,34,318386,0.0-9.0-0.4,0,9,0.4,NA,list_1,6a935167-a0f5-4399-b6dd-8928fe8bae35,,,304746,1366,768,clean,instrument,#jspsych-free-sort-draggable-2,#jspsych-free-sort-draggable-3,/static/media/clean_the_turtle_with_the_leaf.a9d0575f.mp3,,,2,2__6a935167-a0f5-4399-b6dd-8928fe8bae35
NA, ,,NA,eye-track-image-sort,36,329988,0.0-9.0-0.5,0,9,0.5,NA,list_1,6a935167-a0f5-4399-b6dd-8928fe8bae35,,,322105,1366,768,hug,modifier,#jspsych-free-sort-draggable-2,#jspsych-free-sort-draggable-3,/static/media/hug_the_panda_with_the_umbrella.e7074428.mp3,,,2,2__6a935167-a0f5-4399-b6dd-8928fe8bae35
NA, ,,NA,eye-track-image-sort,38,341529,0.0-9.0-0.6,0,9,0.6,NA,list_1,6a935167-a0f5-4399-b6dd-8928fe8bae35,,,332844,1366,768,feel,equibiased,#jspsych-free-sort-draggable-2,#jspsych-free-sort-draggable-3,/static/media/feel_the_leopard_with_the_pen.8b76466c.mp3,,,2,2__6a935167-a0f5-4399-b6dd-8928fe8bae35
NA, ,,NA,eye-track-image-sort,40,364434,0.0-9.0-0.7,0,9,0.7,NA,list_1,6a935167-a0f5-4399-b6dd-8928fe8bae35,,,345425,1366,768,NA,filler,NA,NA,/static/media/119_sentence1.9433bdf3.mp3,,,2,2__6a935167-a0f5-4399-b6dd-8928fe8bae35
NA, ,,NA,eye-track-image-sort,42,376287,0.0-9.0-0.8,0,9,0.8,NA,list_1,6a935167-a0f5-4399-b6dd-8928fe8bae35,,,368586,1366,768,NA,filler,NA,NA,/static/media/133_sentence1.fea05768.mp3,,,2,2__6a935167-a0f5-4399-b6dd-8928fe8bae35
NA, ,,NA,eye-track-image-sort,44,384921,0.0-9.0-0.9,0,9,0.9,NA,list_1,6a935167-a0f5-4399-b6dd-8928fe8bae35,,,379470,1366,768,NA,filler,NA,NA,/static/media/123_sentence1.aa4c7f19.mp3,,,2,2__6a935167-a0f5-4399-b6dd-8928fe8bae35
NA, ,,NA,eye-track-image-sort,46,399311,0.0-9.0-0.10,0,9,0.1,NA,list_1,6a935167-a0f5-4399-b6dd-8928fe8bae35,,,388416,1366,768,NA,filler,NA,NA,/static/media/121_sentence1.456addf7.mp3,,,2,2__6a935167-a0f5-4399-b6dd-8928fe8bae35
NA, ,,NA,eye-track-image-sort,48,408518,0.0-9.0-0.11,0,9,0.11,NA,list_1,6a935167-a0f5-4399-b6dd-8928fe8bae35,,,402061,1366,768,NA,filler,NA,NA,/static/media/125_sentence1.d1fb5670.mp3,,,2,2__6a935167-a0f5-4399-b6dd-8928fe8bae35
NA, ,,NA,eye-track-image-sort,50,420648,0.0-9.0-0.12,0,9,0.12,NA,list_1,6a935167-a0f5-4399-b6dd-8928fe8bae35,,,411680,1366,768,NA,filler,NA,NA,/static/media/128_sentence1.91492674.mp3,,,2,2__6a935167-a0f5-4399-b6dd-8928fe8bae35
NA, ,,NA,eye-track-image-sort,52,429820,0.0-9.0-0.13,0,9,0.13,NA,list_1,6a935167-a0f5-4399-b6dd-8928fe8bae35,,,423999,1366,768,NA,filler,NA,NA,/static/media/134_sentence1.bd8c81f2.mp3,,,2,2__6a935167-a0f5-4399-b6dd-8928fe8bae35
NA, ,,NA,eye-track-image-sort,54,440870,0.0-9.0-0.14,0,9,0.14,NA,list_1,6a935167-a0f5-4399-b6dd-8928fe8bae35,,,432844,1366,768,squeeze,modifier,#jspsych-free-sort-draggable-0,#jspsych-free-sort-draggable-1,/static/media/squeeze_the_bunny_with_the_hat.d8061df4.mp3,,,2,2__6a935167-a0f5-4399-b6dd-8928fe8bae35
NA, ,,NA,eye-track-image-sort,56,456196,0.0-9.0-0.15,0,9,0.15,NA,list_1,6a935167-a0f5-4399-b6dd-8928fe8bae35,,,447029,1366,768,knockon,equibiased,#jspsych-free-sort-draggable-3,#jspsych-free-sort-draggable-2,/static/media/knock_on_the_frog_with_the_sponge.46db6692.mp3,,,2,2__6a935167-a0f5-4399-b6dd-8928fe8bae35
NA, ,,NA,eye-track-image-sort,58,464572,0.0-9.0-0.16,0,9,0.16,NA,list_1,6a935167-a0f5-4399-b6dd-8928fe8bae35,,,459230,1366,768,find,modifier,#jspsych-free-sort-draggable-0,#jspsych-free-sort-draggable-1,/static/media/find_the_bird_with_the_mitten.7bf7ef6c.mp3,,,2,2__6a935167-a0f5-4399-b6dd-8928fe8bae35
NA, ,,NA,eye-track-image-sort,60,478005,0.0-9.0-0.17,0,9,0.17,NA,list_1,6a935167-a0f5-4399-b6dd-8928fe8bae35,,,467503,1366,768,NA,filler,NA,NA,/static/media/132_sentence1.254e155c.mp3,,,2,2__6a935167-a0f5-4399-b6dd-8928fe8bae35
NA, ,,NA,eye-track-image-sort,62,490198,0.0-9.0-0.18,0,9,0.18,NA,list_1,6a935167-a0f5-4399-b6dd-8928fe8bae35,,,481261,1366,768,rub,instrument,#jspsych-free-sort-draggable-3,#jspsych-free-sort-draggable-2,/static/media/rub_the_panda_with_the_crayon.b38af35c.mp3,,,2,2__6a935167-a0f5-4399-b6dd-8928fe8bae35
NA, ,,NA,eye-track-image-sort,64,498881,0.0-9.0-0.19,0,9,0.19,NA,list_1,6a935167-a0f5-4399-b6dd-8928fe8bae35,,,494311,1366,768,select,modifier,#jspsych-free-sort-draggable-0,#jspsych-free-sort-draggable-1,/static/media/select_the_squirrel_with_the_partyhat.31b2f233.mp3,,,2,2__6a935167-a0f5-4399-b6dd-8928fe8bae35
NA, ,,NA,eye-track-image-sort,66,507181,0.0-9.0-0.20,0,9,0.2,NA,list_1,6a935167-a0f5-4399-b6dd-8928fe8bae35,,,502027,1366,768,smack,instrument,#jspsych-free-sort-draggable-0,#jspsych-free-sort-draggable-1,/static/media/smack_the_dog_with_the_hat.5c355749.mp3,,,2,2__6a935167-a0f5-4399-b6dd-8928fe8bae35
NA, ,,NA,eye-track-image-sort,68,520162,0.0-9.0-0.21,0,9,0.21,NA,list_1,6a935167-a0f5-4399-b6dd-8928fe8bae35,,,510057,1366,768,rub,instrument,#jspsych-free-sort-draggable-1,#jspsych-free-sort-draggable-2,/static/media/rub_the_butterfly_with_the_violin.e8b4f866.mp3,,,2,2__6a935167-a0f5-4399-b6dd-8928fe8bae35
NA, ,,NA,eye-track-image-sort,70,532091,0.0-9.0-0.22,0,9,0.22,NA,list_1,6a935167-a0f5-4399-b6dd-8928fe8bae35,,,522739,1366,768,NA,filler,NA,NA,/static/media/112_sentence1.e186df5f.mp3,,,2,2__6a935167-a0f5-4399-b6dd-8928fe8bae35
NA, ,,NA,eye-track-image-sort,72,553521,0.0-9.0-0.23,0,9,0.23,NA,list_1,6a935167-a0f5-4399-b6dd-8928fe8bae35,,,535270,1366,768,clean,instrument,#jspsych-free-sort-draggable-0,#jspsych-free-sort-draggable-1,/static/media/clean_the_dog_with_the_violin.974507b2.mp3,,,2,2__6a935167-a0f5-4399-b6dd-8928fe8bae35
NA, ,,NA,eye-track-image-sort,74,563974,0.0-9.0-0.24,0,9,0.24,NA,list_1,6a935167-a0f5-4399-b6dd-8928fe8bae35,,,557959,1366,768,look,modifier,#jspsych-free-sort-draggable-0,#jspsych-free-sort-draggable-1,/static/media/look_at_the_chicken_with_the_leaf.6bcf8277.mp3,,,2,2__6a935167-a0f5-4399-b6dd-8928fe8bae35
NA, ,,NA,eye-track-image-sort,76,578671,0.0-9.0-0.25,0,9,0.25,NA,list_1,6a935167-a0f5-4399-b6dd-8928fe8bae35,,,567283,1366,768,scuff,equibiased,#jspsych-free-sort-draggable-2,#jspsych-free-sort-draggable-3,/static/media/scuff_the_pig_with_the_flower.119cf0ef.mp3,,,2,2__6a935167-a0f5-4399-b6dd-8928fe8bae35
NA, ,,NA,eye-track-image-sort,78,590404,0.0-9.0-0.26,0,9,0.26,NA,list_1,6a935167-a0f5-4399-b6dd-8928fe8bae35,,,581776,1366,768,cuddle,modifier,#jspsych-free-sort-draggable-2,#jspsych-free-sort-draggable-3,/static/media/cuddle_the_whale_with_the_pen.cbb5288c.mp3,,,2,2__6a935167-a0f5-4399-b6dd-8928fe8bae35
NA, ,,NA,eye-track-image-sort,80,597463,0.0-9.0-0.27,0,9,0.27,NA,list_1,6a935167-a0f5-4399-b6dd-8928fe8bae35,,,592937,1366,768,point,equibiased,#jspsych-free-sort-draggable-0,#jspsych-free-sort-draggable-1,/static/media/point_to_the_fish_with_the_funnel.06fa2a01.mp3,,,2,2__6a935167-a0f5-4399-b6dd-8928fe8bae35
NA, ,,NA,eye-track-image-sort,82,606549,0.0-9.0-0.28,0,9,0.28,NA,list_1,6a935167-a0f5-4399-b6dd-8928fe8bae35,,,600152,1366,768,NA,filler,NA,NA,/static/media/115_sentence1.37bfa687.mp3,,,2,2__6a935167-a0f5-4399-b6dd-8928fe8bae35
NA, ,,NA,eye-track-image-sort,84,627466,0.0-9.0-0.29,0,9,0.29,NA,list_2,6a935167-a0f5-4399-b6dd-8928fe8bae35,,,619286,1366,768,tease,instrument,#jspsych-freesort-draggable-2,#jspsych-freesort-draggable-1,/static/media/tease_the_leopard_with_the_lollipop.19778664.mp3,,,2,2__6a935167-a0f5-4399-b6dd-8928fe8bae35
NA, ,,NA,eye-track-image-sort,86,637236,0.0-9.0-0.30,0,9,0.3,NA,list_2,6a935167-a0f5-4399-b6dd-8928fe8bae35,,,630145,1366,768,NA,filler,NA,NA,/static/media/116_sentence1.0234232c.mp3,,,2,2__6a935167-a0f5-4399-b6dd-8928fe8bae35
NA, ,,NA,eye-track-image-sort,88,645508,0.0-9.0-0.31,0,9,0.31,NA,list_2,6a935167-a0f5-4399-b6dd-8928fe8bae35,,,640268,1366,768,NA,filler,NA,NA,/static/media/123_sentence1.aa4c7f19.mp3,,,2,2__6a935167-a0f5-4399-b6dd-8928fe8bae35
NA, ,,NA,eye-track-image-sort,94,652930,0.0-9.0-0.32,0,9,0.32,NA,list_2,6a935167-a0f5-4399-b6dd-8928fe8bae35,,,636378,1366,768,NA,filler,NA,NA,/static/media/128_sentence1.91492674.mp3,,,2,2__6a935167-a0f5-4399-b6dd-8928fe8bae35
NA, ,,NA,eye-track-image-sort,96,663754,0.0-9.0-0.33,0,9,0.33,NA,list_2,6a935167-a0f5-4399-b6dd-8928fe8bae35,,,655089,1366,768,NA,filler,NA,NA,/static/media/115_sentence1.37bfa687.mp3,,,2,2__6a935167-a0f5-4399-b6dd-8928fe8bae35
NA, ,,NA,eye-track-image-sort,98,678563,0.0-9.0-0.34,0,9,0.34,NA,list_2,6a935167-a0f5-4399-b6dd-8928fe8bae35,,,665741,1366,768,poke,instrument,#jspsych-freesort-draggable-0,#jspsych-freesort-draggable-3,/static/media/poke_the_bunny_with_the_violin.c625ece5.mp3,,,2,2__6a935167-a0f5-4399-b6dd-8928fe8bae35
NA, ,,NA,eye-track-image-sort,100,694594,0.0-9.0-0.35,0,9,0.35,NA,list_2,6a935167-a0f5-4399-b6dd-8928fe8bae35,,,680656,1366,768,rub,instrument,#jspsych-freesort-draggable-0,#jspsych-freesort-draggable-2,/static/media/rub_the_butterfly_with_the_crayon.ea67780d.mp3,,,2,2__6a935167-a0f5-4399-b6dd-8928fe8bae35
NA, ,,NA,eye-track-image-sort,102,707116,0.0-9.0-0.36,0,9,0.36,NA,list_2,6a935167-a0f5-4399-b6dd-8928fe8bae35,,,696449,1366,768,pet,modifier,#jspsych-freesort-draggable-2,#jspsych-freesort-draggable-3,/static/media/pet_the_lion_with_the_sponge.770c9cac.mp3,,,2,2__6a935167-a0f5-4399-b6dd-8928fe8bae35
NA, ,,NA,eye-track-image-sort,104,721806,0.0-9.0-0.37,0,9,0.37,NA,list_2,6a935167-a0f5-4399-b6dd-8928fe8bae35,,,708956,1366,768,NA,filler,NA,NA,/static/media/117_sentence1.3cd3d7bf.mp3,,,2,2__6a935167-a0f5-4399-b6dd-8928fe8bae35
NA, ,,NA,eye-track-image-sort,106,733151,0.0-9.0-0.38,0,9,0.38,NA,list_2,6a935167-a0f5-4399-b6dd-8928fe8bae35,,,724219,1366,768,select,modifier,#jspsych-freesort-draggable-3,#jspsych-freesort-draggable-1,/static/media/select_the_zebra_with_the_partyhat.289d5d9c.mp3,,,2,2__6a935167-a0f5-4399-b6dd-8928fe8bae35
5069,<p>You are halfway through the experiment! </p><p>We are now going to re-calibrate the eye-tracking software to ensure accuracy in the second half.</p>,,NA,html-button-response,108,739603,0.0-10.0,0,10,NA,NA,list_2,6a935167-a0f5-4399-b6dd-8928fe8bae35,,,NA,NA,NA,NA,NA,NA,NA,NA,,,2,2__6a935167-a0f5-4399-b6dd-8928fe8bae35
4998,"
    <p>We're going to take a moment to calibrate the eye tracker again.</p>
    <p>You'll see a series of dots appear on the screen. Look at each dot and click on it.</p>
  ",,boost-calibration,html-button-response,109,744604,0.0-11.0-0.0,0,11,0,NA,list_2,6a935167-a0f5-4399-b6dd-8928fe8bae35,,,NA,NA,NA,NA,NA,NA,NA,NA,,,2,2__6a935167-a0f5-4399-b6dd-8928fe8bae35
2426,"
    <p>Now we'll measure the accuracy of the calibration.</p>
    <p>Keep your head still, and move your eyes to look at the dots.</p>
    <p style=""font-weight: bold;"">You do not need to click on the dots this time.</p>
  ",,boost-calibration,html-button-response,111,773805,0.0-11.0-2.0,0,11,2,NA,list_2,6a935167-a0f5-4399-b6dd-8928fe8bae35,,,NA,NA,NA,NA,NA,NA,NA,NA,,,2,2__6a935167-a0f5-4399-b6dd-8928fe8bae35
3856,"
    <p>Great, we're done with calibration!</p>
    <p>Remember to keep your head still as you continue to the experiment.</p>
  ",,boost-calibration,html-button-response,113,793796,0.0-11.0-4.0,0,11,4,NA,list_2,6a935167-a0f5-4399-b6dd-8928fe8bae35,,,NA,NA,NA,NA,NA,NA,NA,NA,,,2,2__6a935167-a0f5-4399-b6dd-8928fe8bae35
NA, ,,NA,eye-track-image-sort,114,804260,0.0-12.0-0.0,0,12,0,NA,list_2,6a935167-a0f5-4399-b6dd-8928fe8bae35,,,794413,1366,768,feed,equibiased,#jspsych-freesort-draggable-0,#jspsych-freesort-draggable-3,/static/media/feed_the_duckling_with_the_lollipop.82f5e7fa.mp3,,,2,2__6a935167-a0f5-4399-b6dd-8928fe8bae35
NA, ,,NA,eye-track-image-sort,116,816104,0.0-12.0-0.1,0,12,0.1,NA,list_2,6a935167-a0f5-4399-b6dd-8928fe8bae35,,,806283,1366,768,point,equibiased,#jspsych-freesort-draggable-0,#jspsych-freesort-draggable-3,/static/media/point_to_the_fish_with_the_leaf.0656f677.mp3,,,2,2__6a935167-a0f5-4399-b6dd-8928fe8bae35
NA, ,,NA,eye-track-image-sort,118,823732,0.0-12.0-0.2,0,12,0.2,NA,list_2,6a935167-a0f5-4399-b6dd-8928fe8bae35,,,818147,1366,768,spot,equibiased,#jspsych-freesort-draggable-0,#jspsych-freesort-draggable-3,/static/media/spot_the_bird_with_the_straw.71f80b24.mp3,,,2,2__6a935167-a0f5-4399-b6dd-8928fe8bae35
NA, ,,NA,eye-track-image-sort,120,830374,0.0-12.0-0.3,0,12,0.3,NA,list_2,6a935167-a0f5-4399-b6dd-8928fe8bae35,,,825525,1366,768,find,modifier,#jspsych-freesort-draggable-0,#jspsych-freesort-draggable-3,/static/media/find_the_bird_with_the_towel.54d35032.mp3,,,2,2__6a935167-a0f5-4399-b6dd-8928fe8bae35
NA, ,,NA,eye-track-image-sort,122,846170,0.0-12.0-0.4,0,12,0.4,NA,list_2,6a935167-a0f5-4399-b6dd-8928fe8bae35,,,832378,1366,768,NA,filler,NA,NA,/static/media/118_sentence1.b22d8aba.mp3,,,2,2__6a935167-a0f5-4399-b6dd-8928fe8bae35
NA, ,,NA,eye-track-image-sort,124,863317,0.0-12.0-0.5,0,12,0.5,NA,list_2,6a935167-a0f5-4399-b6dd-8928fe8bae35,,,848745,1366,768,NA,filler,NA,NA,/static/media/126_sentence1.2df45750.mp3,,,2,2__6a935167-a0f5-4399-b6dd-8928fe8bae35
NA, ,,NA,eye-track-image-sort,126,880548,0.0-12.0-0.6,0,12,0.6,NA,list_2,6a935167-a0f5-4399-b6dd-8928fe8bae35,,,866027,1366,768,NA,filler,NA,NA,/static/media/112_sentence1.e186df5f.mp3,,,2,2__6a935167-a0f5-4399-b6dd-8928fe8bae35
NA, ,,NA,eye-track-image-sort,128,892897,0.0-12.0-0.7,0,12,0.7,NA,list_2,6a935167-a0f5-4399-b6dd-8928fe8bae35,,,884336,1366,768,NA,filler,NA,NA,/static/media/134_sentence1.bd8c81f2.mp3,,,2,2__6a935167-a0f5-4399-b6dd-8928fe8bae35
NA, ,,NA,eye-track-image-sort,130,904403,0.0-12.0-0.8,0,12,0.8,NA,list_2,6a935167-a0f5-4399-b6dd-8928fe8bae35,,,895218,1366,768,NA,filler,NA,NA,/static/media/114_sentence1.37992527.mp3,,,2,2__6a935167-a0f5-4399-b6dd-8928fe8bae35
NA, ,,NA,eye-track-image-sort,132,918602,0.0-12.0-0.9,0,12,0.9,NA,list_2,6a935167-a0f5-4399-b6dd-8928fe8bae35,,,906263,1366,768,NA,filler,NA,NA,/static/media/127_sentence1.0d95d540.mp3,,,2,2__6a935167-a0f5-4399-b6dd-8928fe8bae35
NA, ,,NA,eye-track-image-sort,134,928078,0.0-12.0-0.10,0,12,0.1,NA,list_2,6a935167-a0f5-4399-b6dd-8928fe8bae35,,,920527,1366,768,squeeze,modifier,#jspsych-freesort-draggable-2,#jspsych-freesort-draggable-1,/static/media/squeeze_zebra_with_the_hat.c544d48f.mp3,,,2,2__6a935167-a0f5-4399-b6dd-8928fe8bae35
NA, ,,NA,eye-track-image-sort,136,939406,0.0-12.0-0.11,0,12,0.11,NA,list_2,6a935167-a0f5-4399-b6dd-8928fe8bae35,,,930735,1366,768,scuff,equibiased,#jspsych-freesort-draggable-0,#jspsych-freesort-draggable-3,/static/media/scuff_the_chicken_with_the_flower.f3226ce4.mp3,,,2,2__6a935167-a0f5-4399-b6dd-8928fe8bae35
NA, ,,NA,eye-track-image-sort,136,958038,0.0-12.0-0.13,0,12,0.13,NA,list_1,6a935167-a0f5-4399-b6dd-8928fe8bae35,,,954543,1366,768,select,modifier,#jspsych-free-sort-draggable-2,#jspsych-free-sort-draggable-3,/static/media/select_the_zebra_with_a_towel.8a6c3bb4.mp3,,,2,2__6a935167-a0f5-4399-b6dd-8928fe8bae35
NA, ,,NA,eye-track-image-sort,138,950305,0.0-12.0-0.12,0,12,0.12,NA,list_2,6a935167-a0f5-4399-b6dd-8928fe8bae35,,,944294,1366,768,look,modifier,#jspsych-freesort-draggable-2,#jspsych-freesort-draggable-1,/static/media/look_at_horse_with_the_leaf.930c8d93.mp3,,,2,2__6a935167-a0f5-4399-b6dd-8928fe8bae35
NA, ,,NA,eye-track-image-sort,138,968792,0.0-12.0-0.14,0,12,0.14,NA,list_1,6a935167-a0f5-4399-b6dd-8928fe8bae35,,,961002,1366,768,pinch,equibiased,#jspsych-free-sort-draggable-2,#jspsych-free-sort-draggable-3,/static/media/pinch_the_panda_with_the_toothbrush.04a881ec.mp3,,,2,2__6a935167-a0f5-4399-b6dd-8928fe8bae35
NA, ,,NA,eye-track-image-sort,140,982000,0.0-12.0-0.15,0,12,0.15,NA,list_1,6a935167-a0f5-4399-b6dd-8928fe8bae35,,,971713,1366,768,tease,instrument,#jspsych-free-sort-draggable-2,#jspsych-free-sort-draggable-3,/static/media/tease_the_leopard_with_the_crayon.87e884ac.mp3,,,2,2__6a935167-a0f5-4399-b6dd-8928fe8bae35
NA, ,,NA,eye-track-image-sort,142,992603,0.0-12.0-0.16,0,12,0.16,NA,list_1,6a935167-a0f5-4399-b6dd-8928fe8bae35,,,985038,1366,768,NA,filler,NA,NA,/static/media/118_sentence1.b22d8aba.mp3,,,2,2__6a935167-a0f5-4399-b6dd-8928fe8bae35
NA, ,,NA,eye-track-image-sort,144,1012070,0.0-12.0-0.17,0,12,0.17,NA,list_1,6a935167-a0f5-4399-b6dd-8928fe8bae35,,,995286,1366,768,NA,filler,NA,NA,/static/media/131_sentence1.90b6c402.mp3,,,2,2__6a935167-a0f5-4399-b6dd-8928fe8bae35
NA, ,,NA,eye-track-image-sort,146,1029794,0.0-12.0-0.18,0,12,0.18,NA,list_1,6a935167-a0f5-4399-b6dd-8928fe8bae35,,,1014812,1366,768,NA,filler,NA,NA,/static/media/126_sentence1.2df45750.mp3,,,2,2__6a935167-a0f5-4399-b6dd-8928fe8bae35
NA, ,,NA,eye-track-image-sort,152,1043265,0.0-12.0-0.19,0,12,0.19,NA,list_1,6a935167-a0f5-4399-b6dd-8928fe8bae35,,,1037867,1366,768,NA,filler,NA,NA,/static/media/132_sentence1.254e155c.mp3,,,2,2__6a935167-a0f5-4399-b6dd-8928fe8bae35
NA, ,,NA,eye-track-image-sort,154,1050481,0.0-12.0-0.20,0,12,0.2,NA,list_1,6a935167-a0f5-4399-b6dd-8928fe8bae35,,,1046240,1366,768,spot,equibiased,#jspsych-free-sort-draggable-1,#jspsych-free-sort-draggable-0,/static/media/spot_the_bird_with_the_pencil.3945e3fc.mp3,,,2,2__6a935167-a0f5-4399-b6dd-8928fe8bae35
NA, ,,NA,eye-track-image-sort,156,1059803,0.0-12.0-0.21,0,12,0.21,NA,list_1,6a935167-a0f5-4399-b6dd-8928fe8bae35,,,1052808,1366,768,pickout,modifier,#jspsych-free-sort-draggable-2,#jspsych-free-sort-draggable-3,/static/media/pick_out_the_ladybug_with_a_straw.0ee22b29.mp3,,,2,2__6a935167-a0f5-4399-b6dd-8928fe8bae35
NA, ,,NA,eye-track-image-sort,158,1067717,0.0-12.0-0.22,0,12,0.22,NA,list_1,6a935167-a0f5-4399-b6dd-8928fe8bae35,,,1061979,1366,768,find,modifier,#jspsych-free-sort-draggable-2,#jspsych-free-sort-draggable-3,/static/media/find_the_lion_with_the_towel.7e505003.mp3,,,2,2__6a935167-a0f5-4399-b6dd-8928fe8bae35
NA, ,,NA,eye-track-image-sort,160,1077487,0.0-12.0-0.23,0,12,0.23,NA,list_1,6a935167-a0f5-4399-b6dd-8928fe8bae35,,,1069670,1366,768,pickout,modifier,#jspsych-free-sort-draggable-0,#jspsych-free-sort-draggable-1,/static/media/pickout_the_duckling_with_the_net.2e050a0a.mp3,,,2,2__6a935167-a0f5-4399-b6dd-8928fe8bae35
NA, ,,NA,eye-track-image-sort,162,1087374,0.0-12.0-0.24,0,12,0.24,NA,list_1,6a935167-a0f5-4399-b6dd-8928fe8bae35,,,1080096,1366,768,NA,filler,NA,NA,/static/media/118_sentence1.b22d8aba.mp3,,,2,2__6a935167-a0f5-4399-b6dd-8928fe8bae35
NA, ,,NA,eye-track-image-sort,164,1095125,0.0-12.0-0.25,0,12,0.25,NA,list_1,6a935167-a0f5-4399-b6dd-8928fe8bae35,,,1089967,1366,768,point,equibiased,#jspsych-free-sort-draggable-0,#jspsych-free-sort-draggable-1,/static/media/point_to_the_fish_with_the_funnel.06fa2a01.mp3,,,2,2__6a935167-a0f5-4399-b6dd-8928fe8bae35
NA, ,,NA,eye-track-image-sort,166,1109942,0.0-12.0-0.26,0,12,0.26,NA,list_1,6a935167-a0f5-4399-b6dd-8928fe8bae35,,,1097329,1366,768,rub,instrument,#jspsych-free-sort-draggable-1,#jspsych-free-sort-draggable-2,/static/media/rub_the_butterfly_with_the_violin.e8b4f866.mp3,,,2,2__6a935167-a0f5-4399-b6dd-8928fe8bae35
NA, ,,NA,eye-track-image-sort,168,1120156,0.0-12.0-0.27,0,12,0.27,NA,list_1,6a935167-a0f5-4399-b6dd-8928fe8bae35,,,1111871,1366,768,whack,instrument,#jspsych-free-sort-draggable-0,#jspsych-free-sort-draggable-1,/static/media/whack_the_cow_with_the_pencil.9205a0f0.mp3,,,2,2__6a935167-a0f5-4399-b6dd-8928fe8bae35
NA, ,,NA,eye-track-image-sort,170,1132406,0.0-12.0-0.28,0,12,0.28,NA,list_1,6a935167-a0f5-4399-b6dd-8928fe8bae35,,,1123611,1366,768,poke,instrument,#jspsych-free-sort-draggable-0,#jspsych-free-sort-draggable-3,/static/media/poke_the_bunny_with_the_spoon.9cb5bd39.mp3,,,2,2__6a935167-a0f5-4399-b6dd-8928fe8bae35
NA, ,,NA,eye-track-image-sort,172,1141505,0.0-12.0-0.29,0,12,0.29,NA,list_1,6a935167-a0f5-4399-b6dd-8928fe8bae35,,,1134513,1366,768,hug,modifier,#jspsych-free-sort-draggable-0,#jspsych-free-sort-draggable-1,/static/media/hug_the_giraffe_with_the_partyhat.98d88ba0.mp3,,,2,2__6a935167-a0f5-4399-b6dd-8928fe8bae35
NA, ,,NA,eye-track-image-sort,174,1152590,0.0-12.0-0.30,0,12,0.3,NA,list_1,6a935167-a0f5-4399-b6dd-8928fe8bae35,,,1143655,1366,768,cuddle,modifier,#jspsych-free-sort-draggable-0,#jspsych-free-sort-draggable-1,/static/media/cuddle_dolphin_with_the_microphone.8135aa3a.mp3,,,2,2__6a935167-a0f5-4399-b6dd-8928fe8bae35
NA, ,,NA,eye-track-image-sort,176,1165928,0.0-12.0-0.31,0,12,0.31,NA,list_1,6a935167-a0f5-4399-b6dd-8928fe8bae35,,,1156075,1366,768,feel,equibiased,#jspsych-free-sort-draggable-2,#jspsych-free-sort-draggable-0,/static/media/feel_the_bear_with_the_candle.dcee5227.mp3,,,2,2__6a935167-a0f5-4399-b6dd-8928fe8bae35
NA, ,,NA,eye-track-image-sort,178,1175901,0.0-12.0-0.32,0,12,0.32,NA,list_1,6a935167-a0f5-4399-b6dd-8928fe8bae35,,,1167981,1366,768,knockon,equibiased,#jspsych-free-sort-draggable-3,#jspsych-free-sort-draggable-2,/static/media/knock_on_the_frog_with_the_sponge.46db6692.mp3,,,2,2__6a935167-a0f5-4399-b6dd-8928fe8bae35
NA, ,,NA,eye-track-image-sort,180,1183343,0.0-12.0-0.33,0,12,0.33,NA,list_1,6a935167-a0f5-4399-b6dd-8928fe8bae35,,,1177996,1366,768,locate,equibiased,#jspsych-free-sort-draggable-2,#jspsych-free-sort-draggable-3,/static/media/locate_the_penguin_with_the_tube.c8a25b56.mp3,,,2,2__6a935167-a0f5-4399-b6dd-8928fe8bae35
NA, ,,NA,eye-track-image-sort,182,1194080,0.0-12.0-0.34,0,12,0.34,NA,list_1,6a935167-a0f5-4399-b6dd-8928fe8bae35,,,1185337,1366,768,tease,instrument,#jspsych-free-sort-draggable-2,#jspsych-free-sort-draggable-3,/static/media/tease_the_leopard_with_the_crayon.87e884ac.mp3,,,2,2__6a935167-a0f5-4399-b6dd-8928fe8bae35
NA, ,,NA,eye-track-image-sort,184,1201037,0.0-12.0-0.35,0,12,0.35,NA,list_1,6a935167-a0f5-4399-b6dd-8928fe8bae35,,,1197030,1366,768,NA,filler,NA,NA,/static/media/123_sentence1.aa4c7f19.mp3,,,2,2__6a935167-a0f5-4399-b6dd-8928fe8bae35
NA, ,,NA,eye-track-image-sort,186,1208668,0.0-12.0-0.36,0,12,0.36,NA,list_1,6a935167-a0f5-4399-b6dd-8928fe8bae35,,,1203095,1366,768,feed,equibiased,#jspsych-free-sort-draggable-1,#jspsych-free-sort-draggable-3,/static/media/feed_the_zebra_with_the_lollipop.d56b24c1.mp3,,,2,2__6a935167-a0f5-4399-b6dd-8928fe8bae35
NA, ,,NA,eye-track-image-sort,188,1222165,0.0-12.0-0.37,0,12,0.37,NA,list_1,6a935167-a0f5-4399-b6dd-8928fe8bae35,,,1210800,1366,768,clean,instrument,#jspsych-free-sort-draggable-2,#jspsych-free-sort-draggable-3,/static/media/clean_the_turtle_with_the_leaf.a9d0575f.mp3,,,2,2__6a935167-a0f5-4399-b6dd-8928fe8bae35
NA, ,,NA,eye-track-image-sort,190,1232764,0.0-12.0-0.38,0,12,0.38,NA,list_1,6a935167-a0f5-4399-b6dd-8928fe8bae35,,,1225946,1366,768,NA,filler,NA,NA,/static/media/121_sentence1.456addf7.mp3,,,2,2__6a935167-a0f5-4399-b6dd-8928fe8bae35
1375,<p> Were you wearing glasses during this experiment? </p>,,NA,html-button-response,192,1235318,0.0-13.0,0,13,NA,NA,list_1,6a935167-a0f5-4399-b6dd-8928fe8bae35,,,NA,NA,NA,NA,NA,NA,NA,NA,,,2,2__6a935167-a0f5-4399-b6dd-8928fe8bae35
3327,<p> Were you able to keep your head still during the course of this experiment? </p>,,NA,html-button-response,193,1238647,0.0-14.0,0,14,NA,NA,list_1,6a935167-a0f5-4399-b6dd-8928fe8bae35,,,NA,NA,NA,NA,NA,NA,NA,NA,,,2,2__6a935167-a0f5-4399-b6dd-8928fe8bae35
1190,<p> Were you distracted by any notifications? </p>,,NA,html-button-response,194,1239840,0.0-15.0,0,15,NA,NA,list_1,6a935167-a0f5-4399-b6dd-8928fe8bae35,,,NA,NA,NA,NA,NA,NA,NA,NA,,,2,2__6a935167-a0f5-4399-b6dd-8928fe8bae35
1199,<p> Were you able to hear all of the audios? </p>,,NA,html-button-response,195,1241041,0.0-16.0,0,16,NA,NA,list_1,6a935167-a0f5-4399-b6dd-8928fe8bae35,,,NA,NA,NA,NA,NA,NA,NA,NA,,,2,2__6a935167-a0f5-4399-b6dd-8928fe8bae35
3984, ,,NA,survey-text,195,1301907,0.0-20.0,0,20,NA,NA,list_1,6a935167-a0f5-4399-b6dd-8928fe8bae35,,,NA,NA,NA,NA,NA,NA,NA,NA,,,2,2__6a935167-a0f5-4399-b6dd-8928fe8bae35
2020,"If you are willing, please answer the following demographics questions. <br> Whether you answer these questions will not affect your compensation. ",,NA,html-button-response,196,1243063,0.0-17.0,0,17,NA,NA,list_1,6a935167-a0f5-4399-b6dd-8928fe8bae35,,,NA,NA,NA,NA,NA,NA,NA,NA,,,2,2__6a935167-a0f5-4399-b6dd-8928fe8bae35
2833, ,,NA,survey-text,197,1245908,0.0-18.0,0,18,NA,NA,list_1,6a935167-a0f5-4399-b6dd-8928fe8bae35,,,NA,NA,NA,NA,NA,NA,NA,NA,,,2,2__6a935167-a0f5-4399-b6dd-8928fe8bae35
9227, ,,NA,survey-multi-choice,198,1255140,0.0-19.0,0,19,NA,NA,list_1,6a935167-a0f5-4399-b6dd-8928fe8bae35,,,NA,NA,NA,NA,NA,NA,NA,NA,,,2,2__6a935167-a0f5-4399-b6dd-8928fe8bae35
7269,"<div class=""instructions""><p>You have completed the experiment. Thank you for participating!</p><p>This is an experiment about eye-tracking and how certain verbs influence associations.</p><p>One hypothesis is that sentences containing certain verbs will cause participants to fixate on the image of the target animal more than they would when other types of verbs are used.</p><p>An additional hypothesis is that particpants will first click on the image of the target object more often when a verb associated with object-use is used, rather than a verb without that association.</p><p>We will look at your individual eye and mouse movements to determine whether they show these theorized trends. If people generally do in fact follow the verb-bias trends mentioned before, then your eye and mouse movements should reflect that.</p></div>",,NA,html-button-response,198,1341184,0.0-23.0,0,23,NA,NA,list_1,6a935167-a0f5-4399-b6dd-8928fe8bae35,,,NA,NA,NA,NA,NA,NA,NA,NA,,,2,2__6a935167-a0f5-4399-b6dd-8928fe8bae35
15195, ,,NA,survey-text,200,1321750,0.0-21.0,0,21,NA,NA,list_1,6a935167-a0f5-4399-b6dd-8928fe8bae35,,,NA,NA,NA,NA,NA,NA,NA,NA,,,2,2__6a935167-a0f5-4399-b6dd-8928fe8bae35
80753,"
    <p>This experiment uses your camera for eye tracking.</p>
    <p>No video is saved from this experiment. The only data recorded are predictions about where you are looking.</p>
    <p>Before we begin, there are a few things to do that can improve the accuracy of the eye tracking.</p>
  ",,initial-calibration,html-button-response,1,83485,0.0-1.0-0.0,0,1,0,NA,list_1,6a935167-a0f5-4399-b6dd-8928fe8bae35,,,NA,NA,NA,NA,NA,NA,NA,NA,,,3,3__6a935167-a0f5-4399-b6dd-8928fe8bae35
2707,"
    <p>If you wear glasses and can complete the task without them, please remove your glasses.</p>
    <p>If you need to keep your glasses on to read this text, you can leave them on.</p>
  ",,initial-calibration,html-button-response,2,86194,0.0-1.0-1.0,0,1,1,NA,list_1,6a935167-a0f5-4399-b6dd-8928fe8bae35,,,NA,NA,NA,NA,NA,NA,NA,NA,,,3,3__6a935167-a0f5-4399-b6dd-8928fe8bae35
3156,"
    <p>Please close additional browser tabs and apps running in the background.</p>
    <p>The eye tracker works best when there are fewer things running at the same time.</p>
  ",,initial-calibration,html-button-response,3,89352,0.0-1.0-2.0,0,1,2,NA,list_1,6a935167-a0f5-4399-b6dd-8928fe8bae35,,,NA,NA,NA,NA,NA,NA,NA,NA,,,3,3__6a935167-a0f5-4399-b6dd-8928fe8bae35
1898,"
    <p>Try to avoid bright lights behind you.</p>
    <p>The eye tracker works best if your face is well lit from the front.</p>
    <p>If you can, adjust the lighting in your room.</p>
  ",,initial-calibration,html-button-response,4,91252,0.0-1.0-3.0,0,1,3,NA,list_1,6a935167-a0f5-4399-b6dd-8928fe8bae35,,,NA,NA,NA,NA,NA,NA,NA,NA,,,3,3__6a935167-a0f5-4399-b6dd-8928fe8bae35
12927,"
    <p>Turn off anything that may produce an alert or notification during the task.</p>
  ",,initial-calibration,html-button-response,5,93963,0.0-1.0-4.0,0,1,4,NA,list_1,6a935167-a0f5-4399-b6dd-8928fe8bae35,,,NA,NA,NA,NA,NA,NA,NA,NA,,,3,3__6a935167-a0f5-4399-b6dd-8928fe8bae35
4638,"
    <p>In order to participate you must allow the experiment to use your camera.</p>
    <p>You will be prompted to do this on the next screen.</p>
    <p>If you do not wish to allow use of your camera, you cannot participate in this experiment.<p>
    <p>It may take up to 30 seconds for the camera to initialize after you give permission.</p>
  ",,initial-calibration,html-button-response,6,98602,0.0-1.0-5.0,0,1,5,NA,list_1,6a935167-a0f5-4399-b6dd-8928fe8bae35,,,NA,NA,NA,NA,NA,NA,NA,NA,,,3,3__6a935167-a0f5-4399-b6dd-8928fe8bae35
6115,"
    <p>Now you'll calibrate the eye tracking, so that the software can use the image of your eyes to predict where you are looking.</p>
    <p>You'll see a series of dots appear on the screen. Look at each dot and click on it.</p>
  ",,initial-calibration,html-button-response,9,130938,0.0-1.0-8.0,0,1,8,NA,list_1,6a935167-a0f5-4399-b6dd-8928fe8bae35,,,NA,NA,NA,NA,NA,NA,NA,NA,,,3,3__6a935167-a0f5-4399-b6dd-8928fe8bae35
2538,"
    <p>Now we'll measure the accuracy of the calibration.</p>
    <p>Keep your head still, and move your eyes to look at the dots.</p>
    <p style=""font-weight: bold;"">You do not need to click on the dots this time.</p>
  ",,initial-calibration,html-button-response,11,168209,0.0-1.0-10.0,0,1,10,NA,list_1,6a935167-a0f5-4399-b6dd-8928fe8bae35,,,NA,NA,NA,NA,NA,NA,NA,NA,,,3,3__6a935167-a0f5-4399-b6dd-8928fe8bae35
1562,"
    <p>Great, we're done with calibration!</p>
    <p>Remember to keep your head still as you continue to the experiment.</p>
  ",,initial-calibration,html-button-response,17,239497,0.0-1.0-13.0,0,1,13,NA,list_1,6a935167-a0f5-4399-b6dd-8928fe8bae35,,,NA,NA,NA,NA,NA,NA,NA,NA,,,3,3__6a935167-a0f5-4399-b6dd-8928fe8bae35
5598," <p>To complete this experiment you need to be able to listen to audio.
                <p>Adjust your volume to a comfortable level.</p>
                <p>Once you can clearly hear the audio, press the spacebar to continue.</p>
              ",,NA,html-keyboard-response,19,245100,0.0-3.0,0,3,NA,NA,list_1,6a935167-a0f5-4399-b6dd-8928fe8bae35,,,NA,NA,NA,NA,NA,NA,NA,NA,,,3,3__6a935167-a0f5-4399-b6dd-8928fe8bae35
26700,"<p>You will be presented with four objects and an audio prompt. </p><p>Listen to the audio prompt and do your best to follow the instructions using your mouse.</p><p>You can pick up and move objects on the screen, or just move your mouse to act out the directions.</p><p>For example, if the audio says to look at an object, you should move your mouse on top of the object as if ""looking"" with your cursor.</p>",,NA,html-button-response,21,271802,0.0-5.0,0,5,NA,NA,list_1,6a935167-a0f5-4399-b6dd-8928fe8bae35,,,NA,NA,NA,NA,NA,NA,NA,NA,,,3,3__6a935167-a0f5-4399-b6dd-8928fe8bae35
3387,<p>Let's start with three practice trials.</p><p>Try to keep your head still throughout the trials and press the <b>spacebar</b> when you are done with a trial.</p><p>Press the spacebar to continue.</p>,,NA,html-keyboard-response,22,275190,0.0-6.0,0,6,NA,NA,list_1,6a935167-a0f5-4399-b6dd-8928fe8bae35,,,NA,NA,NA,NA,NA,NA,NA,NA,,,3,3__6a935167-a0f5-4399-b6dd-8928fe8bae35
NA, ,,NA,eye-track-image-sort,23,320463,0.0-7.0-0.0,0,7,0,NA,list_1,6a935167-a0f5-4399-b6dd-8928fe8bae35,,,276160,1366,768,NA,NA,NA,NA,NA,,,3,3__6a935167-a0f5-4399-b6dd-8928fe8bae35
5316, ,,NA,html-button-response,24,325780,0.0-7.0-1.0,0,7,1,NA,list_1,6a935167-a0f5-4399-b6dd-8928fe8bae35,,,NA,NA,NA,NA,NA,NA,NA,NA,,,3,3__6a935167-a0f5-4399-b6dd-8928fe8bae35
NA, ,,NA,eye-track-image-sort,25,337832,0.0-7.0-0.1,0,7,0.1,NA,list_1,6a935167-a0f5-4399-b6dd-8928fe8bae35,,,326750,1366,768,NA,NA,NA,NA,NA,,,3,3__6a935167-a0f5-4399-b6dd-8928fe8bae35
1924, ,,NA,html-button-response,26,339758,0.0-7.0-1.1,0,7,1.1,NA,list_1,6a935167-a0f5-4399-b6dd-8928fe8bae35,,,NA,NA,NA,NA,NA,NA,NA,NA,,,3,3__6a935167-a0f5-4399-b6dd-8928fe8bae35
NA, ,,NA,eye-track-image-sort,27,345336,0.0-7.0-0.2,0,7,0.2,NA,list_1,6a935167-a0f5-4399-b6dd-8928fe8bae35,,,340721,1366,768,NA,NA,NA,NA,NA,,,3,3__6a935167-a0f5-4399-b6dd-8928fe8bae35
1525, ,,NA,html-button-response,28,346863,0.0-7.0-1.2,0,7,1.2,NA,list_1,6a935167-a0f5-4399-b6dd-8928fe8bae35,,,NA,NA,NA,NA,NA,NA,NA,NA,,,3,3__6a935167-a0f5-4399-b6dd-8928fe8bae35
7034,"<p>We will now begin the experiment.</p><p>Remember to <b>stay as still as possible</b> and act out the instructions with your cursor.</p><p>Make sure to press the spacebar once you have completed the prompt.</p><p>After each trial, you will be asked to press a button to proceed to the next trial</p><p>Press the spacebar to begin.",,NA,html-keyboard-response,29,353899,0.0-8.0,0,8,NA,NA,list_1,6a935167-a0f5-4399-b6dd-8928fe8bae35,,,NA,NA,NA,NA,NA,NA,NA,NA,,,3,3__6a935167-a0f5-4399-b6dd-8928fe8bae35
NA, ,,NA,eye-track-image-sort,30,365699,0.0-9.0-0.0,0,9,0,NA,list_1,6a935167-a0f5-4399-b6dd-8928fe8bae35,,,354879,1366,768,poke,instrument,#jspsych-free-sort-draggable-2,#jspsych-free-sort-draggable-3,/static/media/poke_the_pig_with_the_violin.ba884902.mp3,,,3,3__6a935167-a0f5-4399-b6dd-8928fe8bae35
NA, ,,NA,eye-track-image-sort,32,376264,0.0-9.0-0.1,0,9,0.1,NA,list_1,6a935167-a0f5-4399-b6dd-8928fe8bae35,,,370897,1366,768,NA,filler,NA,NA,/static/media/120_sentence1.c582a280.mp3,,,3,3__6a935167-a0f5-4399-b6dd-8928fe8bae35
NA, ,,NA,eye-track-image-sort,34,384311,0.0-9.0-0.2,0,9,0.2,NA,list_1,6a935167-a0f5-4399-b6dd-8928fe8bae35,,,379387,1366,768,NA,filler,NA,NA,/static/media/125_sentence1.d1fb5670.mp3,,,3,3__6a935167-a0f5-4399-b6dd-8928fe8bae35
NA, ,,NA,eye-track-image-sort,36,397791,0.0-9.0-0.3,0,9,0.3,NA,list_1,6a935167-a0f5-4399-b6dd-8928fe8bae35,,,386918,1366,768,spot,equibiased,#jspsych-free-sort-draggable-3,#jspsych-free-sort-draggable-2,/static/media/spot_the_lion_with_the_straw.8021bf17.mp3,,,3,3__6a935167-a0f5-4399-b6dd-8928fe8bae35
NA, ,,NA,eye-track-image-sort,38,409270,0.0-9.0-0.4,0,9,0.4,NA,list_1,6a935167-a0f5-4399-b6dd-8928fe8bae35,,,400435,1366,768,NA,filler,NA,NA,/static/media/131_sentence1.90b6c402.mp3,,,3,3__6a935167-a0f5-4399-b6dd-8928fe8bae35
NA, ,,NA,eye-track-image-sort,40,422729,0.0-9.0-0.5,0,9,0.5,NA,list_1,6a935167-a0f5-4399-b6dd-8928fe8bae35,,,411744,1366,768,smack,instrument,#jspsych-free-sort-draggable-0,#jspsych-free-sort-draggable-1,/static/media/smack_the_dog_with_the_hat.5c355749.mp3,,,3,3__6a935167-a0f5-4399-b6dd-8928fe8bae35
NA, ,,NA,eye-track-image-sort,42,431362,0.0-9.0-0.6,0,9,0.6,NA,list_1,6a935167-a0f5-4399-b6dd-8928fe8bae35,,,424864,1366,768,scuff,equibiased,#jspsych-free-sort-draggable-0,#jspsych-free-sort-draggable-2,/static/media/scuff_the_chicken_the_cup.8543b9ff.mp3,,,3,3__6a935167-a0f5-4399-b6dd-8928fe8bae35
NA, ,,NA,eye-track-image-sort,44,443792,0.0-9.0-0.7,0,9,0.7,NA,list_1,6a935167-a0f5-4399-b6dd-8928fe8bae35,,,436311,1366,768,tease,instrument,#jspsych-free-sort-draggable-1,#jspsych-free-sort-draggable-3,/static/media/tease_the_dog_with_the_lolipop.cf0c7100.mp3,,,3,3__6a935167-a0f5-4399-b6dd-8928fe8bae35
NA, ,,NA,eye-track-image-sort,46,455781,0.0-9.0-0.8,0,9,0.8,NA,list_1,6a935167-a0f5-4399-b6dd-8928fe8bae35,,,448462,1366,768,NA,filler,NA,NA,/static/media/128_sentence1.91492674.mp3,,,3,3__6a935167-a0f5-4399-b6dd-8928fe8bae35
NA, ,,NA,eye-track-image-sort,48,465198,0.0-9.0-0.9,0,9,0.9,NA,list_1,6a935167-a0f5-4399-b6dd-8928fe8bae35,,,458371,1366,768,NA,filler,NA,NA,/static/media/117_sentence1.3cd3d7bf.mp3,,,3,3__6a935167-a0f5-4399-b6dd-8928fe8bae35
NA, ,,NA,eye-track-image-sort,50,477258,0.0-9.0-0.10,0,9,0.1,NA,list_1,6a935167-a0f5-4399-b6dd-8928fe8bae35,,,467860,1366,768,NA,filler,NA,NA,/static/media/113_sentence1.f17d2d04.mp3,,,3,3__6a935167-a0f5-4399-b6dd-8928fe8bae35
NA, ,,NA,eye-track-image-sort,50,500711,0.0-9.0-0.12,0,9,0.12,NA,list_2,6a935167-a0f5-4399-b6dd-8928fe8bae35,,,492331,1366,768,NA,filler,NA,NA,/static/media/126_sentence1.2df45750.mp3,,,3,3__6a935167-a0f5-4399-b6dd-8928fe8bae35
NA, ,,NA,eye-track-image-sort,52,487292,0.0-9.0-0.11,0,9,0.11,NA,list_1,6a935167-a0f5-4399-b6dd-8928fe8bae35,,,480066,1366,768,strike,instrument,#jspsych-free-sort-draggable-0,#jspsych-free-sort-draggable-1,/static/media/strike_the_bear_with_the_necklace.2e731a80.mp3,,,3,3__6a935167-a0f5-4399-b6dd-8928fe8bae35
NA, ,,NA,eye-track-image-sort,52,509681,0.0-9.0-0.13,0,9,0.13,NA,list_2,6a935167-a0f5-4399-b6dd-8928fe8bae35,,,502647,1366,768,NA,filler,NA,NA,/static/media/119_sentence1.9433bdf3.mp3,,,3,3__6a935167-a0f5-4399-b6dd-8928fe8bae35
NA, ,,NA,eye-track-image-sort,54,514909,0.0-9.0-0.14,0,9,0.14,NA,list_2,6a935167-a0f5-4399-b6dd-8928fe8bae35,,,511664,1366,768,smack,instrument,#jspsych-freesort-draggable-0,#jspsych-freesort-draggable-2,/static/media/smack_the_dog_with_the_flute.919204d2.mp3,,,3,3__6a935167-a0f5-4399-b6dd-8928fe8bae35
NA, ,,NA,eye-track-image-sort,56,521084,0.0-9.0-0.15,0,9,0.15,NA,list_2,6a935167-a0f5-4399-b6dd-8928fe8bae35,,,517021,1366,768,pinch,equibiased,#jspsych-freesort-draggable-2,#jspsych-freesort-draggable-1,/static/media/pinch_the_panda_with_the_hat.eb0f0971.mp3,,,3,3__6a935167-a0f5-4399-b6dd-8928fe8bae35
NA, ,,NA,eye-track-image-sort,58,529559,0.0-9.0-0.16,0,9,0.16,NA,list_2,6a935167-a0f5-4399-b6dd-8928fe8bae35,,,523188,1366,768,feed,equibiased,#jspsych-freesort-draggable-0,#jspsych-freesort-draggable-3,/static/media/feed_the_duckling_with_the_lollipop.82f5e7fa.mp3,,,3,3__6a935167-a0f5-4399-b6dd-8928fe8bae35
NA, ,,NA,eye-track-image-sort,60,537039,0.0-9.0-0.17,0,9,0.17,NA,list_2,6a935167-a0f5-4399-b6dd-8928fe8bae35,,,532095,1366,768,spot,equibiased,#jspsych-freesort-draggable-2,#jspsych-freesort-draggable-1,/static/media/spot_the_lion_with_the_pencil.589e276a.mp3,,,3,3__6a935167-a0f5-4399-b6dd-8928fe8bae35
NA, ,,NA,eye-track-image-sort,62,544702,0.0-9.0-0.18,0,9,0.18,NA,list_2,6a935167-a0f5-4399-b6dd-8928fe8bae35,,,540008,1366,768,cuddle,modifier,#jspsych-freesort-draggable-0,#jspsych-freesort-draggable-3,/static/media/cuddle_the_dolphin_with_the_pen.32c13923.mp3,,,3,3__6a935167-a0f5-4399-b6dd-8928fe8bae35
NA, ,,NA,eye-track-image-sort,64,551437,0.0-9.0-0.19,0,9,0.19,NA,list_2,6a935167-a0f5-4399-b6dd-8928fe8bae35,,,547039,1366,768,hit,instrument,#jspsych-freesort-draggable-2,#jspsych-freesort-draggable-3,/static/media/hit_the_mouse_with_the_tube.b96fbfc7.mp3,,,3,3__6a935167-a0f5-4399-b6dd-8928fe8bae35
NA, ,,NA,eye-track-image-sort,66,558688,0.0-9.0-0.20,0,9,0.2,NA,list_2,6a935167-a0f5-4399-b6dd-8928fe8bae35,,,554344,1366,768,whack,instrument,#jspsych-freesort-draggable-3,#jspsych-freesort-draggable-1,/static/media/wack_the_ladybug_with_the_pencil.ac453d82.mp3,,,3,3__6a935167-a0f5-4399-b6dd-8928fe8bae35
NA, ,,NA,eye-track-image-sort,68,567025,0.0-9.0-0.21,0,9,0.21,NA,list_2,6a935167-a0f5-4399-b6dd-8928fe8bae35,,,561367,1366,768,NA,filler,NA,NA,/static/media/134_sentence1.bd8c81f2.mp3,,,3,3__6a935167-a0f5-4399-b6dd-8928fe8bae35
NA, ,,NA,eye-track-image-sort,70,571960,0.0-9.0-0.22,0,9,0.22,NA,list_2,6a935167-a0f5-4399-b6dd-8928fe8bae35,,,569162,1366,768,find,modifier,#jspsych-freesort-draggable-2,#jspsych-freesort-draggable-1,/static/media/find_the_lion_with_the_mitten.fce0569b.mp3,,,3,3__6a935167-a0f5-4399-b6dd-8928fe8bae35
NA, ,,NA,eye-track-image-sort,72,579580,0.0-9.0-0.23,0,9,0.23,NA,list_2,6a935167-a0f5-4399-b6dd-8928fe8bae35,,,574502,1366,768,pat,equibiased,#jspsych-freesort-draggable-0,#jspsych-freesort-draggable-3,/static/media/pat_the_dog_with_the_pencil.eebda833.mp3,,,3,3__6a935167-a0f5-4399-b6dd-8928fe8bae35
NA, ,,NA,eye-track-image-sort,74,589175,0.0-9.0-0.24,0,9,0.24,NA,list_2,6a935167-a0f5-4399-b6dd-8928fe8bae35,,,581883,1366,768,NA,filler,NA,NA,/static/media/121_sentence1.456addf7.mp3,,,3,3__6a935167-a0f5-4399-b6dd-8928fe8bae35
NA, ,,NA,eye-track-image-sort,76,595217,0.0-9.0-0.25,0,9,0.25,NA,list_2,6a935167-a0f5-4399-b6dd-8928fe8bae35,,,591099,1366,768,pet,modifier,#jspsych-freesort-draggable-0,#jspsych-freesort-draggable-3,/static/media/pet_the_dolphin_with_the_tongs.a84bd679.mp3,,,3,3__6a935167-a0f5-4399-b6dd-8928fe8bae35
NA, ,,NA,eye-track-image-sort,78,602320,0.0-9.0-0.26,0,9,0.26,NA,list_2,6a935167-a0f5-4399-b6dd-8928fe8bae35,,,597120,1366,768,choose,modifier,#jspsych-freesort-draggable-2,#jspsych-freesort-draggable-1,/static/media/choose_the_squirrel_with_the_barrette.ad540968.mp3,,,3,3__6a935167-a0f5-4399-b6dd-8928fe8bae35
NA, ,,NA,eye-track-image-sort,80,609716,0.0-9.0-0.27,0,9,0.27,NA,list_2,6a935167-a0f5-4399-b6dd-8928fe8bae35,,,604175,1366,768,NA,filler,NA,NA,/static/media/118_sentence1.b22d8aba.mp3,,,3,3__6a935167-a0f5-4399-b6dd-8928fe8bae35
NA, ,,NA,eye-track-image-sort,82,616576,0.0-9.0-0.28,0,9,0.28,NA,list_2,6a935167-a0f5-4399-b6dd-8928fe8bae35,,,612441,1366,768,NA,filler,NA,NA,/static/media/130_sentence1.67e97c71.mp3,,,3,3__6a935167-a0f5-4399-b6dd-8928fe8bae35
NA, ,,NA,eye-track-image-sort,84,627473,0.0-9.0-0.29,0,9,0.29,NA,list_1,6a935167-a0f5-4399-b6dd-8928fe8bae35,,,609530,1366,768,feed,equibiased,#jspsych-free-sort-draggable-1,#jspsych-free-sort-draggable-3,/static/media/feed_the_zebra_with_the_lollipop.d56b24c1.mp3,,,3,3__6a935167-a0f5-4399-b6dd-8928fe8bae35
NA, ,,NA,eye-track-image-sort,86,641403,0.0-9.0-0.30,0,9,0.3,NA,list_1,6a935167-a0f5-4399-b6dd-8928fe8bae35,,,630309,1366,768,pet,modifier,#jspsych-free-sort-draggable-2,#jspsych-free-sort-draggable-3,/static/media/pet_the_lion_with_the_tongs.70dd67c3.mp3,,,3,3__6a935167-a0f5-4399-b6dd-8928fe8bae35
NA, ,,NA,eye-track-image-sort,88,649919,0.0-9.0-0.31,0,9,0.31,NA,list_1,6a935167-a0f5-4399-b6dd-8928fe8bae35,,,644998,1366,768,pickout,modifier,#jspsych-free-sort-draggable-2,#jspsych-free-sort-draggable-3,/static/media/pick_out_the_ladybug_with_a_straw.0ee22b29.mp3,,,3,3__6a935167-a0f5-4399-b6dd-8928fe8bae35
NA, ,,NA,eye-track-image-sort,90,661769,0.0-9.0-0.32,0,9,0.32,NA,list_1,6a935167-a0f5-4399-b6dd-8928fe8bae35,,,653601,1366,768,hit,instrument,#jspsych-free-sort-draggable-1,#jspsych-free-sort-draggable-0,/static/media/hit_the_mouse_with_the_cup.9d8e8740.mp3,,,3,3__6a935167-a0f5-4399-b6dd-8928fe8bae35
NA, ,,NA,eye-track-image-sort,92,679164,0.0-9.0-0.33,0,9,0.33,NA,list_1,6a935167-a0f5-4399-b6dd-8928fe8bae35,,,665010,1366,768,strike,instrument,#jspsych-free-sort-draggable-0,#jspsych-free-sort-draggable-1,/static/media/strike_the_bear_with_the_necklace.2e731a80.mp3,,,3,3__6a935167-a0f5-4399-b6dd-8928fe8bae35
NA, ,,NA,eye-track-image-sort,94,693220,0.0-9.0-0.34,0,9,0.34,NA,list_1,6a935167-a0f5-4399-b6dd-8928fe8bae35,,,682179,1366,768,strike,instrument,#jspsych-free-sort-draggable-3,#jspsych-free-sort-draggable-2,/static/media/strike_the_elephant_with_the_umbrella.02286a68.mp3,,,3,3__6a935167-a0f5-4399-b6dd-8928fe8bae35
NA, ,,NA,eye-track-image-sort,96,708123,0.0-9.0-0.35,0,9,0.35,NA,list_1,6a935167-a0f5-4399-b6dd-8928fe8bae35,,,697397,1366,768,NA,filler,NA,NA,/static/media/120_sentence1.c582a280.mp3,,,3,3__6a935167-a0f5-4399-b6dd-8928fe8bae35
NA, ,,NA,eye-track-image-sort,98,721526,0.0-9.0-0.36,0,9,0.36,NA,list_1,6a935167-a0f5-4399-b6dd-8928fe8bae35,,,711417,1366,768,spot,equibiased,#jspsych-free-sort-draggable-3,#jspsych-free-sort-draggable-2,/static/media/spot_the_lion_with_the_straw.8021bf17.mp3,,,3,3__6a935167-a0f5-4399-b6dd-8928fe8bae35
NA, ,,NA,eye-track-image-sort,100,756299,0.0-9.0-0.37,0,9,0.37,NA,list_1,6a935167-a0f5-4399-b6dd-8928fe8bae35,,,724558,1366,768,point,equibiased,#jspsych-free-sort-draggable-2,#jspsych-free-sort-draggable-3,/static/media/point_to_the_penguin_with_the_leaf.ae8440f4.mp3,,,3,3__6a935167-a0f5-4399-b6dd-8928fe8bae35
NA, ,,NA,eye-track-image-sort,102,765390,0.0-9.0-0.38,0,9,0.38,NA,list_1,6a935167-a0f5-4399-b6dd-8928fe8bae35,,,759397,1366,768,bop,instrument,#jspsych-free-sort-draggable-2,#jspsych-free-sort-draggable-3,/static/media/bop_the_panda_with_the_spoon.decee64b.mp3,,,3,3__6a935167-a0f5-4399-b6dd-8928fe8bae35
4701,<p>You are halfway through the experiment! </p><p>We are now going to re-calibrate the eye-tracking software to ensure accuracy in the second half.</p>,,NA,html-button-response,104,772143,0.0-10.0,0,10,NA,NA,list_1,6a935167-a0f5-4399-b6dd-8928fe8bae35,,,NA,NA,NA,NA,NA,NA,NA,NA,,,3,3__6a935167-a0f5-4399-b6dd-8928fe8bae35
2401,"
    <p>We're going to take a moment to calibrate the eye tracker again.</p>
    <p>You'll see a series of dots appear on the screen. Look at each dot and click on it.</p>
  ",,boost-calibration,html-button-response,105,774547,0.0-11.0-0.0,0,11,0,NA,list_1,6a935167-a0f5-4399-b6dd-8928fe8bae35,,,NA,NA,NA,NA,NA,NA,NA,NA,,,3,3__6a935167-a0f5-4399-b6dd-8928fe8bae35
2675,"
    <p>Now we'll measure the accuracy of the calibration.</p>
    <p>Keep your head still, and move your eyes to look at the dots.</p>
    <p style=""font-weight: bold;"">You do not need to click on the dots this time.</p>
  ",,boost-calibration,html-button-response,107,799802,0.0-11.0-2.0,0,11,2,NA,list_1,6a935167-a0f5-4399-b6dd-8928fe8bae35,,,NA,NA,NA,NA,NA,NA,NA,NA,,,3,3__6a935167-a0f5-4399-b6dd-8928fe8bae35
2658,"
    <p>Great, we're done with calibration!</p>
    <p>Remember to keep your head still as you continue to the experiment.</p>
  ",,boost-calibration,html-button-response,109,818571,0.0-11.0-4.0,0,11,4,NA,list_1,6a935167-a0f5-4399-b6dd-8928fe8bae35,,,NA,NA,NA,NA,NA,NA,NA,NA,,,3,3__6a935167-a0f5-4399-b6dd-8928fe8bae35
NA, ,,NA,eye-track-image-sort,110,828591,0.0-12.0-0.0,0,12,0,NA,list_1,6a935167-a0f5-4399-b6dd-8928fe8bae35,,,820261,1366,768,poke,instrument,#jspsych-free-sort-draggable-0,#jspsych-free-sort-draggable-3,/static/media/poke_the_bunny_with_the_spoon.9cb5bd39.mp3,,,3,3__6a935167-a0f5-4399-b6dd-8928fe8bae35
NA, ,,NA,eye-track-image-sort,112,844552,0.0-12.0-0.1,0,12,0.1,NA,list_1,6a935167-a0f5-4399-b6dd-8928fe8bae35,,,832353,1366,768,pinch,equibiased,#jspsych-free-sort-draggable-0,#jspsych-free-sort-draggable-1,/static/media/pinch_the_leopard_with_the_hat.afee1268.mp3,,,3,3__6a935167-a0f5-4399-b6dd-8928fe8bae35
NA, ,,NA,eye-track-image-sort,114,854618,0.0-12.0-0.2,0,12,0.2,NA,list_1,6a935167-a0f5-4399-b6dd-8928fe8bae35,,,847748,1366,768,cuddle,modifier,#jspsych-free-sort-draggable-0,#jspsych-free-sort-draggable-1,/static/media/cuddle_dolphin_with_the_microphone.8135aa3a.mp3,,,3,3__6a935167-a0f5-4399-b6dd-8928fe8bae35
NA, ,,NA,eye-track-image-sort,116,861075,0.0-12.0-0.3,0,12,0.3,NA,list_1,6a935167-a0f5-4399-b6dd-8928fe8bae35,,,857349,1366,768,spot,equibiased,#jspsych-free-sort-draggable-1,#jspsych-free-sort-draggable-0,/static/media/spot_the_bird_with_the_pencil.3945e3fc.mp3,,,3,3__6a935167-a0f5-4399-b6dd-8928fe8bae35
NA, ,,NA,eye-track-image-sort,118,873828,0.0-12.0-0.4,0,12,0.4,NA,list_1,6a935167-a0f5-4399-b6dd-8928fe8bae35,,,863815,1366,768,look,modifier,#jspsych-free-sort-draggable-2,#jspsych-free-sort-draggable-1,/static/media/look_at_the_horse_with_the_spoon.b670789a.mp3,,,3,3__6a935167-a0f5-4399-b6dd-8928fe8bae35
NA, ,,NA,eye-track-image-sort,120,885066,0.0-12.0-0.5,0,12,0.5,NA,list_1,6a935167-a0f5-4399-b6dd-8928fe8bae35,,,876491,1366,768,whack,instrument,#jspsych-free-sort-draggable-3,#jspsych-free-sort-draggable-2,/static/media/whack_the_ladybug_with_the_fan.d6e6b161.mp3,,,3,3__6a935167-a0f5-4399-b6dd-8928fe8bae35
NA, ,,NA,eye-track-image-sort,122,893762,0.0-12.0-0.6,0,12,0.6,NA,list_1,6a935167-a0f5-4399-b6dd-8928fe8bae35,,,888635,1366,768,choose,modifier,#jspsych-free-sort-draggable-0,#jspsych-free-sort-draggable-1,/static/media/choose_the_cow_with_the_barrette.ff221d3a.mp3,,,3,3__6a935167-a0f5-4399-b6dd-8928fe8bae35
NA, ,,NA,eye-track-image-sort,124,901859,0.0-12.0-0.7,0,12,0.7,NA,list_1,6a935167-a0f5-4399-b6dd-8928fe8bae35,,,896367,1366,768,scuff,equibiased,#jspsych-free-sort-draggable-0,#jspsych-free-sort-draggable-2,/static/media/scuff_the_chicken_the_cup.8543b9ff.mp3,,,3,3__6a935167-a0f5-4399-b6dd-8928fe8bae35
NA, ,,NA,eye-track-image-sort,126,910634,0.0-12.0-0.8,0,12,0.8,NA,list_1,6a935167-a0f5-4399-b6dd-8928fe8bae35,,,906205,1366,768,pat,equibiased,#jspsych-free-sort-draggable-2,#jspsych-free-sort-draggable-3,/static/media/pat_the_leopard_with_the_pencil.7099d1bb.mp3,,,3,3__6a935167-a0f5-4399-b6dd-8928fe8bae35
NA, ,,NA,eye-track-image-sort,128,923886,0.0-12.0-0.9,0,12,0.9,NA,list_1,6a935167-a0f5-4399-b6dd-8928fe8bae35,,,913509,1366,768,hit,instrument,#jspsych-free-sort-draggable-2,#jspsych-free-sort-draggable-3,/static/media/hit_the_frog_with_the_tube.f43c2b9b.mp3,,,3,3__6a935167-a0f5-4399-b6dd-8928fe8bae35
NA, ,,NA,eye-track-image-sort,130,932871,0.0-12.0-0.10,0,12,0.1,NA,list_1,6a935167-a0f5-4399-b6dd-8928fe8bae35,,,928819,1366,768,locate,equibiased,#jspsych-free-sort-draggable-2,#jspsych-free-sort-draggable-3,/static/media/locate_the_penguin_with_the_tube.c8a25b56.mp3,,,3,3__6a935167-a0f5-4399-b6dd-8928fe8bae35
NA, ,,NA,eye-track-image-sort,132,942486,0.0-12.0-0.11,0,12,0.11,NA,list_1,6a935167-a0f5-4399-b6dd-8928fe8bae35,,,935507,1366,768,pickout,modifier,#jspsych-free-sort-draggable-0,#jspsych-free-sort-draggable-1,/static/media/pickout_the_duckling_with_the_net.2e050a0a.mp3,,,3,3__6a935167-a0f5-4399-b6dd-8928fe8bae35
NA, ,,NA,eye-track-image-sort,134,950739,0.0-12.0-0.12,0,12,0.12,NA,list_1,6a935167-a0f5-4399-b6dd-8928fe8bae35,,,945156,1366,768,NA,filler,NA,NA,/static/media/135_sentence1.a0e2e661.mp3,,,3,3__6a935167-a0f5-4399-b6dd-8928fe8bae35
NA, ,,NA,eye-track-image-sort,140,965651,0.0-12.0-0.13,0,12,0.13,NA,list_2,6a935167-a0f5-4399-b6dd-8928fe8bae35,,,953034,1366,768,feed,equibiased,#jspsych-freesort-draggable-2,#jspsych-freesort-draggable-1,/static/media/feed_the_zebra_with_the_book.9f19c5bb.mp3,,,3,3__6a935167-a0f5-4399-b6dd-8928fe8bae35
NA, ,,NA,eye-track-image-sort,142,982818,0.0-12.0-0.14,0,12,0.14,NA,list_2,6a935167-a0f5-4399-b6dd-8928fe8bae35,,,968331,1366,768,clean,instrument,#jspsych-freesort-draggable-2,#jspsych-freesort-draggable-1,/static/media/clean_the_turtle_with_the_violin.2c487ddd.mp3,,,3,3__6a935167-a0f5-4399-b6dd-8928fe8bae35
NA, ,,NA,eye-track-image-sort,144,998357,0.0-12.0-0.15,0,12,0.15,NA,list_2,6a935167-a0f5-4399-b6dd-8928fe8bae35,,,985674,1366,768,NA,filler,NA,NA,/static/media/122_sentence1.a916c832.mp3,,,3,3__6a935167-a0f5-4399-b6dd-8928fe8bae35
NA, ,,NA,eye-track-image-sort,146,1004982,0.0-12.0-0.16,0,12,0.16,NA,list_2,6a935167-a0f5-4399-b6dd-8928fe8bae35,,,1000526,1366,768,spot,equibiased,#jspsych-freesort-draggable-2,#jspsych-freesort-draggable-1,/static/media/spot_the_lion_with_the_pencil.589e276a.mp3,,,3,3__6a935167-a0f5-4399-b6dd-8928fe8bae35
NA, ,,NA,eye-track-image-sort,148,1019789,0.0-12.0-0.17,0,12,0.17,NA,list_2,6a935167-a0f5-4399-b6dd-8928fe8bae35,,,1007475,1366,768,poke,instrument,#jspsych-freesort-draggable-2,#jspsych-freesort-draggable-1,/static/media/poke_the_pig_with_the_spoon.c26d72ab.mp3,,,3,3__6a935167-a0f5-4399-b6dd-8928fe8bae35
NA, ,,NA,eye-track-image-sort,150,1031395,0.0-12.0-0.18,0,12,0.18,NA,list_2,6a935167-a0f5-4399-b6dd-8928fe8bae35,,,1021803,1366,768,NA,filler,NA,NA,/static/media/130_sentence1.67e97c71.mp3,,,3,3__6a935167-a0f5-4399-b6dd-8928fe8bae35
NA, ,,NA,eye-track-image-sort,152,1045297,0.0-12.0-0.19,0,12,0.19,NA,list_2,6a935167-a0f5-4399-b6dd-8928fe8bae35,,,1033245,1366,768,knockon,equibiased,#jspsych-freesort-draggable-3,#jspsych-freesort-draggable-1,/static/media/knock_on_the_frog_with_the_feather.7b56ef2e.mp3,,,3,3__6a935167-a0f5-4399-b6dd-8928fe8bae35
NA, ,,NA,eye-track-image-sort,154,1053282,0.0-12.0-0.20,0,12,0.2,NA,list_2,6a935167-a0f5-4399-b6dd-8928fe8bae35,,,1048281,1366,768,choose,modifier,#jspsych-freesort-draggable-2,#jspsych-freesort-draggable-1,/static/media/choose_the_squirrel_with_the_barrette.ad540968.mp3,,,3,3__6a935167-a0f5-4399-b6dd-8928fe8bae35
NA, ,,NA,eye-track-image-sort,156,1063530,0.0-12.0-0.21,0,12,0.21,NA,list_2,6a935167-a0f5-4399-b6dd-8928fe8bae35,,,1055909,1366,768,hug,modifier,#jspsych-freesort-draggable-0,#jspsych-freesort-draggable-3,/static/media/hug_the_giraffe_with_the_umbrella.f63970ab.mp3,,,3,3__6a935167-a0f5-4399-b6dd-8928fe8bae35
NA, ,,NA,eye-track-image-sort,158,1074305,0.0-12.0-0.22,0,12,0.22,NA,list_2,6a935167-a0f5-4399-b6dd-8928fe8bae35,,,1065395,1366,768,NA,filler,NA,NA,/static/media/120_sentence1.c582a280.mp3,,,3,3__6a935167-a0f5-4399-b6dd-8928fe8bae35
NA, ,,NA,eye-track-image-sort,160,1089674,0.0-12.0-0.23,0,12,0.23,NA,list_2,6a935167-a0f5-4399-b6dd-8928fe8bae35,,,1076547,1366,768,whack,instrument,#jspsych-freesort-draggable-0,#jspsych-freesort-draggable-3,/static/media/wack_the_cow_with_the_fan.eb0daf2f.mp3,,,3,3__6a935167-a0f5-4399-b6dd-8928fe8bae35
NA, ,,NA,eye-track-image-sort,162,1104478,0.0-12.0-0.24,0,12,0.24,NA,list_2,6a935167-a0f5-4399-b6dd-8928fe8bae35,,,1091658,1366,768,smack,instrument,#jspsych-freesort-draggable-0,#jspsych-freesort-draggable-2,/static/media/smack_the_dog_with_the_flute.919204d2.mp3,,,3,3__6a935167-a0f5-4399-b6dd-8928fe8bae35
NA, ,,NA,eye-track-image-sort,164,1110375,0.0-12.0-0.25,0,12,0.25,NA,list_2,6a935167-a0f5-4399-b6dd-8928fe8bae35,,,1106568,1366,768,find,modifier,#jspsych-freesort-draggable-2,#jspsych-freesort-draggable-1,/static/media/find_the_lion_with_the_mitten.fce0569b.mp3,,,3,3__6a935167-a0f5-4399-b6dd-8928fe8bae35
NA, ,,NA,eye-track-image-sort,166,1122196,0.0-12.0-0.26,0,12,0.26,NA,list_2,6a935167-a0f5-4399-b6dd-8928fe8bae35,,,1112709,1366,768,strike,instrument,#jspsych-freesort-draggable-0,#jspsych-freesort-draggable-1,/static/media/strike_the_bear_with_the_umbrella.2c020ba5.mp3,,,3,3__6a935167-a0f5-4399-b6dd-8928fe8bae35
NA, ,,NA,eye-track-image-sort,168,1128879,0.0-12.0-0.27,0,12,0.27,NA,list_2,6a935167-a0f5-4399-b6dd-8928fe8bae35,,,1124203,1366,768,look,modifier,#jspsych-freesort-draggable-0,#jspsych-freesort-draggable-3,/static/media/look_at_the_chicken_with_the_spoon.60ba2f78.mp3,,,3,3__6a935167-a0f5-4399-b6dd-8928fe8bae35
NA, ,,NA,eye-track-image-sort,170,1140405,0.0-12.0-0.28,0,12,0.28,NA,list_2,6a935167-a0f5-4399-b6dd-8928fe8bae35,,,1130981,1366,768,whack,instrument,#jspsych-freesort-draggable-3,#jspsych-freesort-draggable-1,/static/media/wack_the_ladybug_with_the_pencil.ac453d82.mp3,,,3,3__6a935167-a0f5-4399-b6dd-8928fe8bae35
NA, ,,NA,eye-track-image-sort,172,1151334,0.0-12.0-0.29,0,12,0.29,NA,list_2,6a935167-a0f5-4399-b6dd-8928fe8bae35,,,1142799,1366,768,cuddle,modifier,#jspsych-freesort-draggable-0,#jspsych-freesort-draggable-3,/static/media/cuddle_the_dolphin_with_the_pen.32c13923.mp3,,,3,3__6a935167-a0f5-4399-b6dd-8928fe8bae35
NA, ,,NA,eye-track-image-sort,174,1164390,0.0-12.0-0.30,0,12,0.3,NA,list_2,6a935167-a0f5-4399-b6dd-8928fe8bae35,,,1153744,1366,768,rub,instrument,#jspsych-freesort-draggable-3,#jspsych-freesort-draggable-1,/static/media/rub_the_panda_with_the_violin.0df2f2d9.mp3,,,3,3__6a935167-a0f5-4399-b6dd-8928fe8bae35
NA, ,,NA,eye-track-image-sort,176,1173119,0.0-12.0-0.31,0,12,0.31,NA,list_2,6a935167-a0f5-4399-b6dd-8928fe8bae35,,,1166915,1366,768,NA,filler,NA,NA,/static/media/132_sentence1.254e155c.mp3,,,3,3__6a935167-a0f5-4399-b6dd-8928fe8bae35
NA, ,,NA,eye-track-image-sort,178,1187649,0.0-12.0-0.32,0,12,0.32,NA,list_2,6a935167-a0f5-4399-b6dd-8928fe8bae35,,,1175802,1366,768,NA,filler,NA,NA,/static/media/129_sentence1.d94d2f11.mp3,,,3,3__6a935167-a0f5-4399-b6dd-8928fe8bae35
NA, ,,NA,eye-track-image-sort,180,1200376,0.0-12.0-0.33,0,12,0.33,NA,list_2,6a935167-a0f5-4399-b6dd-8928fe8bae35,,,1190254,1366,768,NA,filler,NA,NA,/static/media/125_sentence1.d1fb5670.mp3,,,3,3__6a935167-a0f5-4399-b6dd-8928fe8bae35
NA, ,,NA,eye-track-image-sort,182,1211781,0.0-12.0-0.34,0,12,0.34,NA,list_2,6a935167-a0f5-4399-b6dd-8928fe8bae35,,,1202829,1366,768,select,modifier,#jspsych-freesort-draggable-0,#jspsych-freesort-draggable-3,/static/media/select_the_squirrel_with_the_towel.18352388.mp3,,,3,3__6a935167-a0f5-4399-b6dd-8928fe8bae35
NA, ,,NA,eye-track-image-sort,184,1224653,0.0-12.0-0.35,0,12,0.35,NA,list_2,6a935167-a0f5-4399-b6dd-8928fe8bae35,,,1214234,1366,768,smack,instrument,#jspsych-freesort-draggable-3,#jspsych-freesort-draggable-1,/static/media/smack_the_leopard_with_the_hat.b15c305c.mp3,,,3,3__6a935167-a0f5-4399-b6dd-8928fe8bae35
NA, ,,NA,eye-track-image-sort,186,1238062,0.0-12.0-0.36,0,12,0.36,NA,list_2,6a935167-a0f5-4399-b6dd-8928fe8bae35,,,1226777,1366,768,hit,instrument,#jspsych-freesort-draggable-2,#jspsych-freesort-draggable-0,/static/media/hit_the_frog_with_the_cup.e87a240b.mp3,,,3,3__6a935167-a0f5-4399-b6dd-8928fe8bae35
NA, ,,NA,eye-track-image-sort,188,1249030,0.0-12.0-0.37,0,12,0.37,NA,list_2,6a935167-a0f5-4399-b6dd-8928fe8bae35,,,1240485,1366,768,feel,equibiased,#jspsych-freesort-draggable-2,#jspsych-freesort-draggable-1,/static/media/feel_the_leopard_with_the_candle.b07d1f60.mp3,,,3,3__6a935167-a0f5-4399-b6dd-8928fe8bae35
NA, ,,NA,eye-track-image-sort,190,1257438,0.0-12.0-0.38,0,12,0.38,NA,list_2,6a935167-a0f5-4399-b6dd-8928fe8bae35,,,1251347,1366,768,choose,modifier,#jspsych-freesort-draggable-0,#jspsych-freesort-draggable-3,/static/media/choose_the_cow_with_the_pen.b4040b06.mp3,,,3,3__6a935167-a0f5-4399-b6dd-8928fe8bae35
2847,<p> Were you wearing glasses during this experiment? </p>,,NA,html-button-response,192,1261542,0.0-13.0,0,13,NA,NA,list_2,6a935167-a0f5-4399-b6dd-8928fe8bae35,,,NA,NA,NA,NA,NA,NA,NA,NA,,,3,3__6a935167-a0f5-4399-b6dd-8928fe8bae35
3505,<p> Were you able to keep your head still during the course of this experiment? </p>,,NA,html-button-response,193,1265049,0.0-14.0,0,14,NA,NA,list_2,6a935167-a0f5-4399-b6dd-8928fe8bae35,,,NA,NA,NA,NA,NA,NA,NA,NA,,,3,3__6a935167-a0f5-4399-b6dd-8928fe8bae35
2194,<p> Were you distracted by any notifications? </p>,,NA,html-button-response,194,1267248,0.0-15.0,0,15,NA,NA,list_2,6a935167-a0f5-4399-b6dd-8928fe8bae35,,,NA,NA,NA,NA,NA,NA,NA,NA,,,3,3__6a935167-a0f5-4399-b6dd-8928fe8bae35
9400, ,,NA,survey-multi-choice,194,1297911,0.0-19.0,0,19,NA,NA,list_1,6a935167-a0f5-4399-b6dd-8928fe8bae35,,,NA,NA,NA,NA,NA,NA,NA,NA,,,3,3__6a935167-a0f5-4399-b6dd-8928fe8bae35
2434,<p> Were you able to hear all of the audios? </p>,,NA,html-button-response,195,1269684,0.0-16.0,0,16,NA,NA,list_2,6a935167-a0f5-4399-b6dd-8928fe8bae35,,,NA,NA,NA,NA,NA,NA,NA,NA,,,3,3__6a935167-a0f5-4399-b6dd-8928fe8bae35
