[{"success":true,"timeout":false,"failed_images":[],"failed_audio":[],"failed_video":[],"trial_type":"preload","trial_index":0,"time_elapsed":4430,"internal_node_id":"0.0-0.0","subject_id":"5f0f57ca6fc9b00df9d53a30","study_id":"607de2837874a824e2e8c6ec","session_id":"6088713937918220f5f812de"},{"rt":49884.93999990169,"stimulus":"\n      <div style=\"width:800px; text-align: left;\">\n        <p>Welcome to day 2 of the experiment! Thanks for coming back.</p>\n        <p>You will be presented with a series of images. Images will appear one at a time.</p>\n        <p>Each image will remain on the screen until you press either <span style=\"font-weight: bold;\">\"y\" to indicate you have seen the \n        exact same photo the day before or \"n\" to indicate you have not seen the exact same photo the day before.</span></p>\n        <p>After you answer yes (\"y\") or no (\"n\"), you will then be prompted to rate your certainty on a scale of\n        1 (pure guess) to 5 (very sure).</p>\n      </div>\n    ","response":0,"trial_type":"html-button-response","trial_index":1,"time_elapsed":54322,"internal_node_id":"0.0-1.0","subject_id":"5f0f57ca6fc9b00df9d53a30","study_id":"607de2837874a824e2e8c6ec","session_id":"6088713937918220f5f812de"},{"success":true,"trial_type":"fullscreen","trial_index":2,"time_elapsed":58185,"internal_node_id":"0.0-2.0","subject_id":"5f0f57ca6fc9b00df9d53a30","study_id":"607de2837874a824e2e8c6ec","session_id":"6088713937918220f5f812de"},{"rt":5588.405000045896,"stimulus":"img/lightbulb_alternate.jpg","response":"n","image":"img/lightbulb_alternate.jpg","old_or_new":"new","task":"recognition","trial_type":"image-keyboard-response","trial_index":3,"time_elapsed":63784,"internal_node_id":"0.0-3.0-0.0","subject_id":"5f0f57ca6fc9b00df9d53a30","study_id":"607de2837874a824e2e8c6ec","session_id":"6088713937918220f5f812de","correct":true},{"rt":4305.009999894537,"stimulus":"\n      <p>How sure are you?</p>\n      <p>Rate your confidence in your answer from 1 (pure guess) to 5 (very sure) by pressing the corresponding button.</p>\n     ","response":3,"image":"img/lightbulb_alternate.jpg","task":"confidence","old_or_new":"new","trial_type":"html-button-response","trial_index":4,"time_elapsed":68091,"internal_node_id":"0.0-3.0-1.0","subject_id":"5f0f57ca6fc9b00df9d53a30","study_id":"607de2837874a824e2e8c6ec","session_id":"6088713937918220f5f812de"},{"rt":2222.9349999688566,"stimulus":"img/fan.jpg","response":"y","image":"img/fan.jpg","old_or_new":"old","task":"recognition","trial_type":"image-keyboard-response","trial_index":5,"time_elapsed":70832,"internal_node_id":"0.0-3.0-0.1","subject_id":"5f0f57ca6fc9b00df9d53a30","study_id":"607de2837874a824e2e8c6ec","session_id":"6088713937918220f5f812de","correct":true},{"rt":3134.2899999581277,"stimulus":"\n      <p>How sure are you?</p>\n      <p>Rate your confidence in your answer from 1 (pure guess) to 5 (very sure) by pressing the corresponding button.</p>\n     ","response":4,"image":"img/fan.jpg","task":"confidence","old_or_new":"old","trial_type":"html-button-response","trial_index":6,"time_elapsed":73967,"internal_node_id":"0.0-3.0-1.1","subject_id":"5f0f57ca6fc9b00df9d53a30","study_id":"607de2837874a824e2e8c6ec","session_id":"6088713937918220f5f812de"},{"rt":1990.4649999225512,"stimulus":"img/coin.jpg","response":"y","image":"img/coin.jpg","old_or_new":"old","task":"recognition","trial_type":"image-keyboard-response","trial_index":7,"time_elapsed":76462,"internal_node_id":"0.0-3.0-0.2","subject_id":"5f0f57ca6fc9b00df9d53a30","study_id":"607de2837874a824e2e8c6ec","session_id":"6088713937918220f5f812de","correct":true},{"rt":1285.8700000215322,"stimulus":"\n      <p>How sure are you?</p>\n      <p>Rate your confidence in your answer from 1 (pure guess) to 5 (very sure) by pressing the corresponding button.</p>\n     ","response":4,"image":"img/coin.jpg","task":"confidence","old_or_new":"old","trial_type":"html-button-response","trial_index":8,"time_elapsed":77749,"internal_node_id":"0.0-3.0-1.2","subject_id":"5f0f57ca6fc9b00df9d53a30","study_id":"607de2837874a824e2e8c6ec","session_id":"6088713937918220f5f812de"},{"rt":1440.6149999704212,"stimulus":"img/key_alternate.jpg","response":"n","image":"img/key_alternate.jpg","old_or_new":"new","task":"recognition","trial_type":"image-keyboard-response","trial_index":9,"time_elapsed":79699,"internal_node_id":"0.0-3.0-0.3","subject_id":"5f0f57ca6fc9b00df9d53a30","study_id":"607de2837874a824e2e8c6ec","session_id":"6088713937918220f5f812de","correct":true},{"rt":1650.2549999859184,"stimulus":"\n      <p>How sure are you?</p>\n      <p>Rate your confidence in your answer from 1 (pure guess) to 5 (very sure) by pressing the corresponding button.</p>\n     ","response":3,"image":"img/key_alternate.jpg","task":"confidence","old_or_new":"new","trial_type":"html-button-response","trial_index":10,"time_elapsed":81351,"internal_node_id":"0.0-3.0-1.3","subject_id":"5f0f57ca6fc9b00df9d53a30","study_id":"607de2837874a824e2e8c6ec","session_id":"6088713937918220f5f812de"},{"rt":1611.3449999829754,"stimulus":"img/hairbrush.jpg","response":"y","image":"img/hairbrush.jpg","old_or_new":"old","task":"recognition","trial_type":"image-keyboard-response","trial_index":11,"time_elapsed":83466,"internal_node_id":"0.0-3.0-0.4","subject_id":"5f0f57ca6fc9b00df9d53a30","study_id":"607de2837874a824e2e8c6ec","session_id":"6088713937918220f5f812de","correct":true},{"rt":969.2400000058115,"stimulus":"\n      <p>How sure are you?</p>\n      <p>Rate your confidence in your answer from 1 (pure guess) to 5 (very sure) by pressing the corresponding button.</p>\n     ","response":3,"image":"img/hairbrush.jpg","task":"confidence","old_or_new":"old","trial_type":"html-button-response","trial_index":12,"time_elapsed":84436,"internal_node_id":"0.0-3.0-1.4","subject_id":"5f0f57ca6fc9b00df9d53a30","study_id":"607de2837874a824e2e8c6ec","session_id":"6088713937918220f5f812de"},{"rt":2253.469999996014,"stimulus":"img/chair.jpg","response":"y","image":"img/chair.jpg","old_or_new":"old","task":"recognition","trial_type":"image-keyboard-response","trial_index":13,"time_elapsed":87201,"internal_node_id":"0.0-3.0-0.5","subject_id":"5f0f57ca6fc9b00df9d53a30","study_id":"607de2837874a824e2e8c6ec","session_id":"6088713937918220f5f812de","correct":true},{"rt":998.325000051409,"stimulus":"\n      <p>How sure are you?</p>\n      <p>Rate your confidence in your answer from 1 (pure guess) to 5 (very sure) by pressing the corresponding button.</p>\n     ","response":4,"image":"img/chair.jpg","task":"confidence","old_or_new":"old","trial_type":"html-button-response","trial_index":14,"time_elapsed":88201,"internal_node_id":"0.0-3.0-1.5","subject_id":"5f0f57ca6fc9b00df9d53a30","study_id":"607de2837874a824e2e8c6ec","session_id":"6088713937918220f5f812de"},{"rt":1368.4549999888986,"stimulus":"img/camera_alternate.jpg","response":"n","image":"img/camera_alternate.jpg","old_or_new":"new","task":"recognition","trial_type":"image-keyboard-response","trial_index":15,"time_elapsed":90078,"internal_node_id":"0.0-3.0-0.6","subject_id":"5f0f57ca6fc9b00df9d53a30","study_id":"607de2837874a824e2e8c6ec","session_id":"6088713937918220f5f812de","correct":true},{"rt":1226.9349999260157,"stimulus":"\n      <p>How sure are you?</p>\n      <p>Rate your confidence in your answer from 1 (pure guess) to 5 (very sure) by pressing the corresponding button.</p>\n     ","response":3,"image":"img/camera_alternate.jpg","task":"confidence","old_or_new":"new","trial_type":"html-button-response","trial_index":16,"time_elapsed":91306,"internal_node_id":"0.0-3.0-1.6","subject_id":"5f0f57ca6fc9b00df9d53a30","study_id":"607de2837874a824e2e8c6ec","session_id":"6088713937918220f5f812de"},{"rt":3171.0699999239296,"stimulus":"img/basket_alternate.jpg","response":"y","image":"img/basket_alternate.jpg","old_or_new":"new","task":"recognition","trial_type":"image-keyboard-response","trial_index":17,"time_elapsed":94984,"internal_node_id":"0.0-3.0-0.7","subject_id":"5f0f57ca6fc9b00df9d53a30","study_id":"607de2837874a824e2e8c6ec","session_id":"6088713937918220f5f812de","correct":false},{"rt":2116.9150000205263,"stimulus":"\n      <p>How sure are you?</p>\n      <p>Rate your confidence in your answer from 1 (pure guess) to 5 (very sure) by pressing the corresponding button.</p>\n     ","response":1,"image":"img/basket_alternate.jpg","task":"confidence","old_or_new":"new","trial_type":"html-button-response","trial_index":18,"time_elapsed":97102,"internal_node_id":"0.0-3.0-1.7","subject_id":"5f0f57ca6fc9b00df9d53a30","study_id":"607de2837874a824e2e8c6ec","session_id":"6088713937918220f5f812de"},{"rt":3262.19499995932,"stimulus":"img/leaf.jpg","response":"y","image":"img/leaf.jpg","old_or_new":"old","task":"recognition","trial_type":"image-keyboard-response","trial_index":19,"time_elapsed":100875,"internal_node_id":"0.0-3.0-0.8","subject_id":"5f0f57ca6fc9b00df9d53a30","study_id":"607de2837874a824e2e8c6ec","session_id":"6088713937918220f5f812de","correct":true},{"rt":1397.700000088662,"stimulus":"\n      <p>How sure are you?</p>\n      <p>Rate your confidence in your answer from 1 (pure guess) to 5 (very sure) by pressing the corresponding button.</p>\n     ","response":1,"image":"img/leaf.jpg","task":"confidence","old_or_new":"old","trial_type":"html-button-response","trial_index":20,"time_elapsed":102274,"internal_node_id":"0.0-3.0-1.8","subject_id":"5f0f57ca6fc9b00df9d53a30","study_id":"607de2837874a824e2e8c6ec","session_id":"6088713937918220f5f812de"},{"rt":1594.5300000021234,"stimulus":"img/hairbrush_alternate.jpg","response":"n","image":"img/hairbrush_alternate.jpg","old_or_new":"new","task":"recognition","trial_type":"image-keyboard-response","trial_index":21,"time_elapsed":104372,"internal_node_id":"0.0-3.0-0.9","subject_id":"5f0f57ca6fc9b00df9d53a30","study_id":"607de2837874a824e2e8c6ec","session_id":"6088713937918220f5f812de","correct":true},{"rt":1275.510000064969,"stimulus":"\n      <p>How sure are you?</p>\n      <p>Rate your confidence in your answer from 1 (pure guess) to 5 (very sure) by pressing the corresponding button.</p>\n     ","response":3,"image":"img/hairbrush_alternate.jpg","task":"confidence","old_or_new":"new","trial_type":"html-button-response","trial_index":22,"time_elapsed":105649,"internal_node_id":"0.0-3.0-1.9","subject_id":"5f0f57ca6fc9b00df9d53a30","study_id":"607de2837874a824e2e8c6ec","session_id":"6088713937918220f5f812de"},{"rt":1321.1199999786913,"stimulus":"img/leaf_alternate.jpg","response":"n","image":"img/leaf_alternate.jpg","old_or_new":"new","task":"recognition","trial_type":"image-keyboard-response","trial_index":23,"time_elapsed":107473,"internal_node_id":"0.0-3.0-0.10","subject_id":"5f0f57ca6fc9b00df9d53a30","study_id":"607de2837874a824e2e8c6ec","session_id":"6088713937918220f5f812de","correct":true},{"rt":1112.485000048764,"stimulus":"\n      <p>How sure are you?</p>\n      <p>Rate your confidence in your answer from 1 (pure guess) to 5 (very sure) by pressing the corresponding button.</p>\n     ","response":2,"image":"img/leaf_alternate.jpg","task":"confidence","old_or_new":"new","trial_type":"html-button-response","trial_index":24,"time_elapsed":108586,"internal_node_id":"0.0-3.0-1.10","subject_id":"5f0f57ca6fc9b00df9d53a30","study_id":"607de2837874a824e2e8c6ec","session_id":"6088713937918220f5f812de"},{"rt":1203.7550000241026,"stimulus":"img/apple_alternate.jpg","response":"n","image":"img/apple_alternate.jpg","old_or_new":"new","task":"recognition","trial_type":"image-keyboard-response","trial_index":25,"time_elapsed":110303,"internal_node_id":"0.0-3.0-0.11","subject_id":"5f0f57ca6fc9b00df9d53a30","study_id":"607de2837874a824e2e8c6ec","session_id":"6088713937918220f5f812de","correct":true},{"rt":1099.5349999284372,"stimulus":"\n      <p>How sure are you?</p>\n      <p>Rate your confidence in your answer from 1 (pure guess) to 5 (very sure) by pressing the corresponding button.</p>\n     ","response":2,"image":"img/apple_alternate.jpg","task":"confidence","old_or_new":"new","trial_type":"html-button-response","trial_index":26,"time_elapsed":111404,"internal_node_id":"0.0-3.0-1.11","subject_id":"5f0f57ca6fc9b00df9d53a30","study_id":"607de2837874a824e2e8c6ec","session_id":"6088713937918220f5f812de"},{"rt":1682.1150000905618,"stimulus":"img/hat.jpg","response":"y","image":"img/hat.jpg","old_or_new":"old","task":"recognition","trial_type":"image-keyboard-response","trial_index":27,"time_elapsed":113590,"internal_node_id":"0.0-3.0-0.12","subject_id":"5f0f57ca6fc9b00df9d53a30","study_id":"607de2837874a824e2e8c6ec","session_id":"6088713937918220f5f812de","correct":true},{"rt":1257.5150000629947,"stimulus":"\n      <p>How sure are you?</p>\n      <p>Rate your confidence in your answer from 1 (pure guess) to 5 (very sure) by pressing the corresponding button.</p>\n     ","response":4,"image":"img/hat.jpg","task":"confidence","old_or_new":"old","trial_type":"html-button-response","trial_index":28,"time_elapsed":114849,"internal_node_id":"0.0-3.0-1.12","subject_id":"5f0f57ca6fc9b00df9d53a30","study_id":"607de2837874a824e2e8c6ec","session_id":"6088713937918220f5f812de"},{"rt":2022.4750000052154,"stimulus":"img/calculator.jpg","response":"y","image":"img/calculator.jpg","old_or_new":"old","task":"recognition","trial_type":"image-keyboard-response","trial_index":29,"time_elapsed":117384,"internal_node_id":"0.0-3.0-0.13","subject_id":"5f0f57ca6fc9b00df9d53a30","study_id":"607de2837874a824e2e8c6ec","session_id":"6088713937918220f5f812de","correct":true},{"rt":927.4049999658018,"stimulus":"\n      <p>How sure are you?</p>\n      <p>Rate your confidence in your answer from 1 (pure guess) to 5 (very sure) by pressing the corresponding button.</p>\n     ","response":1,"image":"img/calculator.jpg","task":"confidence","old_or_new":"old","trial_type":"html-button-response","trial_index":30,"time_elapsed":118312,"internal_node_id":"0.0-3.0-1.13","subject_id":"5f0f57ca6fc9b00df9d53a30","study_id":"607de2837874a824e2e8c6ec","session_id":"6088713937918220f5f812de"},{"rt":1585.9700000146404,"stimulus":"img/drum.jpg","response":"y","image":"img/drum.jpg","old_or_new":"old","task":"recognition","trial_type":"image-keyboard-response","trial_index":31,"time_elapsed":120410,"internal_node_id":"0.0-3.0-0.14","subject_id":"5f0f57ca6fc9b00df9d53a30","study_id":"607de2837874a824e2e8c6ec","session_id":"6088713937918220f5f812de","correct":true},{"rt":1156.7800000775605,"stimulus":"\n      <p>How sure are you?</p>\n      <p>Rate your confidence in your answer from 1 (pure guess) to 5 (very sure) by pressing the corresponding button.</p>\n     ","response":4,"image":"img/drum.jpg","task":"confidence","old_or_new":"old","trial_type":"html-button-response","trial_index":32,"time_elapsed":121568,"internal_node_id":"0.0-3.0-1.14","subject_id":"5f0f57ca6fc9b00df9d53a30","study_id":"607de2837874a824e2e8c6ec","session_id":"6088713937918220f5f812de"},{"rt":1211.200000019744,"stimulus":"img/grapes_alternate.jpg","response":"y","image":"img/grapes_alternate.jpg","old_or_new":"new","task":"recognition","trial_type":"image-keyboard-response","trial_index":33,"time_elapsed":123296,"internal_node_id":"0.0-3.0-0.15","subject_id":"5f0f57ca6fc9b00df9d53a30","study_id":"607de2837874a824e2e8c6ec","session_id":"6088713937918220f5f812de","correct":false},{"rt":921.2200000183657,"stimulus":"\n      <p>How sure are you?</p>\n      <p>Rate your confidence in your answer from 1 (pure guess) to 5 (very sure) by pressing the corresponding button.</p>\n     ","response":4,"image":"img/grapes_alternate.jpg","task":"confidence","old_or_new":"new","trial_type":"html-button-response","trial_index":34,"time_elapsed":124218,"internal_node_id":"0.0-3.0-1.15","subject_id":"5f0f57ca6fc9b00df9d53a30","study_id":"607de2837874a824e2e8c6ec","session_id":"6088713937918220f5f812de"},{"rt":1318.7400000169873,"stimulus":"img/hat_alternate.jpg","response":"n","image":"img/hat_alternate.jpg","old_or_new":"new","task":"recognition","trial_type":"image-keyboard-response","trial_index":35,"time_elapsed":126046,"internal_node_id":"0.0-3.0-0.16","subject_id":"5f0f57ca6fc9b00df9d53a30","study_id":"607de2837874a824e2e8c6ec","session_id":"6088713937918220f5f812de","correct":true},{"rt":920.5799999181181,"stimulus":"\n      <p>How sure are you?</p>\n      <p>Rate your confidence in your answer from 1 (pure guess) to 5 (very sure) by pressing the corresponding button.</p>\n     ","response":3,"image":"img/hat_alternate.jpg","task":"confidence","old_or_new":"new","trial_type":"html-button-response","trial_index":36,"time_elapsed":126968,"internal_node_id":"0.0-3.0-1.16","subject_id":"5f0f57ca6fc9b00df9d53a30","study_id":"607de2837874a824e2e8c6ec","session_id":"6088713937918220f5f812de"},{"rt":1100.7600000593811,"stimulus":"img/helmet_alternate.jpg","response":"n","image":"img/helmet_alternate.jpg","old_or_new":"new","task":"recognition","trial_type":"image-keyboard-response","trial_index":37,"time_elapsed":128578,"internal_node_id":"0.0-3.0-0.17","subject_id":"5f0f57ca6fc9b00df9d53a30","study_id":"607de2837874a824e2e8c6ec","session_id":"6088713937918220f5f812de","correct":true},{"rt":1117.8549999604002,"stimulus":"\n      <p>How sure are you?</p>\n      <p>Rate your confidence in your answer from 1 (pure guess) to 5 (very sure) by pressing the corresponding button.</p>\n     ","response":3,"image":"img/helmet_alternate.jpg","task":"confidence","old_or_new":"new","trial_type":"html-button-response","trial_index":38,"time_elapsed":129697,"internal_node_id":"0.0-3.0-1.17","subject_id":"5f0f57ca6fc9b00df9d53a30","study_id":"607de2837874a824e2e8c6ec","session_id":"6088713937918220f5f812de"},{"rt":1611.1950000049546,"stimulus":"img/calculator_alternate.jpg","response":"n","image":"img/calculator_alternate.jpg","old_or_new":"new","task":"recognition","trial_type":"image-keyboard-response","trial_index":39,"time_elapsed":131811,"internal_node_id":"0.0-3.0-0.18","subject_id":"5f0f57ca6fc9b00df9d53a30","study_id":"607de2837874a824e2e8c6ec","session_id":"6088713937918220f5f812de","correct":true},{"rt":971.0800000466406,"stimulus":"\n      <p>How sure are you?</p>\n      <p>Rate your confidence in your answer from 1 (pure guess) to 5 (very sure) by pressing the corresponding button.</p>\n     ","response":2,"image":"img/calculator_alternate.jpg","task":"confidence","old_or_new":"new","trial_type":"html-button-response","trial_index":40,"time_elapsed":132783,"internal_node_id":"0.0-3.0-1.18","subject_id":"5f0f57ca6fc9b00df9d53a30","study_id":"607de2837874a824e2e8c6ec","session_id":"6088713937918220f5f812de"},{"rt":940.5600000172853,"stimulus":"img/ladder_alternate.jpg","response":"n","image":"img/ladder_alternate.jpg","old_or_new":"new","task":"recognition","trial_type":"image-keyboard-response","trial_index":41,"time_elapsed":134226,"internal_node_id":"0.0-3.0-0.19","subject_id":"5f0f57ca6fc9b00df9d53a30","study_id":"607de2837874a824e2e8c6ec","session_id":"6088713937918220f5f812de","correct":true},{"rt":1442.8100000368431,"stimulus":"\n      <p>How sure are you?</p>\n      <p>Rate your confidence in your answer from 1 (pure guess) to 5 (very sure) by pressing the corresponding button.</p>\n     ","response":2,"image":"img/ladder_alternate.jpg","task":"confidence","old_or_new":"new","trial_type":"html-button-response","trial_index":42,"time_elapsed":135669,"internal_node_id":"0.0-3.0-1.19","subject_id":"5f0f57ca6fc9b00df9d53a30","study_id":"607de2837874a824e2e8c6ec","session_id":"6088713937918220f5f812de"},{"rt":681.6199999302626,"stimulus":"img/backpack_alternate.jpg","response":"n","image":"img/backpack_alternate.jpg","old_or_new":"new","task":"recognition","trial_type":"image-keyboard-response","trial_index":43,"time_elapsed":136857,"internal_node_id":"0.0-3.0-0.20","subject_id":"5f0f57ca6fc9b00df9d53a30","study_id":"607de2837874a824e2e8c6ec","session_id":"6088713937918220f5f812de","correct":true},{"rt":938.0650001112372,"stimulus":"\n      <p>How sure are you?</p>\n      <p>Rate your confidence in your answer from 1 (pure guess) to 5 (very sure) by pressing the corresponding button.</p>\n     ","response":2,"image":"img/backpack_alternate.jpg","task":"confidence","old_or_new":"new","trial_type":"html-button-response","trial_index":44,"time_elapsed":137796,"internal_node_id":"0.0-3.0-1.20","subject_id":"5f0f57ca6fc9b00df9d53a30","study_id":"607de2837874a824e2e8c6ec","session_id":"6088713937918220f5f812de"},{"rt":1133.0049999523908,"stimulus":"img/fan_alternate.jpg","response":"n","image":"img/fan_alternate.jpg","old_or_new":"new","task":"recognition","trial_type":"image-keyboard-response","trial_index":45,"time_elapsed":139433,"internal_node_id":"0.0-3.0-0.21","subject_id":"5f0f57ca6fc9b00df9d53a30","study_id":"607de2837874a824e2e8c6ec","session_id":"6088713937918220f5f812de","correct":true},{"rt":1308.4599999710917,"stimulus":"\n      <p>How sure are you?</p>\n      <p>Rate your confidence in your answer from 1 (pure guess) to 5 (very sure) by pressing the corresponding button.</p>\n     ","response":3,"image":"img/fan_alternate.jpg","task":"confidence","old_or_new":"new","trial_type":"html-button-response","trial_index":46,"time_elapsed":140742,"internal_node_id":"0.0-3.0-1.21","subject_id":"5f0f57ca6fc9b00df9d53a30","study_id":"607de2837874a824e2e8c6ec","session_id":"6088713937918220f5f812de"},{"rt":3626.425000024028,"stimulus":"img/ladder.jpg","response":"y","image":"img/ladder.jpg","old_or_new":"old","task":"recognition","trial_type":"image-keyboard-response","trial_index":47,"time_elapsed":144882,"internal_node_id":"0.0-3.0-0.22","subject_id":"5f0f57ca6fc9b00df9d53a30","study_id":"607de2837874a824e2e8c6ec","session_id":"6088713937918220f5f812de","correct":true},{"rt":921.3250000029802,"stimulus":"\n      <p>How sure are you?</p>\n      <p>Rate your confidence in your answer from 1 (pure guess) to 5 (very sure) by pressing the corresponding button.</p>\n     ","response":3,"image":"img/ladder.jpg","task":"confidence","old_or_new":"old","trial_type":"html-button-response","trial_index":48,"time_elapsed":145804,"internal_node_id":"0.0-3.0-1.22","subject_id":"5f0f57ca6fc9b00df9d53a30","study_id":"607de2837874a824e2e8c6ec","session_id":"6088713937918220f5f812de"},{"rt":1989.5849999738857,"stimulus":"img/hair_tie_alternate.jpg","response":"n","image":"img/hair_tie_alternate.jpg","old_or_new":"new","task":"recognition","trial_type":"image-keyboard-response","trial_index":49,"time_elapsed":148298,"internal_node_id":"0.0-3.0-0.23","subject_id":"5f0f57ca6fc9b00df9d53a30","study_id":"607de2837874a824e2e8c6ec","session_id":"6088713937918220f5f812de","correct":true},{"rt":1367.8250000812113,"stimulus":"\n      <p>How sure are you?</p>\n      <p>Rate your confidence in your answer from 1 (pure guess) to 5 (very sure) by pressing the corresponding button.</p>\n     ","response":2,"image":"img/hair_tie_alternate.jpg","task":"confidence","old_or_new":"new","trial_type":"html-button-response","trial_index":50,"time_elapsed":149667,"internal_node_id":"0.0-3.0-1.23","subject_id":"5f0f57ca6fc9b00df9d53a30","study_id":"607de2837874a824e2e8c6ec","session_id":"6088713937918220f5f812de"},{"rt":1389.960000058636,"stimulus":"img/coin_alternate.jpg","response":"n","image":"img/coin_alternate.jpg","old_or_new":"new","task":"recognition","trial_type":"image-keyboard-response","trial_index":51,"time_elapsed":151571,"internal_node_id":"0.0-3.0-0.24","subject_id":"5f0f57ca6fc9b00df9d53a30","study_id":"607de2837874a824e2e8c6ec","session_id":"6088713937918220f5f812de","correct":true},{"rt":1371.3449999922886,"stimulus":"\n      <p>How sure are you?</p>\n      <p>Rate your confidence in your answer from 1 (pure guess) to 5 (very sure) by pressing the corresponding button.</p>\n     ","response":3,"image":"img/coin_alternate.jpg","task":"confidence","old_or_new":"new","trial_type":"html-button-response","trial_index":52,"time_elapsed":152944,"internal_node_id":"0.0-3.0-1.24","subject_id":"5f0f57ca6fc9b00df9d53a30","study_id":"607de2837874a824e2e8c6ec","session_id":"6088713937918220f5f812de"},{"rt":719.2949999589473,"stimulus":"img/dryer_alternate.jpg","response":"n","image":"img/dryer_alternate.jpg","old_or_new":"new","task":"recognition","trial_type":"image-keyboard-response","trial_index":53,"time_elapsed":154168,"internal_node_id":"0.0-3.0-0.25","subject_id":"5f0f57ca6fc9b00df9d53a30","study_id":"607de2837874a824e2e8c6ec","session_id":"6088713937918220f5f812de","correct":true},{"rt":949.3449999717996,"stimulus":"\n      <p>How sure are you?</p>\n      <p>Rate your confidence in your answer from 1 (pure guess) to 5 (very sure) by pressing the corresponding button.</p>\n     ","response":3,"image":"img/dryer_alternate.jpg","task":"confidence","old_or_new":"new","trial_type":"html-button-response","trial_index":54,"time_elapsed":155118,"internal_node_id":"0.0-3.0-1.25","subject_id":"5f0f57ca6fc9b00df9d53a30","study_id":"607de2837874a824e2e8c6ec","session_id":"6088713937918220f5f812de"},{"rt":819.2949999356642,"stimulus":"img/drum_alternate.jpg","response":"n","image":"img/drum_alternate.jpg","old_or_new":"new","task":"recognition","trial_type":"image-keyboard-response","trial_index":55,"time_elapsed":156452,"internal_node_id":"0.0-3.0-0.26","subject_id":"5f0f57ca6fc9b00df9d53a30","study_id":"607de2837874a824e2e8c6ec","session_id":"6088713937918220f5f812de","correct":true},{"rt":1047.2249999875203,"stimulus":"\n      <p>How sure are you?</p>\n      <p>Rate your confidence in your answer from 1 (pure guess) to 5 (very sure) by pressing the corresponding button.</p>\n     ","response":3,"image":"img/drum_alternate.jpg","task":"confidence","old_or_new":"new","trial_type":"html-button-response","trial_index":56,"time_elapsed":157500,"internal_node_id":"0.0-3.0-1.26","subject_id":"5f0f57ca6fc9b00df9d53a30","study_id":"607de2837874a824e2e8c6ec","session_id":"6088713937918220f5f812de"},{"rt":1622.7949999738485,"stimulus":"img/lightbulb.jpg","response":"y","image":"img/lightbulb.jpg","old_or_new":"old","task":"recognition","trial_type":"image-keyboard-response","trial_index":57,"time_elapsed":159636,"internal_node_id":"0.0-3.0-0.27","subject_id":"5f0f57ca6fc9b00df9d53a30","study_id":"607de2837874a824e2e8c6ec","session_id":"6088713937918220f5f812de","correct":true},{"rt":1138.4750000433996,"stimulus":"\n      <p>How sure are you?</p>\n      <p>Rate your confidence in your answer from 1 (pure guess) to 5 (very sure) by pressing the corresponding button.</p>\n     ","response":4,"image":"img/lightbulb.jpg","task":"confidence","old_or_new":"old","trial_type":"html-button-response","trial_index":58,"time_elapsed":160776,"internal_node_id":"0.0-3.0-1.27","subject_id":"5f0f57ca6fc9b00df9d53a30","study_id":"607de2837874a824e2e8c6ec","session_id":"6088713937918220f5f812de"},{"rt":870.7449999637902,"stimulus":"img/glasses.jpg","response":"y","image":"img/glasses.jpg","old_or_new":"old","task":"recognition","trial_type":"image-keyboard-response","trial_index":59,"time_elapsed":162163,"internal_node_id":"0.0-3.0-0.28","subject_id":"5f0f57ca6fc9b00df9d53a30","study_id":"607de2837874a824e2e8c6ec","session_id":"6088713937918220f5f812de","correct":true},{"rt":963.6049999389797,"stimulus":"\n      <p>How sure are you?</p>\n      <p>Rate your confidence in your answer from 1 (pure guess) to 5 (very sure) by pressing the corresponding button.</p>\n     ","response":4,"image":"img/glasses.jpg","task":"confidence","old_or_new":"old","trial_type":"html-button-response","trial_index":60,"time_elapsed":163127,"internal_node_id":"0.0-3.0-1.28","subject_id":"5f0f57ca6fc9b00df9d53a30","study_id":"607de2837874a824e2e8c6ec","session_id":"6088713937918220f5f812de"},{"rt":1094.8450000723824,"stimulus":"img/bowl.jpg","response":"y","image":"img/bowl.jpg","old_or_new":"old","task":"recognition","trial_type":"image-keyboard-response","trial_index":61,"time_elapsed":164738,"internal_node_id":"0.0-3.0-0.29","subject_id":"5f0f57ca6fc9b00df9d53a30","study_id":"607de2837874a824e2e8c6ec","session_id":"6088713937918220f5f812de","correct":true},{"rt":1296.7950000893325,"stimulus":"\n      <p>How sure are you?</p>\n      <p>Rate your confidence in your answer from 1 (pure guess) to 5 (very sure) by pressing the corresponding button.</p>\n     ","response":4,"image":"img/bowl.jpg","task":"confidence","old_or_new":"old","trial_type":"html-button-response","trial_index":62,"time_elapsed":166036,"internal_node_id":"0.0-3.0-1.29","subject_id":"5f0f57ca6fc9b00df9d53a30","study_id":"607de2837874a824e2e8c6ec","session_id":"6088713937918220f5f812de"},{"rt":1345.850000041537,"stimulus":"img/glasses_alternate.jpg","response":"n","image":"img/glasses_alternate.jpg","old_or_new":"new","task":"recognition","trial_type":"image-keyboard-response","trial_index":63,"time_elapsed":167896,"internal_node_id":"0.0-3.0-0.30","subject_id":"5f0f57ca6fc9b00df9d53a30","study_id":"607de2837874a824e2e8c6ec","session_id":"6088713937918220f5f812de","correct":true},{"rt":1058.3499999484047,"stimulus":"\n      <p>How sure are you?</p>\n      <p>Rate your confidence in your answer from 1 (pure guess) to 5 (very sure) by pressing the corresponding button.</p>\n     ","response":4,"image":"img/glasses_alternate.jpg","task":"confidence","old_or_new":"new","trial_type":"html-button-response","trial_index":64,"time_elapsed":168955,"internal_node_id":"0.0-3.0-1.30","subject_id":"5f0f57ca6fc9b00df9d53a30","study_id":"607de2837874a824e2e8c6ec","session_id":"6088713937918220f5f812de"},{"rt":2209.3650000169873,"stimulus":"img/folder.jpg","response":"y","image":"img/folder.jpg","old_or_new":"old","task":"recognition","trial_type":"image-keyboard-response","trial_index":65,"time_elapsed":171662,"internal_node_id":"0.0-3.0-0.31","subject_id":"5f0f57ca6fc9b00df9d53a30","study_id":"607de2837874a824e2e8c6ec","session_id":"6088713937918220f5f812de","correct":true},{"rt":1393.2050000876188,"stimulus":"\n      <p>How sure are you?</p>\n      <p>Rate your confidence in your answer from 1 (pure guess) to 5 (very sure) by pressing the corresponding button.</p>\n     ","response":1,"image":"img/folder.jpg","task":"confidence","old_or_new":"old","trial_type":"html-button-response","trial_index":66,"time_elapsed":173057,"internal_node_id":"0.0-3.0-1.31","subject_id":"5f0f57ca6fc9b00df9d53a30","study_id":"607de2837874a824e2e8c6ec","session_id":"6088713937918220f5f812de"},{"rt":958.1049999687821,"stimulus":"img/helmet.jpg","response":"n","image":"img/helmet.jpg","old_or_new":"old","task":"recognition","trial_type":"image-keyboard-response","trial_index":67,"time_elapsed":174524,"internal_node_id":"0.0-3.0-0.32","subject_id":"5f0f57ca6fc9b00df9d53a30","study_id":"607de2837874a824e2e8c6ec","session_id":"6088713937918220f5f812de","correct":false},{"rt":1411.3799999468029,"stimulus":"\n      <p>How sure are you?</p>\n      <p>Rate your confidence in your answer from 1 (pure guess) to 5 (very sure) by pressing the corresponding button.</p>\n     ","response":2,"image":"img/helmet.jpg","task":"confidence","old_or_new":"old","trial_type":"html-button-response","trial_index":68,"time_elapsed":175937,"internal_node_id":"0.0-3.0-1.32","subject_id":"5f0f57ca6fc9b00df9d53a30","study_id":"607de2837874a824e2e8c6ec","session_id":"6088713937918220f5f812de"},{"rt":1599.4250000221655,"stimulus":"img/basket.jpg","response":"y","image":"img/basket.jpg","old_or_new":"old","task":"recognition","trial_type":"image-keyboard-response","trial_index":69,"time_elapsed":178043,"internal_node_id":"0.0-3.0-0.33","subject_id":"5f0f57ca6fc9b00df9d53a30","study_id":"607de2837874a824e2e8c6ec","session_id":"6088713937918220f5f812de","correct":true},{"rt":1215.885000070557,"stimulus":"\n      <p>How sure are you?</p>\n      <p>Rate your confidence in your answer from 1 (pure guess) to 5 (very sure) by pressing the corresponding button.</p>\n     ","response":3,"image":"img/basket.jpg","task":"confidence","old_or_new":"old","trial_type":"html-button-response","trial_index":70,"time_elapsed":179260,"internal_node_id":"0.0-3.0-1.33","subject_id":"5f0f57ca6fc9b00df9d53a30","study_id":"607de2837874a824e2e8c6ec","session_id":"6088713937918220f5f812de"},{"rt":1392.600000021048,"stimulus":"img/hourglass_alternate.jpg","response":"n","image":"img/hourglass_alternate.jpg","old_or_new":"new","task":"recognition","trial_type":"image-keyboard-response","trial_index":71,"time_elapsed":181159,"internal_node_id":"0.0-3.0-0.34","subject_id":"5f0f57ca6fc9b00df9d53a30","study_id":"607de2837874a824e2e8c6ec","session_id":"6088713937918220f5f812de","correct":true},{"rt":998.1399999232963,"stimulus":"\n      <p>How sure are you?</p>\n      <p>Rate your confidence in your answer from 1 (pure guess) to 5 (very sure) by pressing the corresponding button.</p>\n     ","response":3,"image":"img/hourglass_alternate.jpg","task":"confidence","old_or_new":"new","trial_type":"html-button-response","trial_index":72,"time_elapsed":182158,"internal_node_id":"0.0-3.0-1.34","subject_id":"5f0f57ca6fc9b00df9d53a30","study_id":"607de2837874a824e2e8c6ec","session_id":"6088713937918220f5f812de"},{"rt":2449.1549999220297,"stimulus":"img/grapes.jpg","response":"y","image":"img/grapes.jpg","old_or_new":"old","task":"recognition","trial_type":"image-keyboard-response","trial_index":73,"time_elapsed":185119,"internal_node_id":"0.0-3.0-0.35","subject_id":"5f0f57ca6fc9b00df9d53a30","study_id":"607de2837874a824e2e8c6ec","session_id":"6088713937918220f5f812de","correct":true},{"rt":977.7899999171495,"stimulus":"\n      <p>How sure are you?</p>\n      <p>Rate your confidence in your answer from 1 (pure guess) to 5 (very sure) by pressing the corresponding button.</p>\n     ","response":4,"image":"img/grapes.jpg","task":"confidence","old_or_new":"old","trial_type":"html-button-response","trial_index":74,"time_elapsed":186098,"internal_node_id":"0.0-3.0-1.35","subject_id":"5f0f57ca6fc9b00df9d53a30","study_id":"607de2837874a824e2e8c6ec","session_id":"6088713937918220f5f812de"},{"rt":1250.7650000043213,"stimulus":"img/hourglass.jpg","response":"y","image":"img/hourglass.jpg","old_or_new":"old","task":"recognition","trial_type":"image-keyboard-response","trial_index":75,"time_elapsed":187852,"internal_node_id":"0.0-3.0-0.36","subject_id":"5f0f57ca6fc9b00df9d53a30","study_id":"607de2837874a824e2e8c6ec","session_id":"6088713937918220f5f812de","correct":true},{"rt":1291.3350000744686,"stimulus":"\n      <p>How sure are you?</p>\n      <p>Rate your confidence in your answer from 1 (pure guess) to 5 (very sure) by pressing the corresponding button.</p>\n     ","response":2,"image":"img/hourglass.jpg","task":"confidence","old_or_new":"old","trial_type":"html-button-response","trial_index":76,"time_elapsed":189145,"internal_node_id":"0.0-3.0-1.36","subject_id":"5f0f57ca6fc9b00df9d53a30","study_id":"607de2837874a824e2e8c6ec","session_id":"6088713937918220f5f812de"},{"rt":1351.4499999582767,"stimulus":"img/dryer.jpg","response":"y","image":"img/dryer.jpg","old_or_new":"old","task":"recognition","trial_type":"image-keyboard-response","trial_index":77,"time_elapsed":191005,"internal_node_id":"0.0-3.0-0.37","subject_id":"5f0f57ca6fc9b00df9d53a30","study_id":"607de2837874a824e2e8c6ec","session_id":"6088713937918220f5f812de","correct":true},{"rt":1284.5949999755248,"stimulus":"\n      <p>How sure are you?</p>\n      <p>Rate your confidence in your answer from 1 (pure guess) to 5 (very sure) by pressing the corresponding button.</p>\n     ","response":4,"image":"img/dryer.jpg","task":"confidence","old_or_new":"old","trial_type":"html-button-response","trial_index":78,"time_elapsed":192291,"internal_node_id":"0.0-3.0-1.37","subject_id":"5f0f57ca6fc9b00df9d53a30","study_id":"607de2837874a824e2e8c6ec","session_id":"6088713937918220f5f812de"},{"rt":1309.6699999878183,"stimulus":"img/chair_alternate.jpg","response":"n","image":"img/chair_alternate.jpg","old_or_new":"new","task":"recognition","trial_type":"image-keyboard-response","trial_index":79,"time_elapsed":194103,"internal_node_id":"0.0-3.0-0.38","subject_id":"5f0f57ca6fc9b00df9d53a30","study_id":"607de2837874a824e2e8c6ec","session_id":"6088713937918220f5f812de","correct":true},{"rt":1091.370000038296,"stimulus":"\n      <p>How sure are you?</p>\n      <p>Rate your confidence in your answer from 1 (pure guess) to 5 (very sure) by pressing the corresponding button.</p>\n     ","response":4,"image":"img/chair_alternate.jpg","task":"confidence","old_or_new":"new","trial_type":"html-button-response","trial_index":80,"time_elapsed":195198,"internal_node_id":"0.0-3.0-1.38","subject_id":"5f0f57ca6fc9b00df9d53a30","study_id":"607de2837874a824e2e8c6ec","session_id":"6088713937918220f5f812de"},{"rt":1285.6850000098348,"stimulus":"img/key.jpg","response":"y","image":"img/key.jpg","old_or_new":"old","task":"recognition","trial_type":"image-keyboard-response","trial_index":81,"time_elapsed":196987,"internal_node_id":"0.0-3.0-0.39","subject_id":"5f0f57ca6fc9b00df9d53a30","study_id":"607de2837874a824e2e8c6ec","session_id":"6088713937918220f5f812de","correct":true},{"rt":2735.2100000716746,"stimulus":"\n      <p>How sure are you?</p>\n      <p>Rate your confidence in your answer from 1 (pure guess) to 5 (very sure) by pressing the corresponding button.</p>\n     ","response":2,"image":"img/key.jpg","task":"confidence","old_or_new":"old","trial_type":"html-button-response","trial_index":82,"time_elapsed":199723,"internal_node_id":"0.0-3.0-1.39","subject_id":"5f0f57ca6fc9b00df9d53a30","study_id":"607de2837874a824e2e8c6ec","session_id":"6088713937918220f5f812de"},{"rt":1174.3100000312552,"stimulus":"img/hair_tie.jpg","response":"y","image":"img/hair_tie.jpg","old_or_new":"old","task":"recognition","trial_type":"image-keyboard-response","trial_index":83,"time_elapsed":201401,"internal_node_id":"0.0-3.0-0.40","subject_id":"5f0f57ca6fc9b00df9d53a30","study_id":"607de2837874a824e2e8c6ec","session_id":"6088713937918220f5f812de","correct":true},{"rt":1311.1550000030547,"stimulus":"\n      <p>How sure are you?</p>\n      <p>Rate your confidence in your answer from 1 (pure guess) to 5 (very sure) by pressing the corresponding button.</p>\n     ","response":4,"image":"img/hair_tie.jpg","task":"confidence","old_or_new":"old","trial_type":"html-button-response","trial_index":84,"time_elapsed":202713,"internal_node_id":"0.0-3.0-1.40","subject_id":"5f0f57ca6fc9b00df9d53a30","study_id":"607de2837874a824e2e8c6ec","session_id":"6088713937918220f5f812de"},{"rt":2436.214999994263,"stimulus":"img/globe.jpg","response":"y","image":"img/globe.jpg","old_or_new":"old","task":"recognition","trial_type":"image-keyboard-response","trial_index":85,"time_elapsed":205655,"internal_node_id":"0.0-3.0-0.41","subject_id":"5f0f57ca6fc9b00df9d53a30","study_id":"607de2837874a824e2e8c6ec","session_id":"6088713937918220f5f812de","correct":true},{"rt":1293.2999999029562,"stimulus":"\n      <p>How sure are you?</p>\n      <p>Rate your confidence in your answer from 1 (pure guess) to 5 (very sure) by pressing the corresponding button.</p>\n     ","response":1,"image":"img/globe.jpg","task":"confidence","old_or_new":"old","trial_type":"html-button-response","trial_index":86,"time_elapsed":206949,"internal_node_id":"0.0-3.0-1.41","subject_id":"5f0f57ca6fc9b00df9d53a30","study_id":"607de2837874a824e2e8c6ec","session_id":"6088713937918220f5f812de"},{"rt":1229.6250000363216,"stimulus":"img/folder_alternate.jpg","response":"n","image":"img/folder_alternate.jpg","old_or_new":"new","task":"recognition","trial_type":"image-keyboard-response","trial_index":87,"time_elapsed":208682,"internal_node_id":"0.0-3.0-0.42","subject_id":"5f0f57ca6fc9b00df9d53a30","study_id":"607de2837874a824e2e8c6ec","session_id":"6088713937918220f5f812de","correct":true},{"rt":1144.2950000055134,"stimulus":"\n      <p>How sure are you?</p>\n      <p>Rate your confidence in your answer from 1 (pure guess) to 5 (very sure) by pressing the corresponding button.</p>\n     ","response":2,"image":"img/folder_alternate.jpg","task":"confidence","old_or_new":"new","trial_type":"html-button-response","trial_index":88,"time_elapsed":209828,"internal_node_id":"0.0-3.0-1.42","subject_id":"5f0f57ca6fc9b00df9d53a30","study_id":"607de2837874a824e2e8c6ec","session_id":"6088713937918220f5f812de"},{"rt":1566.990000079386,"stimulus":"img/camera.jpg","response":"y","image":"img/camera.jpg","old_or_new":"old","task":"recognition","trial_type":"image-keyboard-response","trial_index":89,"time_elapsed":211904,"internal_node_id":"0.0-3.0-0.43","subject_id":"5f0f57ca6fc9b00df9d53a30","study_id":"607de2837874a824e2e8c6ec","session_id":"6088713937918220f5f812de","correct":true},{"rt":1306.470000068657,"stimulus":"\n      <p>How sure are you?</p>\n      <p>Rate your confidence in your answer from 1 (pure guess) to 5 (very sure) by pressing the corresponding button.</p>\n     ","response":1,"image":"img/camera.jpg","task":"confidence","old_or_new":"old","trial_type":"html-button-response","trial_index":90,"time_elapsed":213212,"internal_node_id":"0.0-3.0-1.43","subject_id":"5f0f57ca6fc9b00df9d53a30","study_id":"607de2837874a824e2e8c6ec","session_id":"6088713937918220f5f812de"},{"rt":950.2949999878183,"stimulus":"img/bowl_alternate.jpg","response":"n","image":"img/bowl_alternate.jpg","old_or_new":"new","task":"recognition","trial_type":"image-keyboard-response","trial_index":91,"time_elapsed":214665,"internal_node_id":"0.0-3.0-0.44","subject_id":"5f0f57ca6fc9b00df9d53a30","study_id":"607de2837874a824e2e8c6ec","session_id":"6088713937918220f5f812de","correct":true},{"rt":1026.1999999638647,"stimulus":"\n      <p>How sure are you?</p>\n      <p>Rate your confidence in your answer from 1 (pure guess) to 5 (very sure) by pressing the corresponding button.</p>\n     ","response":4,"image":"img/bowl_alternate.jpg","task":"confidence","old_or_new":"new","trial_type":"html-button-response","trial_index":92,"time_elapsed":215693,"internal_node_id":"0.0-3.0-1.44","subject_id":"5f0f57ca6fc9b00df9d53a30","study_id":"607de2837874a824e2e8c6ec","session_id":"6088713937918220f5f812de"},{"rt":1182.8300000634044,"stimulus":"img/apple.jpg","response":"y","image":"img/apple.jpg","old_or_new":"old","task":"recognition","trial_type":"image-keyboard-response","trial_index":93,"time_elapsed":217385,"internal_node_id":"0.0-3.0-0.45","subject_id":"5f0f57ca6fc9b00df9d53a30","study_id":"607de2837874a824e2e8c6ec","session_id":"6088713937918220f5f812de","correct":true},{"rt":1100.6300000008196,"stimulus":"\n      <p>How sure are you?</p>\n      <p>Rate your confidence in your answer from 1 (pure guess) to 5 (very sure) by pressing the corresponding button.</p>\n     ","response":2,"image":"img/apple.jpg","task":"confidence","old_or_new":"old","trial_type":"html-button-response","trial_index":94,"time_elapsed":218492,"internal_node_id":"0.0-3.0-1.45","subject_id":"5f0f57ca6fc9b00df9d53a30","study_id":"607de2837874a824e2e8c6ec","session_id":"6088713937918220f5f812de"},{"rt":1170.9600000176579,"stimulus":"img/backpack.jpg","response":"n","image":"img/backpack.jpg","old_or_new":"old","task":"recognition","trial_type":"image-keyboard-response","trial_index":95,"time_elapsed":220176,"internal_node_id":"0.0-3.0-0.46","subject_id":"5f0f57ca6fc9b00df9d53a30","study_id":"607de2837874a824e2e8c6ec","session_id":"6088713937918220f5f812de","correct":false},{"rt":1063.3500000694767,"stimulus":"\n      <p>How sure are you?</p>\n      <p>Rate your confidence in your answer from 1 (pure guess) to 5 (very sure) by pressing the corresponding button.</p>\n     ","response":2,"image":"img/backpack.jpg","task":"confidence","old_or_new":"old","trial_type":"html-button-response","trial_index":96,"time_elapsed":221241,"internal_node_id":"0.0-3.0-1.46","subject_id":"5f0f57ca6fc9b00df9d53a30","study_id":"607de2837874a824e2e8c6ec","session_id":"6088713937918220f5f812de"},{"rt":1139.960000058636,"stimulus":"img/globe_alternate.jpg","response":"n","image":"img/globe_alternate.jpg","old_or_new":"new","task":"recognition","trial_type":"image-keyboard-response","trial_index":97,"time_elapsed":222889,"internal_node_id":"0.0-3.0-0.47","subject_id":"5f0f57ca6fc9b00df9d53a30","study_id":"607de2837874a824e2e8c6ec","session_id":"6088713937918220f5f812de","correct":true},{"rt":1208.9699999196455,"stimulus":"\n      <p>How sure are you?</p>\n      <p>Rate your confidence in your answer from 1 (pure guess) to 5 (very sure) by pressing the corresponding button.</p>\n     ","response":3,"image":"img/globe_alternate.jpg","task":"confidence","old_or_new":"new","trial_type":"html-button-response","trial_index":98,"time_elapsed":224099,"internal_node_id":"0.0-3.0-1.47","subject_id":"5f0f57ca6fc9b00df9d53a30","study_id":"607de2837874a824e2e8c6ec","session_id":"6088713937918220f5f812de"}]