[{"success":true,"timeout":false,"failed_images":[],"failed_audio":[],"failed_video":[],"trial_type":"preload","trial_index":0,"time_elapsed":4315,"internal_node_id":"0.0-0.0","subject_id":"5f468c87030fef01251dfe06","study_id":"607de2837874a824e2e8c6ec","session_id":"608855062bff00b24ccc15be"},{"rt":49560.90499996208,"stimulus":"\n      <div style=\"width:800px; text-align: left;\">\n        <p>Welcome to day 2 of the experiment! Thanks for coming back.</p>\n        <p>You will be presented with a series of images. Images will appear one at a time.</p>\n        <p>Each image will remain on the screen until you press either <span style=\"font-weight: bold;\">\"y\" to indicate you have seen the \n        exact same photo the day before or \"n\" to indicate you have not seen the exact same photo the day before.</span></p>\n        <p>After you answer yes (\"y\") or no (\"n\"), you will then be prompted to rate your certainty on a scale of\n        1 (pure guess) to 5 (very sure).</p>\n      </div>\n    ","response":0,"trial_type":"html-button-response","trial_index":1,"time_elapsed":53877,"internal_node_id":"0.0-1.0","subject_id":"5f468c87030fef01251dfe06","study_id":"607de2837874a824e2e8c6ec","session_id":"608855062bff00b24ccc15be"},{"success":true,"trial_type":"fullscreen","trial_index":2,"time_elapsed":56908,"internal_node_id":"0.0-2.0","subject_id":"5f468c87030fef01251dfe06","study_id":"607de2837874a824e2e8c6ec","session_id":"608855062bff00b24ccc15be"},{"rt":2756.9750000257045,"stimulus":"img/backpack.jpg","response":"y","image":"img/backpack.jpg","old_or_new":"old","task":"recognition","trial_type":"image-keyboard-response","trial_index":3,"time_elapsed":59672,"internal_node_id":"0.0-3.0-0.0","subject_id":"5f468c87030fef01251dfe06","study_id":"607de2837874a824e2e8c6ec","session_id":"608855062bff00b24ccc15be","correct":true},{"rt":1581.3300001900643,"stimulus":"\n      <p>How sure are you?</p>\n      <p>Rate your confidence in your answer from 1 (pure guess) to 5 (very sure) by pressing the corresponding button.</p>\n     ","response":3,"image":"img/backpack.jpg","task":"confidence","old_or_new":"old","trial_type":"html-button-response","trial_index":4,"time_elapsed":61254,"internal_node_id":"0.0-3.0-1.0","subject_id":"5f468c87030fef01251dfe06","study_id":"607de2837874a824e2e8c6ec","session_id":"608855062bff00b24ccc15be"},{"rt":4462.294999975711,"stimulus":"img/fan_alternate.jpg","response":"n","image":"img/fan_alternate.jpg","old_or_new":"new","task":"recognition","trial_type":"image-keyboard-response","trial_index":5,"time_elapsed":66218,"internal_node_id":"0.0-3.0-0.1","subject_id":"5f468c87030fef01251dfe06","study_id":"607de2837874a824e2e8c6ec","session_id":"608855062bff00b24ccc15be","correct":true},{"rt":902.985000051558,"stimulus":"\n      <p>How sure are you?</p>\n      <p>Rate your confidence in your answer from 1 (pure guess) to 5 (very sure) by pressing the corresponding button.</p>\n     ","response":1,"image":"img/fan_alternate.jpg","task":"confidence","old_or_new":"new","trial_type":"html-button-response","trial_index":6,"time_elapsed":67122,"internal_node_id":"0.0-3.0-1.1","subject_id":"5f468c87030fef01251dfe06","study_id":"607de2837874a824e2e8c6ec","session_id":"608855062bff00b24ccc15be"},{"rt":1125.980000011623,"stimulus":"img/camera_alternate.jpg","response":"n","image":"img/camera_alternate.jpg","old_or_new":"new","task":"recognition","trial_type":"image-keyboard-response","trial_index":7,"time_elapsed":68750,"internal_node_id":"0.0-3.0-0.2","subject_id":"5f468c87030fef01251dfe06","study_id":"607de2837874a824e2e8c6ec","session_id":"608855062bff00b24ccc15be","correct":true},{"rt":1028.7600001320243,"stimulus":"\n      <p>How sure are you?</p>\n      <p>Rate your confidence in your answer from 1 (pure guess) to 5 (very sure) by pressing the corresponding button.</p>\n     ","response":4,"image":"img/camera_alternate.jpg","task":"confidence","old_or_new":"new","trial_type":"html-button-response","trial_index":8,"time_elapsed":69779,"internal_node_id":"0.0-3.0-1.2","subject_id":"5f468c87030fef01251dfe06","study_id":"607de2837874a824e2e8c6ec","session_id":"608855062bff00b24ccc15be"},{"rt":757.4149998836219,"stimulus":"img/fan.jpg","response":"y","image":"img/fan.jpg","old_or_new":"old","task":"recognition","trial_type":"image-keyboard-response","trial_index":9,"time_elapsed":71039,"internal_node_id":"0.0-3.0-0.3","subject_id":"5f468c87030fef01251dfe06","study_id":"607de2837874a824e2e8c6ec","session_id":"608855062bff00b24ccc15be","correct":true},{"rt":800.675000064075,"stimulus":"\n      <p>How sure are you?</p>\n      <p>Rate your confidence in your answer from 1 (pure guess) to 5 (very sure) by pressing the corresponding button.</p>\n     ","response":4,"image":"img/fan.jpg","task":"confidence","old_or_new":"old","trial_type":"html-button-response","trial_index":10,"time_elapsed":71840,"internal_node_id":"0.0-3.0-1.3","subject_id":"5f468c87030fef01251dfe06","study_id":"607de2837874a824e2e8c6ec","session_id":"608855062bff00b24ccc15be"},{"rt":1070.0649998616427,"stimulus":"img/backpack_alternate.jpg","response":"n","image":"img/backpack_alternate.jpg","old_or_new":"new","task":"recognition","trial_type":"image-keyboard-response","trial_index":11,"time_elapsed":73412,"internal_node_id":"0.0-3.0-0.4","subject_id":"5f468c87030fef01251dfe06","study_id":"607de2837874a824e2e8c6ec","session_id":"608855062bff00b24ccc15be","correct":true},{"rt":624.4999999180436,"stimulus":"\n      <p>How sure are you?</p>\n      <p>Rate your confidence in your answer from 1 (pure guess) to 5 (very sure) by pressing the corresponding button.</p>\n     ","response":4,"image":"img/backpack_alternate.jpg","task":"confidence","old_or_new":"new","trial_type":"html-button-response","trial_index":12,"time_elapsed":74037,"internal_node_id":"0.0-3.0-1.4","subject_id":"5f468c87030fef01251dfe06","study_id":"607de2837874a824e2e8c6ec","session_id":"608855062bff00b24ccc15be"},{"rt":1546.729999827221,"stimulus":"img/drum_alternate.jpg","response":"n","image":"img/drum_alternate.jpg","old_or_new":"new","task":"recognition","trial_type":"image-keyboard-response","trial_index":13,"time_elapsed":76086,"internal_node_id":"0.0-3.0-0.5","subject_id":"5f468c87030fef01251dfe06","study_id":"607de2837874a824e2e8c6ec","session_id":"608855062bff00b24ccc15be","correct":true},{"rt":2979.8000000882894,"stimulus":"\n      <p>How sure are you?</p>\n      <p>Rate your confidence in your answer from 1 (pure guess) to 5 (very sure) by pressing the corresponding button.</p>\n     ","response":4,"image":"img/drum_alternate.jpg","task":"confidence","old_or_new":"new","trial_type":"html-button-response","trial_index":14,"time_elapsed":79066,"internal_node_id":"0.0-3.0-1.5","subject_id":"5f468c87030fef01251dfe06","study_id":"607de2837874a824e2e8c6ec","session_id":"608855062bff00b24ccc15be"},{"rt":1252.1000001579523,"stimulus":"img/glasses.jpg","response":"y","image":"img/glasses.jpg","old_or_new":"old","task":"recognition","trial_type":"image-keyboard-response","trial_index":15,"time_elapsed":80821,"internal_node_id":"0.0-3.0-0.6","subject_id":"5f468c87030fef01251dfe06","study_id":"607de2837874a824e2e8c6ec","session_id":"608855062bff00b24ccc15be","correct":true},{"rt":973.9049999043345,"stimulus":"\n      <p>How sure are you?</p>\n      <p>Rate your confidence in your answer from 1 (pure guess) to 5 (very sure) by pressing the corresponding button.</p>\n     ","response":4,"image":"img/glasses.jpg","task":"confidence","old_or_new":"old","trial_type":"html-button-response","trial_index":16,"time_elapsed":81795,"internal_node_id":"0.0-3.0-1.6","subject_id":"5f468c87030fef01251dfe06","study_id":"607de2837874a824e2e8c6ec","session_id":"608855062bff00b24ccc15be"},{"rt":604.7250002156943,"stimulus":"img/helmet.jpg","response":"y","image":"img/helmet.jpg","old_or_new":"old","task":"recognition","trial_type":"image-keyboard-response","trial_index":17,"time_elapsed":82903,"internal_node_id":"0.0-3.0-0.7","subject_id":"5f468c87030fef01251dfe06","study_id":"607de2837874a824e2e8c6ec","session_id":"608855062bff00b24ccc15be","correct":true},{"rt":595.729999942705,"stimulus":"\n      <p>How sure are you?</p>\n      <p>Rate your confidence in your answer from 1 (pure guess) to 5 (very sure) by pressing the corresponding button.</p>\n     ","response":4,"image":"img/helmet.jpg","task":"confidence","old_or_new":"old","trial_type":"html-button-response","trial_index":18,"time_elapsed":83499,"internal_node_id":"0.0-3.0-1.7","subject_id":"5f468c87030fef01251dfe06","study_id":"607de2837874a824e2e8c6ec","session_id":"608855062bff00b24ccc15be"},{"rt":775.6400001235306,"stimulus":"img/ladder.jpg","response":"y","image":"img/ladder.jpg","old_or_new":"old","task":"recognition","trial_type":"image-keyboard-response","trial_index":19,"time_elapsed":84777,"internal_node_id":"0.0-3.0-0.8","subject_id":"5f468c87030fef01251dfe06","study_id":"607de2837874a824e2e8c6ec","session_id":"608855062bff00b24ccc15be","correct":true},{"rt":695.3399998601526,"stimulus":"\n      <p>How sure are you?</p>\n      <p>Rate your confidence in your answer from 1 (pure guess) to 5 (very sure) by pressing the corresponding button.</p>\n     ","response":4,"image":"img/ladder.jpg","task":"confidence","old_or_new":"old","trial_type":"html-button-response","trial_index":20,"time_elapsed":85473,"internal_node_id":"0.0-3.0-1.8","subject_id":"5f468c87030fef01251dfe06","study_id":"607de2837874a824e2e8c6ec","session_id":"608855062bff00b24ccc15be"},{"rt":950.745000038296,"stimulus":"img/hairbrush.jpg","response":"y","image":"img/hairbrush.jpg","old_or_new":"old","task":"recognition","trial_type":"image-keyboard-response","trial_index":21,"time_elapsed":86926,"internal_node_id":"0.0-3.0-0.9","subject_id":"5f468c87030fef01251dfe06","study_id":"607de2837874a824e2e8c6ec","session_id":"608855062bff00b24ccc15be","correct":true},{"rt":456.85499999672174,"stimulus":"\n      <p>How sure are you?</p>\n      <p>Rate your confidence in your answer from 1 (pure guess) to 5 (very sure) by pressing the corresponding button.</p>\n     ","response":4,"image":"img/hairbrush.jpg","task":"confidence","old_or_new":"old","trial_type":"html-button-response","trial_index":22,"time_elapsed":87383,"internal_node_id":"0.0-3.0-1.9","subject_id":"5f468c87030fef01251dfe06","study_id":"607de2837874a824e2e8c6ec","session_id":"608855062bff00b24ccc15be"},{"rt":755.125000141561,"stimulus":"img/lightbulb.jpg","response":"y","image":"img/lightbulb.jpg","old_or_new":"old","task":"recognition","trial_type":"image-keyboard-response","trial_index":23,"time_elapsed":88641,"internal_node_id":"0.0-3.0-0.10","subject_id":"5f468c87030fef01251dfe06","study_id":"607de2837874a824e2e8c6ec","session_id":"608855062bff00b24ccc15be","correct":true},{"rt":439.1599998343736,"stimulus":"\n      <p>How sure are you?</p>\n      <p>Rate your confidence in your answer from 1 (pure guess) to 5 (very sure) by pressing the corresponding button.</p>\n     ","response":4,"image":"img/lightbulb.jpg","task":"confidence","old_or_new":"old","trial_type":"html-button-response","trial_index":24,"time_elapsed":89081,"internal_node_id":"0.0-3.0-1.10","subject_id":"5f468c87030fef01251dfe06","study_id":"607de2837874a824e2e8c6ec","session_id":"608855062bff00b24ccc15be"},{"rt":713.5250000283122,"stimulus":"img/chair.jpg","response":"y","image":"img/chair.jpg","old_or_new":"old","task":"recognition","trial_type":"image-keyboard-response","trial_index":25,"time_elapsed":90296,"internal_node_id":"0.0-3.0-0.11","subject_id":"5f468c87030fef01251dfe06","study_id":"607de2837874a824e2e8c6ec","session_id":"608855062bff00b24ccc15be","correct":true},{"rt":508.45000008121133,"stimulus":"\n      <p>How sure are you?</p>\n      <p>Rate your confidence in your answer from 1 (pure guess) to 5 (very sure) by pressing the corresponding button.</p>\n     ","response":4,"image":"img/chair.jpg","task":"confidence","old_or_new":"old","trial_type":"html-button-response","trial_index":26,"time_elapsed":90805,"internal_node_id":"0.0-3.0-1.11","subject_id":"5f468c87030fef01251dfe06","study_id":"607de2837874a824e2e8c6ec","session_id":"608855062bff00b24ccc15be"},{"rt":718.7950001098216,"stimulus":"img/hat_alternate.jpg","response":"n","image":"img/hat_alternate.jpg","old_or_new":"new","task":"recognition","trial_type":"image-keyboard-response","trial_index":27,"time_elapsed":92027,"internal_node_id":"0.0-3.0-0.12","subject_id":"5f468c87030fef01251dfe06","study_id":"607de2837874a824e2e8c6ec","session_id":"608855062bff00b24ccc15be","correct":true},{"rt":714.5649997983128,"stimulus":"\n      <p>How sure are you?</p>\n      <p>Rate your confidence in your answer from 1 (pure guess) to 5 (very sure) by pressing the corresponding button.</p>\n     ","response":4,"image":"img/hat_alternate.jpg","task":"confidence","old_or_new":"new","trial_type":"html-button-response","trial_index":28,"time_elapsed":92742,"internal_node_id":"0.0-3.0-1.12","subject_id":"5f468c87030fef01251dfe06","study_id":"607de2837874a824e2e8c6ec","session_id":"608855062bff00b24ccc15be"},{"rt":748.9199999254197,"stimulus":"img/apple.jpg","response":"y","image":"img/apple.jpg","old_or_new":"old","task":"recognition","trial_type":"image-keyboard-response","trial_index":29,"time_elapsed":93993,"internal_node_id":"0.0-3.0-0.13","subject_id":"5f468c87030fef01251dfe06","study_id":"607de2837874a824e2e8c6ec","session_id":"608855062bff00b24ccc15be","correct":true},{"rt":492.3300000373274,"stimulus":"\n      <p>How sure are you?</p>\n      <p>Rate your confidence in your answer from 1 (pure guess) to 5 (very sure) by pressing the corresponding button.</p>\n     ","response":4,"image":"img/apple.jpg","task":"confidence","old_or_new":"old","trial_type":"html-button-response","trial_index":30,"time_elapsed":94486,"internal_node_id":"0.0-3.0-1.13","subject_id":"5f468c87030fef01251dfe06","study_id":"607de2837874a824e2e8c6ec","session_id":"608855062bff00b24ccc15be"},{"rt":659.3100000172853,"stimulus":"img/drum.jpg","response":"y","image":"img/drum.jpg","old_or_new":"old","task":"recognition","trial_type":"image-keyboard-response","trial_index":31,"time_elapsed":95648,"internal_node_id":"0.0-3.0-0.14","subject_id":"5f468c87030fef01251dfe06","study_id":"607de2837874a824e2e8c6ec","session_id":"608855062bff00b24ccc15be","correct":true},{"rt":702.6150000747293,"stimulus":"\n      <p>How sure are you?</p>\n      <p>Rate your confidence in your answer from 1 (pure guess) to 5 (very sure) by pressing the corresponding button.</p>\n     ","response":4,"image":"img/drum.jpg","task":"confidence","old_or_new":"old","trial_type":"html-button-response","trial_index":32,"time_elapsed":96351,"internal_node_id":"0.0-3.0-1.14","subject_id":"5f468c87030fef01251dfe06","study_id":"607de2837874a824e2e8c6ec","session_id":"608855062bff00b24ccc15be"},{"rt":816.5499998722225,"stimulus":"img/ladder_alternate.jpg","response":"n","image":"img/ladder_alternate.jpg","old_or_new":"new","task":"recognition","trial_type":"image-keyboard-response","trial_index":33,"time_elapsed":97670,"internal_node_id":"0.0-3.0-0.15","subject_id":"5f468c87030fef01251dfe06","study_id":"607de2837874a824e2e8c6ec","session_id":"608855062bff00b24ccc15be","correct":true},{"rt":661.8449999950826,"stimulus":"\n      <p>How sure are you?</p>\n      <p>Rate your confidence in your answer from 1 (pure guess) to 5 (very sure) by pressing the corresponding button.</p>\n     ","response":4,"image":"img/ladder_alternate.jpg","task":"confidence","old_or_new":"new","trial_type":"html-button-response","trial_index":34,"time_elapsed":98332,"internal_node_id":"0.0-3.0-1.15","subject_id":"5f468c87030fef01251dfe06","study_id":"607de2837874a824e2e8c6ec","session_id":"608855062bff00b24ccc15be"},{"rt":633.7749999947846,"stimulus":"img/dryer.jpg","response":"y","image":"img/dryer.jpg","old_or_new":"old","task":"recognition","trial_type":"image-keyboard-response","trial_index":35,"time_elapsed":99468,"internal_node_id":"0.0-3.0-0.16","subject_id":"5f468c87030fef01251dfe06","study_id":"607de2837874a824e2e8c6ec","session_id":"608855062bff00b24ccc15be","correct":true},{"rt":547.2150000277907,"stimulus":"\n      <p>How sure are you?</p>\n      <p>Rate your confidence in your answer from 1 (pure guess) to 5 (very sure) by pressing the corresponding button.</p>\n     ","response":4,"image":"img/dryer.jpg","task":"confidence","old_or_new":"old","trial_type":"html-button-response","trial_index":36,"time_elapsed":100016,"internal_node_id":"0.0-3.0-1.16","subject_id":"5f468c87030fef01251dfe06","study_id":"607de2837874a824e2e8c6ec","session_id":"608855062bff00b24ccc15be"},{"rt":1701.755000045523,"stimulus":"img/folder_alternate.jpg","response":"n","image":"img/folder_alternate.jpg","old_or_new":"new","task":"recognition","trial_type":"image-keyboard-response","trial_index":37,"time_elapsed":102220,"internal_node_id":"0.0-3.0-0.17","subject_id":"5f468c87030fef01251dfe06","study_id":"607de2837874a824e2e8c6ec","session_id":"608855062bff00b24ccc15be","correct":true},{"rt":822.1849999390543,"stimulus":"\n      <p>How sure are you?</p>\n      <p>Rate your confidence in your answer from 1 (pure guess) to 5 (very sure) by pressing the corresponding button.</p>\n     ","response":4,"image":"img/folder_alternate.jpg","task":"confidence","old_or_new":"new","trial_type":"html-button-response","trial_index":38,"time_elapsed":103043,"internal_node_id":"0.0-3.0-1.17","subject_id":"5f468c87030fef01251dfe06","study_id":"607de2837874a824e2e8c6ec","session_id":"608855062bff00b24ccc15be"},{"rt":1621.260000159964,"stimulus":"img/calculator_alternate.jpg","response":"n","image":"img/calculator_alternate.jpg","old_or_new":"new","task":"recognition","trial_type":"image-keyboard-response","trial_index":39,"time_elapsed":105167,"internal_node_id":"0.0-3.0-0.18","subject_id":"5f468c87030fef01251dfe06","study_id":"607de2837874a824e2e8c6ec","session_id":"608855062bff00b24ccc15be","correct":true},{"rt":515.2049998287112,"stimulus":"\n      <p>How sure are you?</p>\n      <p>Rate your confidence in your answer from 1 (pure guess) to 5 (very sure) by pressing the corresponding button.</p>\n     ","response":4,"image":"img/calculator_alternate.jpg","task":"confidence","old_or_new":"new","trial_type":"html-button-response","trial_index":40,"time_elapsed":105683,"internal_node_id":"0.0-3.0-1.18","subject_id":"5f468c87030fef01251dfe06","study_id":"607de2837874a824e2e8c6ec","session_id":"608855062bff00b24ccc15be"},{"rt":799.8649999499321,"stimulus":"img/basket_alternate.jpg","response":"n","image":"img/basket_alternate.jpg","old_or_new":"new","task":"recognition","trial_type":"image-keyboard-response","trial_index":41,"time_elapsed":106985,"internal_node_id":"0.0-3.0-0.19","subject_id":"5f468c87030fef01251dfe06","study_id":"607de2837874a824e2e8c6ec","session_id":"608855062bff00b24ccc15be","correct":true},{"rt":757.5799999758601,"stimulus":"\n      <p>How sure are you?</p>\n      <p>Rate your confidence in your answer from 1 (pure guess) to 5 (very sure) by pressing the corresponding button.</p>\n     ","response":4,"image":"img/basket_alternate.jpg","task":"confidence","old_or_new":"new","trial_type":"html-button-response","trial_index":42,"time_elapsed":107743,"internal_node_id":"0.0-3.0-1.19","subject_id":"5f468c87030fef01251dfe06","study_id":"607de2837874a824e2e8c6ec","session_id":"608855062bff00b24ccc15be"},{"rt":641.5900001302361,"stimulus":"img/calculator.jpg","response":"y","image":"img/calculator.jpg","old_or_new":"old","task":"recognition","trial_type":"image-keyboard-response","trial_index":43,"time_elapsed":108887,"internal_node_id":"0.0-3.0-0.20","subject_id":"5f468c87030fef01251dfe06","study_id":"607de2837874a824e2e8c6ec","session_id":"608855062bff00b24ccc15be","correct":true},{"rt":601.5049999114126,"stimulus":"\n      <p>How sure are you?</p>\n      <p>Rate your confidence in your answer from 1 (pure guess) to 5 (very sure) by pressing the corresponding button.</p>\n     ","response":4,"image":"img/calculator.jpg","task":"confidence","old_or_new":"old","trial_type":"html-button-response","trial_index":44,"time_elapsed":109489,"internal_node_id":"0.0-3.0-1.20","subject_id":"5f468c87030fef01251dfe06","study_id":"607de2837874a824e2e8c6ec","session_id":"608855062bff00b24ccc15be"},{"rt":713.5699999053031,"stimulus":"img/globe.jpg","response":"y","image":"img/globe.jpg","old_or_new":"old","task":"recognition","trial_type":"image-keyboard-response","trial_index":45,"time_elapsed":110706,"internal_node_id":"0.0-3.0-0.21","subject_id":"5f468c87030fef01251dfe06","study_id":"607de2837874a824e2e8c6ec","session_id":"608855062bff00b24ccc15be","correct":true},{"rt":444.67999995686114,"stimulus":"\n      <p>How sure are you?</p>\n      <p>Rate your confidence in your answer from 1 (pure guess) to 5 (very sure) by pressing the corresponding button.</p>\n     ","response":4,"image":"img/globe.jpg","task":"confidence","old_or_new":"old","trial_type":"html-button-response","trial_index":46,"time_elapsed":111151,"internal_node_id":"0.0-3.0-1.21","subject_id":"5f468c87030fef01251dfe06","study_id":"607de2837874a824e2e8c6ec","session_id":"608855062bff00b24ccc15be"},{"rt":1341.7350000236183,"stimulus":"img/chair_alternate.jpg","response":"n","image":"img/chair_alternate.jpg","old_or_new":"new","task":"recognition","trial_type":"image-keyboard-response","trial_index":47,"time_elapsed":112995,"internal_node_id":"0.0-3.0-0.22","subject_id":"5f468c87030fef01251dfe06","study_id":"607de2837874a824e2e8c6ec","session_id":"608855062bff00b24ccc15be","correct":true},{"rt":475.2899999730289,"stimulus":"\n      <p>How sure are you?</p>\n      <p>Rate your confidence in your answer from 1 (pure guess) to 5 (very sure) by pressing the corresponding button.</p>\n     ","response":4,"image":"img/chair_alternate.jpg","task":"confidence","old_or_new":"new","trial_type":"html-button-response","trial_index":48,"time_elapsed":113471,"internal_node_id":"0.0-3.0-1.22","subject_id":"5f468c87030fef01251dfe06","study_id":"607de2837874a824e2e8c6ec","session_id":"608855062bff00b24ccc15be"},{"rt":910.9949998091906,"stimulus":"img/leaf_alternate.jpg","response":"n","image":"img/leaf_alternate.jpg","old_or_new":"new","task":"recognition","trial_type":"image-keyboard-response","trial_index":49,"time_elapsed":114885,"internal_node_id":"0.0-3.0-0.23","subject_id":"5f468c87030fef01251dfe06","study_id":"607de2837874a824e2e8c6ec","session_id":"608855062bff00b24ccc15be","correct":true},{"rt":508.5300002247095,"stimulus":"\n      <p>How sure are you?</p>\n      <p>Rate your confidence in your answer from 1 (pure guess) to 5 (very sure) by pressing the corresponding button.</p>\n     ","response":4,"image":"img/leaf_alternate.jpg","task":"confidence","old_or_new":"new","trial_type":"html-button-response","trial_index":50,"time_elapsed":115394,"internal_node_id":"0.0-3.0-1.23","subject_id":"5f468c87030fef01251dfe06","study_id":"607de2837874a824e2e8c6ec","session_id":"608855062bff00b24ccc15be"},{"rt":775.1700000371784,"stimulus":"img/grapes.jpg","response":"y","image":"img/grapes.jpg","old_or_new":"old","task":"recognition","trial_type":"image-keyboard-response","trial_index":51,"time_elapsed":116671,"internal_node_id":"0.0-3.0-0.24","subject_id":"5f468c87030fef01251dfe06","study_id":"607de2837874a824e2e8c6ec","session_id":"608855062bff00b24ccc15be","correct":true},{"rt":720.4799999017268,"stimulus":"\n      <p>How sure are you?</p>\n      <p>Rate your confidence in your answer from 1 (pure guess) to 5 (very sure) by pressing the corresponding button.</p>\n     ","response":4,"image":"img/grapes.jpg","task":"confidence","old_or_new":"old","trial_type":"html-button-response","trial_index":52,"time_elapsed":117392,"internal_node_id":"0.0-3.0-1.24","subject_id":"5f468c87030fef01251dfe06","study_id":"607de2837874a824e2e8c6ec","session_id":"608855062bff00b24ccc15be"},{"rt":1316.9500001240522,"stimulus":"img/coin.jpg","response":"y","image":"img/coin.jpg","old_or_new":"old","task":"recognition","trial_type":"image-keyboard-response","trial_index":53,"time_elapsed":119211,"internal_node_id":"0.0-3.0-0.25","subject_id":"5f468c87030fef01251dfe06","study_id":"607de2837874a824e2e8c6ec","session_id":"608855062bff00b24ccc15be","correct":true},{"rt":668.7449999153614,"stimulus":"\n      <p>How sure are you?</p>\n      <p>Rate your confidence in your answer from 1 (pure guess) to 5 (very sure) by pressing the corresponding button.</p>\n     ","response":4,"image":"img/coin.jpg","task":"confidence","old_or_new":"old","trial_type":"html-button-response","trial_index":54,"time_elapsed":119880,"internal_node_id":"0.0-3.0-1.25","subject_id":"5f468c87030fef01251dfe06","study_id":"607de2837874a824e2e8c6ec","session_id":"608855062bff00b24ccc15be"},{"rt":1300.8599998429418,"stimulus":"img/key_alternate.jpg","response":"n","image":"img/key_alternate.jpg","old_or_new":"new","task":"recognition","trial_type":"image-keyboard-response","trial_index":55,"time_elapsed":121683,"internal_node_id":"0.0-3.0-0.26","subject_id":"5f468c87030fef01251dfe06","study_id":"607de2837874a824e2e8c6ec","session_id":"608855062bff00b24ccc15be","correct":true},{"rt":554.3750000651926,"stimulus":"\n      <p>How sure are you?</p>\n      <p>Rate your confidence in your answer from 1 (pure guess) to 5 (very sure) by pressing the corresponding button.</p>\n     ","response":2,"image":"img/key_alternate.jpg","task":"confidence","old_or_new":"new","trial_type":"html-button-response","trial_index":56,"time_elapsed":122238,"internal_node_id":"0.0-3.0-1.26","subject_id":"5f468c87030fef01251dfe06","study_id":"607de2837874a824e2e8c6ec","session_id":"608855062bff00b24ccc15be"},{"rt":1434.560000197962,"stimulus":"img/key.jpg","response":"y","image":"img/key.jpg","old_or_new":"old","task":"recognition","trial_type":"image-keyboard-response","trial_index":57,"time_elapsed":124175,"internal_node_id":"0.0-3.0-0.27","subject_id":"5f468c87030fef01251dfe06","study_id":"607de2837874a824e2e8c6ec","session_id":"608855062bff00b24ccc15be","correct":true},{"rt":949.4850002229214,"stimulus":"\n      <p>How sure are you?</p>\n      <p>Rate your confidence in your answer from 1 (pure guess) to 5 (very sure) by pressing the corresponding button.</p>\n     ","response":3,"image":"img/key.jpg","task":"confidence","old_or_new":"old","trial_type":"html-button-response","trial_index":58,"time_elapsed":125125,"internal_node_id":"0.0-3.0-1.27","subject_id":"5f468c87030fef01251dfe06","study_id":"607de2837874a824e2e8c6ec","session_id":"608855062bff00b24ccc15be"},{"rt":896.3299999013543,"stimulus":"img/hair_tie.jpg","response":"y","image":"img/hair_tie.jpg","old_or_new":"old","task":"recognition","trial_type":"image-keyboard-response","trial_index":59,"time_elapsed":126524,"internal_node_id":"0.0-3.0-0.28","subject_id":"5f468c87030fef01251dfe06","study_id":"607de2837874a824e2e8c6ec","session_id":"608855062bff00b24ccc15be","correct":true},{"rt":552.3600000888109,"stimulus":"\n      <p>How sure are you?</p>\n      <p>Rate your confidence in your answer from 1 (pure guess) to 5 (very sure) by pressing the corresponding button.</p>\n     ","response":4,"image":"img/hair_tie.jpg","task":"confidence","old_or_new":"old","trial_type":"html-button-response","trial_index":60,"time_elapsed":127077,"internal_node_id":"0.0-3.0-1.28","subject_id":"5f468c87030fef01251dfe06","study_id":"607de2837874a824e2e8c6ec","session_id":"608855062bff00b24ccc15be"},{"rt":2023.6300001852214,"stimulus":"img/glasses_alternate.jpg","response":"n","image":"img/glasses_alternate.jpg","old_or_new":"new","task":"recognition","trial_type":"image-keyboard-response","trial_index":61,"time_elapsed":129603,"internal_node_id":"0.0-3.0-0.29","subject_id":"5f468c87030fef01251dfe06","study_id":"607de2837874a824e2e8c6ec","session_id":"608855062bff00b24ccc15be","correct":true},{"rt":523.5800000373274,"stimulus":"\n      <p>How sure are you?</p>\n      <p>Rate your confidence in your answer from 1 (pure guess) to 5 (very sure) by pressing the corresponding button.</p>\n     ","response":4,"image":"img/glasses_alternate.jpg","task":"confidence","old_or_new":"new","trial_type":"html-button-response","trial_index":62,"time_elapsed":130127,"internal_node_id":"0.0-3.0-1.29","subject_id":"5f468c87030fef01251dfe06","study_id":"607de2837874a824e2e8c6ec","session_id":"608855062bff00b24ccc15be"},{"rt":4340.610000072047,"stimulus":"img/bowl.jpg","response":"y","image":"img/bowl.jpg","old_or_new":"old","task":"recognition","trial_type":"image-keyboard-response","trial_index":63,"time_elapsed":134970,"internal_node_id":"0.0-3.0-0.30","subject_id":"5f468c87030fef01251dfe06","study_id":"607de2837874a824e2e8c6ec","session_id":"608855062bff00b24ccc15be","correct":true},{"rt":639.1149999108166,"stimulus":"\n      <p>How sure are you?</p>\n      <p>Rate your confidence in your answer from 1 (pure guess) to 5 (very sure) by pressing the corresponding button.</p>\n     ","response":4,"image":"img/bowl.jpg","task":"confidence","old_or_new":"old","trial_type":"html-button-response","trial_index":64,"time_elapsed":135610,"internal_node_id":"0.0-3.0-1.30","subject_id":"5f468c87030fef01251dfe06","study_id":"607de2837874a824e2e8c6ec","session_id":"608855062bff00b24ccc15be"},{"rt":720.5450001638383,"stimulus":"img/dryer_alternate.jpg","response":"n","image":"img/dryer_alternate.jpg","old_or_new":"new","task":"recognition","trial_type":"image-keyboard-response","trial_index":65,"time_elapsed":136833,"internal_node_id":"0.0-3.0-0.31","subject_id":"5f468c87030fef01251dfe06","study_id":"607de2837874a824e2e8c6ec","session_id":"608855062bff00b24ccc15be","correct":true},{"rt":456.47999993525445,"stimulus":"\n      <p>How sure are you?</p>\n      <p>Rate your confidence in your answer from 1 (pure guess) to 5 (very sure) by pressing the corresponding button.</p>\n     ","response":4,"image":"img/dryer_alternate.jpg","task":"confidence","old_or_new":"new","trial_type":"html-button-response","trial_index":66,"time_elapsed":137290,"internal_node_id":"0.0-3.0-1.31","subject_id":"5f468c87030fef01251dfe06","study_id":"607de2837874a824e2e8c6ec","session_id":"608855062bff00b24ccc15be"},{"rt":1210.5349998455495,"stimulus":"img/coin_alternate.jpg","response":"n","image":"img/coin_alternate.jpg","old_or_new":"new","task":"recognition","trial_type":"image-keyboard-response","trial_index":67,"time_elapsed":139003,"internal_node_id":"0.0-3.0-0.32","subject_id":"5f468c87030fef01251dfe06","study_id":"607de2837874a824e2e8c6ec","session_id":"608855062bff00b24ccc15be","correct":true},{"rt":647.3449999466538,"stimulus":"\n      <p>How sure are you?</p>\n      <p>Rate your confidence in your answer from 1 (pure guess) to 5 (very sure) by pressing the corresponding button.</p>\n     ","response":4,"image":"img/coin_alternate.jpg","task":"confidence","old_or_new":"new","trial_type":"html-button-response","trial_index":68,"time_elapsed":139651,"internal_node_id":"0.0-3.0-1.32","subject_id":"5f468c87030fef01251dfe06","study_id":"607de2837874a824e2e8c6ec","session_id":"608855062bff00b24ccc15be"},{"rt":922.3850001581013,"stimulus":"img/folder.jpg","response":"y","image":"img/folder.jpg","old_or_new":"old","task":"recognition","trial_type":"image-keyboard-response","trial_index":69,"time_elapsed":141076,"internal_node_id":"0.0-3.0-0.33","subject_id":"5f468c87030fef01251dfe06","study_id":"607de2837874a824e2e8c6ec","session_id":"608855062bff00b24ccc15be","correct":true},{"rt":744.9099998921156,"stimulus":"\n      <p>How sure are you?</p>\n      <p>Rate your confidence in your answer from 1 (pure guess) to 5 (very sure) by pressing the corresponding button.</p>\n     ","response":4,"image":"img/folder.jpg","task":"confidence","old_or_new":"old","trial_type":"html-button-response","trial_index":70,"time_elapsed":141821,"internal_node_id":"0.0-3.0-1.33","subject_id":"5f468c87030fef01251dfe06","study_id":"607de2837874a824e2e8c6ec","session_id":"608855062bff00b24ccc15be"},{"rt":3100.349999964237,"stimulus":"img/camera.jpg","response":"n","image":"img/camera.jpg","old_or_new":"old","task":"recognition","trial_type":"image-keyboard-response","trial_index":71,"time_elapsed":145423,"internal_node_id":"0.0-3.0-0.34","subject_id":"5f468c87030fef01251dfe06","study_id":"607de2837874a824e2e8c6ec","session_id":"608855062bff00b24ccc15be","correct":false},{"rt":2434.130000183359,"stimulus":"\n      <p>How sure are you?</p>\n      <p>Rate your confidence in your answer from 1 (pure guess) to 5 (very sure) by pressing the corresponding button.</p>\n     ","response":1,"image":"img/camera.jpg","task":"confidence","old_or_new":"old","trial_type":"html-button-response","trial_index":72,"time_elapsed":147858,"internal_node_id":"0.0-3.0-1.34","subject_id":"5f468c87030fef01251dfe06","study_id":"607de2837874a824e2e8c6ec","session_id":"608855062bff00b24ccc15be"},{"rt":1237.144999904558,"stimulus":"img/apple_alternate.jpg","response":"n","image":"img/apple_alternate.jpg","old_or_new":"new","task":"recognition","trial_type":"image-keyboard-response","trial_index":73,"time_elapsed":149598,"internal_node_id":"0.0-3.0-0.35","subject_id":"5f468c87030fef01251dfe06","study_id":"607de2837874a824e2e8c6ec","session_id":"608855062bff00b24ccc15be","correct":true},{"rt":387.59500021114945,"stimulus":"\n      <p>How sure are you?</p>\n      <p>Rate your confidence in your answer from 1 (pure guess) to 5 (very sure) by pressing the corresponding button.</p>\n     ","response":4,"image":"img/apple_alternate.jpg","task":"confidence","old_or_new":"new","trial_type":"html-button-response","trial_index":74,"time_elapsed":149986,"internal_node_id":"0.0-3.0-1.35","subject_id":"5f468c87030fef01251dfe06","study_id":"607de2837874a824e2e8c6ec","session_id":"608855062bff00b24ccc15be"},{"rt":1130.9500001370907,"stimulus":"img/hourglass.jpg","response":"y","image":"img/hourglass.jpg","old_or_new":"old","task":"recognition","trial_type":"image-keyboard-response","trial_index":75,"time_elapsed":151619,"internal_node_id":"0.0-3.0-0.36","subject_id":"5f468c87030fef01251dfe06","study_id":"607de2837874a824e2e8c6ec","session_id":"608855062bff00b24ccc15be","correct":true},{"rt":1170.8849999122322,"stimulus":"\n      <p>How sure are you?</p>\n      <p>Rate your confidence in your answer from 1 (pure guess) to 5 (very sure) by pressing the corresponding button.</p>\n     ","response":3,"image":"img/hourglass.jpg","task":"confidence","old_or_new":"old","trial_type":"html-button-response","trial_index":76,"time_elapsed":152790,"internal_node_id":"0.0-3.0-1.36","subject_id":"5f468c87030fef01251dfe06","study_id":"607de2837874a824e2e8c6ec","session_id":"608855062bff00b24ccc15be"},{"rt":1210.6800000183284,"stimulus":"img/hourglass_alternate.jpg","response":"n","image":"img/hourglass_alternate.jpg","old_or_new":"new","task":"recognition","trial_type":"image-keyboard-response","trial_index":77,"time_elapsed":154503,"internal_node_id":"0.0-3.0-0.37","subject_id":"5f468c87030fef01251dfe06","study_id":"607de2837874a824e2e8c6ec","session_id":"608855062bff00b24ccc15be","correct":true},{"rt":543.3350000530481,"stimulus":"\n      <p>How sure are you?</p>\n      <p>Rate your confidence in your answer from 1 (pure guess) to 5 (very sure) by pressing the corresponding button.</p>\n     ","response":4,"image":"img/hourglass_alternate.jpg","task":"confidence","old_or_new":"new","trial_type":"html-button-response","trial_index":78,"time_elapsed":155047,"internal_node_id":"0.0-3.0-1.37","subject_id":"5f468c87030fef01251dfe06","study_id":"607de2837874a824e2e8c6ec","session_id":"608855062bff00b24ccc15be"},{"rt":1090.1849998626858,"stimulus":"img/lightbulb_alternate.jpg","response":"n","image":"img/lightbulb_alternate.jpg","old_or_new":"new","task":"recognition","trial_type":"image-keyboard-response","trial_index":79,"time_elapsed":156640,"internal_node_id":"0.0-3.0-0.38","subject_id":"5f468c87030fef01251dfe06","study_id":"607de2837874a824e2e8c6ec","session_id":"608855062bff00b24ccc15be","correct":true},{"rt":522.5800001062453,"stimulus":"\n      <p>How sure are you?</p>\n      <p>Rate your confidence in your answer from 1 (pure guess) to 5 (very sure) by pressing the corresponding button.</p>\n     ","response":4,"image":"img/lightbulb_alternate.jpg","task":"confidence","old_or_new":"new","trial_type":"html-button-response","trial_index":80,"time_elapsed":157163,"internal_node_id":"0.0-3.0-1.38","subject_id":"5f468c87030fef01251dfe06","study_id":"607de2837874a824e2e8c6ec","session_id":"608855062bff00b24ccc15be"},{"rt":709.7850001882762,"stimulus":"img/leaf.jpg","response":"y","image":"img/leaf.jpg","old_or_new":"old","task":"recognition","trial_type":"image-keyboard-response","trial_index":81,"time_elapsed":158375,"internal_node_id":"0.0-3.0-0.39","subject_id":"5f468c87030fef01251dfe06","study_id":"607de2837874a824e2e8c6ec","session_id":"608855062bff00b24ccc15be","correct":true},{"rt":412.2299998998642,"stimulus":"\n      <p>How sure are you?</p>\n      <p>Rate your confidence in your answer from 1 (pure guess) to 5 (very sure) by pressing the corresponding button.</p>\n     ","response":4,"image":"img/leaf.jpg","task":"confidence","old_or_new":"old","trial_type":"html-button-response","trial_index":82,"time_elapsed":158788,"internal_node_id":"0.0-3.0-1.39","subject_id":"5f468c87030fef01251dfe06","study_id":"607de2837874a824e2e8c6ec","session_id":"608855062bff00b24ccc15be"},{"rt":739.5600001327693,"stimulus":"img/helmet_alternate.jpg","response":"n","image":"img/helmet_alternate.jpg","old_or_new":"new","task":"recognition","trial_type":"image-keyboard-response","trial_index":83,"time_elapsed":160030,"internal_node_id":"0.0-3.0-0.40","subject_id":"5f468c87030fef01251dfe06","study_id":"607de2837874a824e2e8c6ec","session_id":"608855062bff00b24ccc15be","correct":true},{"rt":518.7349999323487,"stimulus":"\n      <p>How sure are you?</p>\n      <p>Rate your confidence in your answer from 1 (pure guess) to 5 (very sure) by pressing the corresponding button.</p>\n     ","response":4,"image":"img/helmet_alternate.jpg","task":"confidence","old_or_new":"new","trial_type":"html-button-response","trial_index":84,"time_elapsed":160549,"internal_node_id":"0.0-3.0-1.40","subject_id":"5f468c87030fef01251dfe06","study_id":"607de2837874a824e2e8c6ec","session_id":"608855062bff00b24ccc15be"},{"rt":1202.399999834597,"stimulus":"img/hat.jpg","response":"y","image":"img/hat.jpg","old_or_new":"old","task":"recognition","trial_type":"image-keyboard-response","trial_index":85,"time_elapsed":162255,"internal_node_id":"0.0-3.0-0.41","subject_id":"5f468c87030fef01251dfe06","study_id":"607de2837874a824e2e8c6ec","session_id":"608855062bff00b24ccc15be","correct":true},{"rt":897.7200000081211,"stimulus":"\n      <p>How sure are you?</p>\n      <p>Rate your confidence in your answer from 1 (pure guess) to 5 (very sure) by pressing the corresponding button.</p>\n     ","response":4,"image":"img/hat.jpg","task":"confidence","old_or_new":"old","trial_type":"html-button-response","trial_index":86,"time_elapsed":163153,"internal_node_id":"0.0-3.0-1.41","subject_id":"5f468c87030fef01251dfe06","study_id":"607de2837874a824e2e8c6ec","session_id":"608855062bff00b24ccc15be"},{"rt":837.5099999830127,"stimulus":"img/hair_tie_alternate.jpg","response":"n","image":"img/hair_tie_alternate.jpg","old_or_new":"new","task":"recognition","trial_type":"image-keyboard-response","trial_index":87,"time_elapsed":164493,"internal_node_id":"0.0-3.0-0.42","subject_id":"5f468c87030fef01251dfe06","study_id":"607de2837874a824e2e8c6ec","session_id":"608855062bff00b24ccc15be","correct":true},{"rt":652.6899999007583,"stimulus":"\n      <p>How sure are you?</p>\n      <p>Rate your confidence in your answer from 1 (pure guess) to 5 (very sure) by pressing the corresponding button.</p>\n     ","response":4,"image":"img/hair_tie_alternate.jpg","task":"confidence","old_or_new":"new","trial_type":"html-button-response","trial_index":88,"time_elapsed":165146,"internal_node_id":"0.0-3.0-1.42","subject_id":"5f468c87030fef01251dfe06","study_id":"607de2837874a824e2e8c6ec","session_id":"608855062bff00b24ccc15be"},{"rt":810.4699999094009,"stimulus":"img/grapes_alternate.jpg","response":"n","image":"img/grapes_alternate.jpg","old_or_new":"new","task":"recognition","trial_type":"image-keyboard-response","trial_index":89,"time_elapsed":166458,"internal_node_id":"0.0-3.0-0.43","subject_id":"5f468c87030fef01251dfe06","study_id":"607de2837874a824e2e8c6ec","session_id":"608855062bff00b24ccc15be","correct":true},{"rt":485.3700001258403,"stimulus":"\n      <p>How sure are you?</p>\n      <p>Rate your confidence in your answer from 1 (pure guess) to 5 (very sure) by pressing the corresponding button.</p>\n     ","response":4,"image":"img/grapes_alternate.jpg","task":"confidence","old_or_new":"new","trial_type":"html-button-response","trial_index":90,"time_elapsed":166944,"internal_node_id":"0.0-3.0-1.43","subject_id":"5f468c87030fef01251dfe06","study_id":"607de2837874a824e2e8c6ec","session_id":"608855062bff00b24ccc15be"},{"rt":1528.7899998947978,"stimulus":"img/bowl_alternate.jpg","response":"n","image":"img/bowl_alternate.jpg","old_or_new":"new","task":"recognition","trial_type":"image-keyboard-response","trial_index":91,"time_elapsed":168975,"internal_node_id":"0.0-3.0-0.44","subject_id":"5f468c87030fef01251dfe06","study_id":"607de2837874a824e2e8c6ec","session_id":"608855062bff00b24ccc15be","correct":true},{"rt":500.2099999692291,"stimulus":"\n      <p>How sure are you?</p>\n      <p>Rate your confidence in your answer from 1 (pure guess) to 5 (very sure) by pressing the corresponding button.</p>\n     ","response":4,"image":"img/bowl_alternate.jpg","task":"confidence","old_or_new":"new","trial_type":"html-button-response","trial_index":92,"time_elapsed":169476,"internal_node_id":"0.0-3.0-1.44","subject_id":"5f468c87030fef01251dfe06","study_id":"607de2837874a824e2e8c6ec","session_id":"608855062bff00b24ccc15be"},{"rt":887.5949999783188,"stimulus":"img/globe_alternate.jpg","response":"n","image":"img/globe_alternate.jpg","old_or_new":"new","task":"recognition","trial_type":"image-keyboard-response","trial_index":93,"time_elapsed":170865,"internal_node_id":"0.0-3.0-0.45","subject_id":"5f468c87030fef01251dfe06","study_id":"607de2837874a824e2e8c6ec","session_id":"608855062bff00b24ccc15be","correct":true},{"rt":700.4449998494238,"stimulus":"\n      <p>How sure are you?</p>\n      <p>Rate your confidence in your answer from 1 (pure guess) to 5 (very sure) by pressing the corresponding button.</p>\n     ","response":4,"image":"img/globe_alternate.jpg","task":"confidence","old_or_new":"new","trial_type":"html-button-response","trial_index":94,"time_elapsed":171566,"internal_node_id":"0.0-3.0-1.45","subject_id":"5f468c87030fef01251dfe06","study_id":"607de2837874a824e2e8c6ec","session_id":"608855062bff00b24ccc15be"},{"rt":1184.2099998611957,"stimulus":"img/hairbrush_alternate.jpg","response":"n","image":"img/hairbrush_alternate.jpg","old_or_new":"new","task":"recognition","trial_type":"image-keyboard-response","trial_index":95,"time_elapsed":173253,"internal_node_id":"0.0-3.0-0.46","subject_id":"5f468c87030fef01251dfe06","study_id":"607de2837874a824e2e8c6ec","session_id":"608855062bff00b24ccc15be","correct":true},{"rt":568.4350000228733,"stimulus":"\n      <p>How sure are you?</p>\n      <p>Rate your confidence in your answer from 1 (pure guess) to 5 (very sure) by pressing the corresponding button.</p>\n     ","response":4,"image":"img/hairbrush_alternate.jpg","task":"confidence","old_or_new":"new","trial_type":"html-button-response","trial_index":96,"time_elapsed":173822,"internal_node_id":"0.0-3.0-1.46","subject_id":"5f468c87030fef01251dfe06","study_id":"607de2837874a824e2e8c6ec","session_id":"608855062bff00b24ccc15be"},{"rt":855.0700000487268,"stimulus":"img/basket.jpg","response":"y","image":"img/basket.jpg","old_or_new":"old","task":"recognition","trial_type":"image-keyboard-response","trial_index":97,"time_elapsed":175179,"internal_node_id":"0.0-3.0-0.47","subject_id":"5f468c87030fef01251dfe06","study_id":"607de2837874a824e2e8c6ec","session_id":"608855062bff00b24ccc15be","correct":true},{"rt":556.455000070855,"stimulus":"\n      <p>How sure are you?</p>\n      <p>Rate your confidence in your answer from 1 (pure guess) to 5 (very sure) by pressing the corresponding button.</p>\n     ","response":4,"image":"img/basket.jpg","task":"confidence","old_or_new":"old","trial_type":"html-button-response","trial_index":98,"time_elapsed":175736,"internal_node_id":"0.0-3.0-1.47","subject_id":"5f468c87030fef01251dfe06","study_id":"607de2837874a824e2e8c6ec","session_id":"608855062bff00b24ccc15be"}]