[{"success":true,"timeout":false,"failed_images":[],"failed_audio":[],"failed_video":[],"trial_type":"preload","trial_index":0,"time_elapsed":6566,"internal_node_id":"0.0-0.0","subject_id":"6061f0665cb1b3cdcecafe93","study_id":"606233c0e42b980319b6a18e","session_id":"60883cdf3ead6578cdcbfabc"},{"rt":1100.0750000000608,"stimulus":"\n      <div style=\"width:800px; text-align: left;\">\n        <p>Welcome to day 2 of the experiment! Thanks for coming back.</p>\n        <p>You will be presented with a series of images. Images will appear one at a time.</p>\n        <p>Each image will remain on the screen until you press either <span style=\"font-weight: bold;\">\"y\" to indicate you have seen the \n        exact same photo the day before or \"n\" to indicate you have not seen the exact same photo the day before.</span></p>\n        <p>After you answer yes (\"y\") or no (\"n\"), you will then be prompted to rate your certainty on a scale of\n        1 (pure guess) to 5 (very sure).</p>\n      </div>\n    ","response":0,"trial_type":"html-button-response","trial_index":1,"time_elapsed":7668,"internal_node_id":"0.0-1.0","subject_id":"6061f0665cb1b3cdcecafe93","study_id":"606233c0e42b980319b6a18e","session_id":"60883cdf3ead6578cdcbfabc"},{"success":true,"trial_type":"fullscreen","trial_index":2,"time_elapsed":11240,"internal_node_id":"0.0-2.0","subject_id":"6061f0665cb1b3cdcecafe93","study_id":"606233c0e42b980319b6a18e","session_id":"60883cdf3ead6578cdcbfabc"},{"rt":4318.665000000012,"stimulus":"img/tv.jpg","response":"n","image":"img/tv.jpg","old_or_new":"old","task":"recognition","trial_type":"image-keyboard-response","trial_index":3,"time_elapsed":15568,"internal_node_id":"0.0-3.0-0.0","subject_id":"6061f0665cb1b3cdcecafe93","study_id":"606233c0e42b980319b6a18e","session_id":"60883cdf3ead6578cdcbfabc","correct":false},{"rt":2713.1749999998647,"stimulus":"\n      <p>How sure are you?</p>\n      <p>Rate your confidence in your answer from 1 (pure guess) to 5 (very sure) by pressing the corresponding button.</p>\n     ","response":4,"image":"img/tv.jpg","task":"confidence","old_or_new":"old","trial_type":"html-button-response","trial_index":4,"time_elapsed":18282,"internal_node_id":"0.0-3.0-1.0","subject_id":"6061f0665cb1b3cdcecafe93","study_id":"606233c0e42b980319b6a18e","session_id":"60883cdf3ead6578cdcbfabc"},{"rt":1808.6599999999198,"stimulus":"img/plate.jpg","response":"y","image":"img/plate.jpg","old_or_new":"old","task":"recognition","trial_type":"image-keyboard-response","trial_index":5,"time_elapsed":20595,"internal_node_id":"0.0-3.0-0.1","subject_id":"6061f0665cb1b3cdcecafe93","study_id":"606233c0e42b980319b6a18e","session_id":"60883cdf3ead6578cdcbfabc","correct":true},{"rt":660.4899999999798,"stimulus":"\n      <p>How sure are you?</p>\n      <p>Rate your confidence in your answer from 1 (pure guess) to 5 (very sure) by pressing the corresponding button.</p>\n     ","response":4,"image":"img/plate.jpg","task":"confidence","old_or_new":"old","trial_type":"html-button-response","trial_index":6,"time_elapsed":21256,"internal_node_id":"0.0-3.0-1.1","subject_id":"6061f0665cb1b3cdcecafe93","study_id":"606233c0e42b980319b6a18e","session_id":"60883cdf3ead6578cdcbfabc"},{"rt":3105.935000000045,"stimulus":"img/shoe_alternate.jpg","response":"n","image":"img/shoe_alternate.jpg","old_or_new":"new","task":"recognition","trial_type":"image-keyboard-response","trial_index":7,"time_elapsed":24867,"internal_node_id":"0.0-3.0-0.2","subject_id":"6061f0665cb1b3cdcecafe93","study_id":"606233c0e42b980319b6a18e","session_id":"60883cdf3ead6578cdcbfabc","correct":true},{"rt":1503.2100000000792,"stimulus":"\n      <p>How sure are you?</p>\n      <p>Rate your confidence in your answer from 1 (pure guess) to 5 (very sure) by pressing the corresponding button.</p>\n     ","response":2,"image":"img/shoe_alternate.jpg","task":"confidence","old_or_new":"new","trial_type":"html-button-response","trial_index":8,"time_elapsed":26371,"internal_node_id":"0.0-3.0-1.2","subject_id":"6061f0665cb1b3cdcecafe93","study_id":"606233c0e42b980319b6a18e","session_id":"60883cdf3ead6578cdcbfabc"},{"rt":3256.7200000000885,"stimulus":"img/plane_alternate.jpg","response":"n","image":"img/plane_alternate.jpg","old_or_new":"new","task":"recognition","trial_type":"image-keyboard-response","trial_index":9,"time_elapsed":30131,"internal_node_id":"0.0-3.0-0.3","subject_id":"6061f0665cb1b3cdcecafe93","study_id":"606233c0e42b980319b6a18e","session_id":"60883cdf3ead6578cdcbfabc","correct":true},{"rt":1173.4299999998257,"stimulus":"\n      <p>How sure are you?</p>\n      <p>Rate your confidence in your answer from 1 (pure guess) to 5 (very sure) by pressing the corresponding button.</p>\n     ","response":3,"image":"img/plane_alternate.jpg","task":"confidence","old_or_new":"new","trial_type":"html-button-response","trial_index":10,"time_elapsed":31305,"internal_node_id":"0.0-3.0-1.3","subject_id":"6061f0665cb1b3cdcecafe93","study_id":"606233c0e42b980319b6a18e","session_id":"60883cdf3ead6578cdcbfabc"},{"rt":988.5000000001601,"stimulus":"img/yarn.jpg","response":"y","image":"img/yarn.jpg","old_or_new":"old","task":"recognition","trial_type":"image-keyboard-response","trial_index":11,"time_elapsed":32800,"internal_node_id":"0.0-3.0-0.4","subject_id":"6061f0665cb1b3cdcecafe93","study_id":"606233c0e42b980319b6a18e","session_id":"60883cdf3ead6578cdcbfabc","correct":true},{"rt":778.0849999999191,"stimulus":"\n      <p>How sure are you?</p>\n      <p>Rate your confidence in your answer from 1 (pure guess) to 5 (very sure) by pressing the corresponding button.</p>\n     ","response":4,"image":"img/yarn.jpg","task":"confidence","old_or_new":"old","trial_type":"html-button-response","trial_index":12,"time_elapsed":33579,"internal_node_id":"0.0-3.0-1.4","subject_id":"6061f0665cb1b3cdcecafe93","study_id":"606233c0e42b980319b6a18e","session_id":"60883cdf3ead6578cdcbfabc"},{"rt":1371.9750000000204,"stimulus":"img/shovel_alternate.jpg","response":"y","image":"img/shovel_alternate.jpg","old_or_new":"new","task":"recognition","trial_type":"image-keyboard-response","trial_index":13,"time_elapsed":35452,"internal_node_id":"0.0-3.0-0.5","subject_id":"6061f0665cb1b3cdcecafe93","study_id":"606233c0e42b980319b6a18e","session_id":"60883cdf3ead6578cdcbfabc","correct":false},{"rt":616.2750000000815,"stimulus":"\n      <p>How sure are you?</p>\n      <p>Rate your confidence in your answer from 1 (pure guess) to 5 (very sure) by pressing the corresponding button.</p>\n     ","response":4,"image":"img/shovel_alternate.jpg","task":"confidence","old_or_new":"new","trial_type":"html-button-response","trial_index":14,"time_elapsed":36069,"internal_node_id":"0.0-3.0-1.5","subject_id":"6061f0665cb1b3cdcecafe93","study_id":"606233c0e42b980319b6a18e","session_id":"60883cdf3ead6578cdcbfabc"},{"rt":1604.7399999999907,"stimulus":"img/toothbrush_alternate.jpg","response":"y","image":"img/toothbrush_alternate.jpg","old_or_new":"new","task":"recognition","trial_type":"image-keyboard-response","trial_index":15,"time_elapsed":38175,"internal_node_id":"0.0-3.0-0.6","subject_id":"6061f0665cb1b3cdcecafe93","study_id":"606233c0e42b980319b6a18e","session_id":"60883cdf3ead6578cdcbfabc","correct":false},{"rt":1269.0400000001318,"stimulus":"\n      <p>How sure are you?</p>\n      <p>Rate your confidence in your answer from 1 (pure guess) to 5 (very sure) by pressing the corresponding button.</p>\n     ","response":2,"image":"img/toothbrush_alternate.jpg","task":"confidence","old_or_new":"new","trial_type":"html-button-response","trial_index":16,"time_elapsed":39445,"internal_node_id":"0.0-3.0-1.6","subject_id":"6061f0665cb1b3cdcecafe93","study_id":"606233c0e42b980319b6a18e","session_id":"60883cdf3ead6578cdcbfabc"},{"rt":1268.0900000000256,"stimulus":"img/skates_alternate.jpg","response":"n","image":"img/skates_alternate.jpg","old_or_new":"new","task":"recognition","trial_type":"image-keyboard-response","trial_index":17,"time_elapsed":41219,"internal_node_id":"0.0-3.0-0.7","subject_id":"6061f0665cb1b3cdcecafe93","study_id":"606233c0e42b980319b6a18e","session_id":"60883cdf3ead6578cdcbfabc","correct":true},{"rt":5472.010000000177,"stimulus":"\n      <p>How sure are you?</p>\n      <p>Rate your confidence in your answer from 1 (pure guess) to 5 (very sure) by pressing the corresponding button.</p>\n     ","response":2,"image":"img/skates_alternate.jpg","task":"confidence","old_or_new":"new","trial_type":"html-button-response","trial_index":18,"time_elapsed":46692,"internal_node_id":"0.0-3.0-1.7","subject_id":"6061f0665cb1b3cdcecafe93","study_id":"606233c0e42b980319b6a18e","session_id":"60883cdf3ead6578cdcbfabc"},{"rt":1018.6299999998009,"stimulus":"img/parfait.jpg","response":"y","image":"img/parfait.jpg","old_or_new":"old","task":"recognition","trial_type":"image-keyboard-response","trial_index":19,"time_elapsed":48214,"internal_node_id":"0.0-3.0-0.8","subject_id":"6061f0665cb1b3cdcecafe93","study_id":"606233c0e42b980319b6a18e","session_id":"60883cdf3ead6578cdcbfabc","correct":true},{"rt":678.6949999998324,"stimulus":"\n      <p>How sure are you?</p>\n      <p>Rate your confidence in your answer from 1 (pure guess) to 5 (very sure) by pressing the corresponding button.</p>\n     ","response":4,"image":"img/parfait.jpg","task":"confidence","old_or_new":"old","trial_type":"html-button-response","trial_index":20,"time_elapsed":48894,"internal_node_id":"0.0-3.0-1.8","subject_id":"6061f0665cb1b3cdcecafe93","study_id":"606233c0e42b980319b6a18e","session_id":"60883cdf3ead6578cdcbfabc"},{"rt":2383.4749999998603,"stimulus":"img/pencil_sharpener_alternate.jpg","response":"y","image":"img/pencil_sharpener_alternate.jpg","old_or_new":"new","task":"recognition","trial_type":"image-keyboard-response","trial_index":21,"time_elapsed":51784,"internal_node_id":"0.0-3.0-0.9","subject_id":"6061f0665cb1b3cdcecafe93","study_id":"606233c0e42b980319b6a18e","session_id":"60883cdf3ead6578cdcbfabc","correct":false},{"rt":1198.134999999871,"stimulus":"\n      <p>How sure are you?</p>\n      <p>Rate your confidence in your answer from 1 (pure guess) to 5 (very sure) by pressing the corresponding button.</p>\n     ","response":3,"image":"img/pencil_sharpener_alternate.jpg","task":"confidence","old_or_new":"new","trial_type":"html-button-response","trial_index":22,"time_elapsed":52983,"internal_node_id":"0.0-3.0-1.9","subject_id":"6061f0665cb1b3cdcecafe93","study_id":"606233c0e42b980319b6a18e","session_id":"60883cdf3ead6578cdcbfabc"},{"rt":1130.4600000000864,"stimulus":"img/pencil_sharpener.jpg","response":"y","image":"img/pencil_sharpener.jpg","old_or_new":"old","task":"recognition","trial_type":"image-keyboard-response","trial_index":23,"time_elapsed":54618,"internal_node_id":"0.0-3.0-0.10","subject_id":"6061f0665cb1b3cdcecafe93","study_id":"606233c0e42b980319b6a18e","session_id":"60883cdf3ead6578cdcbfabc","correct":true},{"rt":683.3349999999409,"stimulus":"\n      <p>How sure are you?</p>\n      <p>Rate your confidence in your answer from 1 (pure guess) to 5 (very sure) by pressing the corresponding button.</p>\n     ","response":4,"image":"img/pencil_sharpener.jpg","task":"confidence","old_or_new":"old","trial_type":"html-button-response","trial_index":24,"time_elapsed":55302,"internal_node_id":"0.0-3.0-1.10","subject_id":"6061f0665cb1b3cdcecafe93","study_id":"606233c0e42b980319b6a18e","session_id":"60883cdf3ead6578cdcbfabc"},{"rt":992.4949999999662,"stimulus":"img/spoon_alternate.jpg","response":"n","image":"img/spoon_alternate.jpg","old_or_new":"new","task":"recognition","trial_type":"image-keyboard-response","trial_index":25,"time_elapsed":56797,"internal_node_id":"0.0-3.0-0.11","subject_id":"6061f0665cb1b3cdcecafe93","study_id":"606233c0e42b980319b6a18e","session_id":"60883cdf3ead6578cdcbfabc","correct":true},{"rt":1154.9250000000466,"stimulus":"\n      <p>How sure are you?</p>\n      <p>Rate your confidence in your answer from 1 (pure guess) to 5 (very sure) by pressing the corresponding button.</p>\n     ","response":4,"image":"img/spoon_alternate.jpg","task":"confidence","old_or_new":"new","trial_type":"html-button-response","trial_index":26,"time_elapsed":57953,"internal_node_id":"0.0-3.0-1.11","subject_id":"6061f0665cb1b3cdcecafe93","study_id":"606233c0e42b980319b6a18e","session_id":"60883cdf3ead6578cdcbfabc"},{"rt":1032.5550000000003,"stimulus":"img/trophy.jpg","response":"y","image":"img/trophy.jpg","old_or_new":"old","task":"recognition","trial_type":"image-keyboard-response","trial_index":27,"time_elapsed":59487,"internal_node_id":"0.0-3.0-0.12","subject_id":"6061f0665cb1b3cdcecafe93","study_id":"606233c0e42b980319b6a18e","session_id":"60883cdf3ead6578cdcbfabc","correct":true},{"rt":1396.2399999998088,"stimulus":"\n      <p>How sure are you?</p>\n      <p>Rate your confidence in your answer from 1 (pure guess) to 5 (very sure) by pressing the corresponding button.</p>\n     ","response":4,"image":"img/trophy.jpg","task":"confidence","old_or_new":"old","trial_type":"html-button-response","trial_index":28,"time_elapsed":60884,"internal_node_id":"0.0-3.0-1.12","subject_id":"6061f0665cb1b3cdcecafe93","study_id":"606233c0e42b980319b6a18e","session_id":"60883cdf3ead6578cdcbfabc"},{"rt":2434.1699999999983,"stimulus":"img/pizza_alternate.jpg","response":"n","image":"img/pizza_alternate.jpg","old_or_new":"new","task":"recognition","trial_type":"image-keyboard-response","trial_index":29,"time_elapsed":63821,"internal_node_id":"0.0-3.0-0.13","subject_id":"6061f0665cb1b3cdcecafe93","study_id":"606233c0e42b980319b6a18e","session_id":"60883cdf3ead6578cdcbfabc","correct":true},{"rt":1807.8350000000792,"stimulus":"\n      <p>How sure are you?</p>\n      <p>Rate your confidence in your answer from 1 (pure guess) to 5 (very sure) by pressing the corresponding button.</p>\n     ","response":4,"image":"img/pizza_alternate.jpg","task":"confidence","old_or_new":"new","trial_type":"html-button-response","trial_index":30,"time_elapsed":65630,"internal_node_id":"0.0-3.0-1.13","subject_id":"6061f0665cb1b3cdcecafe93","study_id":"606233c0e42b980319b6a18e","session_id":"60883cdf3ead6578cdcbfabc"},{"rt":1740.4550000001182,"stimulus":"img/skates.jpg","response":"n","image":"img/skates.jpg","old_or_new":"old","task":"recognition","trial_type":"image-keyboard-response","trial_index":31,"time_elapsed":67872,"internal_node_id":"0.0-3.0-0.14","subject_id":"6061f0665cb1b3cdcecafe93","study_id":"606233c0e42b980319b6a18e","session_id":"60883cdf3ead6578cdcbfabc","correct":false},{"rt":712.1649999999208,"stimulus":"\n      <p>How sure are you?</p>\n      <p>Rate your confidence in your answer from 1 (pure guess) to 5 (very sure) by pressing the corresponding button.</p>\n     ","response":2,"image":"img/skates.jpg","task":"confidence","old_or_new":"old","trial_type":"html-button-response","trial_index":32,"time_elapsed":68585,"internal_node_id":"0.0-3.0-1.14","subject_id":"6061f0665cb1b3cdcecafe93","study_id":"606233c0e42b980319b6a18e","session_id":"60883cdf3ead6578cdcbfabc"},{"rt":2250.1000000002095,"stimulus":"img/rolling_pin_alternate.jpg","response":"n","image":"img/rolling_pin_alternate.jpg","old_or_new":"new","task":"recognition","trial_type":"image-keyboard-response","trial_index":33,"time_elapsed":71339,"internal_node_id":"0.0-3.0-0.15","subject_id":"6061f0665cb1b3cdcecafe93","study_id":"606233c0e42b980319b6a18e","session_id":"60883cdf3ead6578cdcbfabc","correct":true},{"rt":592.2299999999668,"stimulus":"\n      <p>How sure are you?</p>\n      <p>Rate your confidence in your answer from 1 (pure guess) to 5 (very sure) by pressing the corresponding button.</p>\n     ","response":2,"image":"img/rolling_pin_alternate.jpg","task":"confidence","old_or_new":"new","trial_type":"html-button-response","trial_index":34,"time_elapsed":71933,"internal_node_id":"0.0-3.0-1.15","subject_id":"6061f0665cb1b3cdcecafe93","study_id":"606233c0e42b980319b6a18e","session_id":"60883cdf3ead6578cdcbfabc"},{"rt":1046.984999999957,"stimulus":"img/shovel.jpg","response":"y","image":"img/shovel.jpg","old_or_new":"old","task":"recognition","trial_type":"image-keyboard-response","trial_index":35,"time_elapsed":73485,"internal_node_id":"0.0-3.0-0.16","subject_id":"6061f0665cb1b3cdcecafe93","study_id":"606233c0e42b980319b6a18e","session_id":"60883cdf3ead6578cdcbfabc","correct":true},{"rt":729.730000000025,"stimulus":"\n      <p>How sure are you?</p>\n      <p>Rate your confidence in your answer from 1 (pure guess) to 5 (very sure) by pressing the corresponding button.</p>\n     ","response":4,"image":"img/shovel.jpg","task":"confidence","old_or_new":"old","trial_type":"html-button-response","trial_index":36,"time_elapsed":74215,"internal_node_id":"0.0-3.0-1.16","subject_id":"6061f0665cb1b3cdcecafe93","study_id":"606233c0e42b980319b6a18e","session_id":"60883cdf3ead6578cdcbfabc"},{"rt":993.8300000001182,"stimulus":"img/yarn_alternate.jpg","response":"n","image":"img/yarn_alternate.jpg","old_or_new":"new","task":"recognition","trial_type":"image-keyboard-response","trial_index":37,"time_elapsed":75716,"internal_node_id":"0.0-3.0-0.17","subject_id":"6061f0665cb1b3cdcecafe93","study_id":"606233c0e42b980319b6a18e","session_id":"60883cdf3ead6578cdcbfabc","correct":true},{"rt":444.55999999991036,"stimulus":"\n      <p>How sure are you?</p>\n      <p>Rate your confidence in your answer from 1 (pure guess) to 5 (very sure) by pressing the corresponding button.</p>\n     ","response":4,"image":"img/yarn_alternate.jpg","task":"confidence","old_or_new":"new","trial_type":"html-button-response","trial_index":38,"time_elapsed":76162,"internal_node_id":"0.0-3.0-1.17","subject_id":"6061f0665cb1b3cdcecafe93","study_id":"606233c0e42b980319b6a18e","session_id":"60883cdf3ead6578cdcbfabc"},{"rt":1047.145000000004,"stimulus":"img/seashell.jpg","response":"y","image":"img/seashell.jpg","old_or_new":"old","task":"recognition","trial_type":"image-keyboard-response","trial_index":39,"time_elapsed":77714,"internal_node_id":"0.0-3.0-0.18","subject_id":"6061f0665cb1b3cdcecafe93","study_id":"606233c0e42b980319b6a18e","session_id":"60883cdf3ead6578cdcbfabc","correct":true},{"rt":769.2299999998795,"stimulus":"\n      <p>How sure are you?</p>\n      <p>Rate your confidence in your answer from 1 (pure guess) to 5 (very sure) by pressing the corresponding button.</p>\n     ","response":3,"image":"img/seashell.jpg","task":"confidence","old_or_new":"old","trial_type":"html-button-response","trial_index":40,"time_elapsed":78485,"internal_node_id":"0.0-3.0-1.18","subject_id":"6061f0665cb1b3cdcecafe93","study_id":"606233c0e42b980319b6a18e","session_id":"60883cdf3ead6578cdcbfabc"},{"rt":1100.7300000001123,"stimulus":"img/power_cord.jpg","response":"y","image":"img/power_cord.jpg","old_or_new":"old","task":"recognition","trial_type":"image-keyboard-response","trial_index":41,"time_elapsed":80088,"internal_node_id":"0.0-3.0-0.19","subject_id":"6061f0665cb1b3cdcecafe93","study_id":"606233c0e42b980319b6a18e","session_id":"60883cdf3ead6578cdcbfabc","correct":true},{"rt":630.5399999998917,"stimulus":"\n      <p>How sure are you?</p>\n      <p>Rate your confidence in your answer from 1 (pure guess) to 5 (very sure) by pressing the corresponding button.</p>\n     ","response":4,"image":"img/power_cord.jpg","task":"confidence","old_or_new":"old","trial_type":"html-button-response","trial_index":42,"time_elapsed":80719,"internal_node_id":"0.0-3.0-1.19","subject_id":"6061f0665cb1b3cdcecafe93","study_id":"606233c0e42b980319b6a18e","session_id":"60883cdf3ead6578cdcbfabc"},{"rt":1705.1449999999022,"stimulus":"img/toothbrush.jpg","response":"n","image":"img/toothbrush.jpg","old_or_new":"old","task":"recognition","trial_type":"image-keyboard-response","trial_index":43,"time_elapsed":82931,"internal_node_id":"0.0-3.0-0.20","subject_id":"6061f0665cb1b3cdcecafe93","study_id":"606233c0e42b980319b6a18e","session_id":"60883cdf3ead6578cdcbfabc","correct":false},{"rt":766.5349999999744,"stimulus":"\n      <p>How sure are you?</p>\n      <p>Rate your confidence in your answer from 1 (pure guess) to 5 (very sure) by pressing the corresponding button.</p>\n     ","response":2,"image":"img/toothbrush.jpg","task":"confidence","old_or_new":"old","trial_type":"html-button-response","trial_index":44,"time_elapsed":83698,"internal_node_id":"0.0-3.0-1.20","subject_id":"6061f0665cb1b3cdcecafe93","study_id":"606233c0e42b980319b6a18e","session_id":"60883cdf3ead6578cdcbfabc"},{"rt":1181.8349999998754,"stimulus":"img/sink_alternate.jpg","response":"n","image":"img/sink_alternate.jpg","old_or_new":"new","task":"recognition","trial_type":"image-keyboard-response","trial_index":45,"time_elapsed":85387,"internal_node_id":"0.0-3.0-0.21","subject_id":"6061f0665cb1b3cdcecafe93","study_id":"606233c0e42b980319b6a18e","session_id":"60883cdf3ead6578cdcbfabc","correct":true},{"rt":793.7549999999173,"stimulus":"\n      <p>How sure are you?</p>\n      <p>Rate your confidence in your answer from 1 (pure guess) to 5 (very sure) by pressing the corresponding button.</p>\n     ","response":3,"image":"img/sink_alternate.jpg","task":"confidence","old_or_new":"new","trial_type":"html-button-response","trial_index":46,"time_elapsed":86181,"internal_node_id":"0.0-3.0-1.21","subject_id":"6061f0665cb1b3cdcecafe93","study_id":"606233c0e42b980319b6a18e","session_id":"60883cdf3ead6578cdcbfabc"},{"rt":1987.919999999809,"stimulus":"img/wheel_barrow_alternate.jpg","response":"n","image":"img/wheel_barrow_alternate.jpg","old_or_new":"new","task":"recognition","trial_type":"image-keyboard-response","trial_index":47,"time_elapsed":88676,"internal_node_id":"0.0-3.0-0.22","subject_id":"6061f0665cb1b3cdcecafe93","study_id":"606233c0e42b980319b6a18e","session_id":"60883cdf3ead6578cdcbfabc","correct":true},{"rt":676.8899999999558,"stimulus":"\n      <p>How sure are you?</p>\n      <p>Rate your confidence in your answer from 1 (pure guess) to 5 (very sure) by pressing the corresponding button.</p>\n     ","response":2,"image":"img/wheel_barrow_alternate.jpg","task":"confidence","old_or_new":"new","trial_type":"html-button-response","trial_index":48,"time_elapsed":89354,"internal_node_id":"0.0-3.0-1.22","subject_id":"6061f0665cb1b3cdcecafe93","study_id":"606233c0e42b980319b6a18e","session_id":"60883cdf3ead6578cdcbfabc"},{"rt":1033.625000000029,"stimulus":"img/umbrella.jpg","response":"n","image":"img/umbrella.jpg","old_or_new":"old","task":"recognition","trial_type":"image-keyboard-response","trial_index":49,"time_elapsed":90891,"internal_node_id":"0.0-3.0-0.23","subject_id":"6061f0665cb1b3cdcecafe93","study_id":"606233c0e42b980319b6a18e","session_id":"60883cdf3ead6578cdcbfabc","correct":false},{"rt":704.5650000000023,"stimulus":"\n      <p>How sure are you?</p>\n      <p>Rate your confidence in your answer from 1 (pure guess) to 5 (very sure) by pressing the corresponding button.</p>\n     ","response":1,"image":"img/umbrella.jpg","task":"confidence","old_or_new":"old","trial_type":"html-button-response","trial_index":50,"time_elapsed":91596,"internal_node_id":"0.0-3.0-1.23","subject_id":"6061f0665cb1b3cdcecafe93","study_id":"606233c0e42b980319b6a18e","session_id":"60883cdf3ead6578cdcbfabc"},{"rt":1009.7000000000553,"stimulus":"img/power_cord_alternate.jpg","response":"n","image":"img/power_cord_alternate.jpg","old_or_new":"new","task":"recognition","trial_type":"image-keyboard-response","trial_index":51,"time_elapsed":93108,"internal_node_id":"0.0-3.0-0.24","subject_id":"6061f0665cb1b3cdcecafe93","study_id":"606233c0e42b980319b6a18e","session_id":"60883cdf3ead6578cdcbfabc","correct":true},{"rt":905.780000000057,"stimulus":"\n      <p>How sure are you?</p>\n      <p>Rate your confidence in your answer from 1 (pure guess) to 5 (very sure) by pressing the corresponding button.</p>\n     ","response":3,"image":"img/power_cord_alternate.jpg","task":"confidence","old_or_new":"new","trial_type":"html-button-response","trial_index":52,"time_elapsed":94014,"internal_node_id":"0.0-3.0-1.24","subject_id":"6061f0665cb1b3cdcecafe93","study_id":"606233c0e42b980319b6a18e","session_id":"60883cdf3ead6578cdcbfabc"},{"rt":1089.6499999998923,"stimulus":"img/trophy_alternate.jpg","response":"n","image":"img/trophy_alternate.jpg","old_or_new":"new","task":"recognition","trial_type":"image-keyboard-response","trial_index":53,"time_elapsed":95609,"internal_node_id":"0.0-3.0-0.25","subject_id":"6061f0665cb1b3cdcecafe93","study_id":"606233c0e42b980319b6a18e","session_id":"60883cdf3ead6578cdcbfabc","correct":true},{"rt":1184.769999999844,"stimulus":"\n      <p>How sure are you?</p>\n      <p>Rate your confidence in your answer from 1 (pure guess) to 5 (very sure) by pressing the corresponding button.</p>\n     ","response":4,"image":"img/trophy_alternate.jpg","task":"confidence","old_or_new":"new","trial_type":"html-button-response","trial_index":54,"time_elapsed":96794,"internal_node_id":"0.0-3.0-1.25","subject_id":"6061f0665cb1b3cdcecafe93","study_id":"606233c0e42b980319b6a18e","session_id":"60883cdf3ead6578cdcbfabc"},{"rt":1259.9749999999476,"stimulus":"img/sink.jpg","response":"y","image":"img/sink.jpg","old_or_new":"old","task":"recognition","trial_type":"image-keyboard-response","trial_index":55,"time_elapsed":98561,"internal_node_id":"0.0-3.0-0.26","subject_id":"6061f0665cb1b3cdcecafe93","study_id":"606233c0e42b980319b6a18e","session_id":"60883cdf3ead6578cdcbfabc","correct":true},{"rt":714.9399999998423,"stimulus":"\n      <p>How sure are you?</p>\n      <p>Rate your confidence in your answer from 1 (pure guess) to 5 (very sure) by pressing the corresponding button.</p>\n     ","response":3,"image":"img/sink.jpg","task":"confidence","old_or_new":"old","trial_type":"html-button-response","trial_index":56,"time_elapsed":99276,"internal_node_id":"0.0-3.0-1.26","subject_id":"6061f0665cb1b3cdcecafe93","study_id":"606233c0e42b980319b6a18e","session_id":"60883cdf3ead6578cdcbfabc"},{"rt":1036.9450000000652,"stimulus":"img/shoe.jpg","response":"y","image":"img/shoe.jpg","old_or_new":"old","task":"recognition","trial_type":"image-keyboard-response","trial_index":57,"time_elapsed":100820,"internal_node_id":"0.0-3.0-0.27","subject_id":"6061f0665cb1b3cdcecafe93","study_id":"606233c0e42b980319b6a18e","session_id":"60883cdf3ead6578cdcbfabc","correct":true},{"rt":603.0849999999627,"stimulus":"\n      <p>How sure are you?</p>\n      <p>Rate your confidence in your answer from 1 (pure guess) to 5 (very sure) by pressing the corresponding button.</p>\n     ","response":4,"image":"img/shoe.jpg","task":"confidence","old_or_new":"old","trial_type":"html-button-response","trial_index":58,"time_elapsed":101423,"internal_node_id":"0.0-3.0-1.27","subject_id":"6061f0665cb1b3cdcecafe93","study_id":"606233c0e42b980319b6a18e","session_id":"60883cdf3ead6578cdcbfabc"},{"rt":1009.6849999999977,"stimulus":"img/scissors_alternate.jpg","response":"n","image":"img/scissors_alternate.jpg","old_or_new":"new","task":"recognition","trial_type":"image-keyboard-response","trial_index":59,"time_elapsed":102935,"internal_node_id":"0.0-3.0-0.28","subject_id":"6061f0665cb1b3cdcecafe93","study_id":"606233c0e42b980319b6a18e","session_id":"60883cdf3ead6578cdcbfabc","correct":true},{"rt":676.2249999999331,"stimulus":"\n      <p>How sure are you?</p>\n      <p>Rate your confidence in your answer from 1 (pure guess) to 5 (very sure) by pressing the corresponding button.</p>\n     ","response":2,"image":"img/scissors_alternate.jpg","task":"confidence","old_or_new":"new","trial_type":"html-button-response","trial_index":60,"time_elapsed":103612,"internal_node_id":"0.0-3.0-1.28","subject_id":"6061f0665cb1b3cdcecafe93","study_id":"606233c0e42b980319b6a18e","session_id":"60883cdf3ead6578cdcbfabc"},{"rt":1736.6799999999785,"stimulus":"img/scissors.jpg","response":"n","image":"img/scissors.jpg","old_or_new":"old","task":"recognition","trial_type":"image-keyboard-response","trial_index":61,"time_elapsed":105852,"internal_node_id":"0.0-3.0-0.29","subject_id":"6061f0665cb1b3cdcecafe93","study_id":"606233c0e42b980319b6a18e","session_id":"60883cdf3ead6578cdcbfabc","correct":false},{"rt":415.6600000001199,"stimulus":"\n      <p>How sure are you?</p>\n      <p>Rate your confidence in your answer from 1 (pure guess) to 5 (very sure) by pressing the corresponding button.</p>\n     ","response":2,"image":"img/scissors.jpg","task":"confidence","old_or_new":"old","trial_type":"html-button-response","trial_index":62,"time_elapsed":106269,"internal_node_id":"0.0-3.0-1.29","subject_id":"6061f0665cb1b3cdcecafe93","study_id":"606233c0e42b980319b6a18e","session_id":"60883cdf3ead6578cdcbfabc"},{"rt":988.8300000000017,"stimulus":"img/plane.jpg","response":"y","image":"img/plane.jpg","old_or_new":"old","task":"recognition","trial_type":"image-keyboard-response","trial_index":63,"time_elapsed":107764,"internal_node_id":"0.0-3.0-0.30","subject_id":"6061f0665cb1b3cdcecafe93","study_id":"606233c0e42b980319b6a18e","session_id":"60883cdf3ead6578cdcbfabc","correct":true},{"rt":838.1449999999313,"stimulus":"\n      <p>How sure are you?</p>\n      <p>Rate your confidence in your answer from 1 (pure guess) to 5 (very sure) by pressing the corresponding button.</p>\n     ","response":4,"image":"img/plane.jpg","task":"confidence","old_or_new":"old","trial_type":"html-button-response","trial_index":64,"time_elapsed":108603,"internal_node_id":"0.0-3.0-1.30","subject_id":"6061f0665cb1b3cdcecafe93","study_id":"606233c0e42b980319b6a18e","session_id":"60883cdf3ead6578cdcbfabc"},{"rt":912.2500000000873,"stimulus":"img/seashell_alternate.jpg","response":"n","image":"img/seashell_alternate.jpg","old_or_new":"new","task":"recognition","trial_type":"image-keyboard-response","trial_index":65,"time_elapsed":110017,"internal_node_id":"0.0-3.0-0.31","subject_id":"6061f0665cb1b3cdcecafe93","study_id":"606233c0e42b980319b6a18e","session_id":"60883cdf3ead6578cdcbfabc","correct":true},{"rt":1001.4000000001106,"stimulus":"\n      <p>How sure are you?</p>\n      <p>Rate your confidence in your answer from 1 (pure guess) to 5 (very sure) by pressing the corresponding button.</p>\n     ","response":3,"image":"img/seashell_alternate.jpg","task":"confidence","old_or_new":"new","trial_type":"html-button-response","trial_index":66,"time_elapsed":111019,"internal_node_id":"0.0-3.0-1.31","subject_id":"6061f0665cb1b3cdcecafe93","study_id":"606233c0e42b980319b6a18e","session_id":"60883cdf3ead6578cdcbfabc"},{"rt":1281.9150000000373,"stimulus":"img/umbrella_alternate.jpg","response":"n","image":"img/umbrella_alternate.jpg","old_or_new":"new","task":"recognition","trial_type":"image-keyboard-response","trial_index":67,"time_elapsed":112807,"internal_node_id":"0.0-3.0-0.32","subject_id":"6061f0665cb1b3cdcecafe93","study_id":"606233c0e42b980319b6a18e","session_id":"60883cdf3ead6578cdcbfabc","correct":true},{"rt":1031.3900000001013,"stimulus":"\n      <p>How sure are you?</p>\n      <p>Rate your confidence in your answer from 1 (pure guess) to 5 (very sure) by pressing the corresponding button.</p>\n     ","response":1,"image":"img/umbrella_alternate.jpg","task":"confidence","old_or_new":"new","trial_type":"html-button-response","trial_index":68,"time_elapsed":113839,"internal_node_id":"0.0-3.0-1.32","subject_id":"6061f0665cb1b3cdcecafe93","study_id":"606233c0e42b980319b6a18e","session_id":"60883cdf3ead6578cdcbfabc"},{"rt":1429.8799999999173,"stimulus":"img/shirt_alternate.jpg","response":"n","image":"img/shirt_alternate.jpg","old_or_new":"new","task":"recognition","trial_type":"image-keyboard-response","trial_index":69,"time_elapsed":115772,"internal_node_id":"0.0-3.0-0.33","subject_id":"6061f0665cb1b3cdcecafe93","study_id":"606233c0e42b980319b6a18e","session_id":"60883cdf3ead6578cdcbfabc","correct":true},{"rt":1109.3550000000396,"stimulus":"\n      <p>How sure are you?</p>\n      <p>Rate your confidence in your answer from 1 (pure guess) to 5 (very sure) by pressing the corresponding button.</p>\n     ","response":2,"image":"img/shirt_alternate.jpg","task":"confidence","old_or_new":"new","trial_type":"html-button-response","trial_index":70,"time_elapsed":116882,"internal_node_id":"0.0-3.0-1.33","subject_id":"6061f0665cb1b3cdcecafe93","study_id":"606233c0e42b980319b6a18e","session_id":"60883cdf3ead6578cdcbfabc"},{"rt":1399.4900000000198,"stimulus":"img/rolling_pin.jpg","response":"y","image":"img/rolling_pin.jpg","old_or_new":"old","task":"recognition","trial_type":"image-keyboard-response","trial_index":71,"time_elapsed":118783,"internal_node_id":"0.0-3.0-0.34","subject_id":"6061f0665cb1b3cdcecafe93","study_id":"606233c0e42b980319b6a18e","session_id":"60883cdf3ead6578cdcbfabc","correct":true},{"rt":781.1999999998952,"stimulus":"\n      <p>How sure are you?</p>\n      <p>Rate your confidence in your answer from 1 (pure guess) to 5 (very sure) by pressing the corresponding button.</p>\n     ","response":4,"image":"img/rolling_pin.jpg","task":"confidence","old_or_new":"old","trial_type":"html-button-response","trial_index":72,"time_elapsed":119565,"internal_node_id":"0.0-3.0-1.34","subject_id":"6061f0665cb1b3cdcecafe93","study_id":"606233c0e42b980319b6a18e","session_id":"60883cdf3ead6578cdcbfabc"},{"rt":1497.1100000000151,"stimulus":"img/spoon.jpg","response":"n","image":"img/spoon.jpg","old_or_new":"old","task":"recognition","trial_type":"image-keyboard-response","trial_index":73,"time_elapsed":121566,"internal_node_id":"0.0-3.0-0.35","subject_id":"6061f0665cb1b3cdcecafe93","study_id":"606233c0e42b980319b6a18e","session_id":"60883cdf3ead6578cdcbfabc","correct":false},{"rt":730.2999999999447,"stimulus":"\n      <p>How sure are you?</p>\n      <p>Rate your confidence in your answer from 1 (pure guess) to 5 (very sure) by pressing the corresponding button.</p>\n     ","response":2,"image":"img/spoon.jpg","task":"confidence","old_or_new":"old","trial_type":"html-button-response","trial_index":74,"time_elapsed":122297,"internal_node_id":"0.0-3.0-1.35","subject_id":"6061f0665cb1b3cdcecafe93","study_id":"606233c0e42b980319b6a18e","session_id":"60883cdf3ead6578cdcbfabc"},{"rt":1158.3949999999313,"stimulus":"img/shirt.jpg","response":"y","image":"img/shirt.jpg","old_or_new":"old","task":"recognition","trial_type":"image-keyboard-response","trial_index":75,"time_elapsed":123957,"internal_node_id":"0.0-3.0-0.36","subject_id":"6061f0665cb1b3cdcecafe93","study_id":"606233c0e42b980319b6a18e","session_id":"60883cdf3ead6578cdcbfabc","correct":true},{"rt":725.4500000001426,"stimulus":"\n      <p>How sure are you?</p>\n      <p>Rate your confidence in your answer from 1 (pure guess) to 5 (very sure) by pressing the corresponding button.</p>\n     ","response":4,"image":"img/shirt.jpg","task":"confidence","old_or_new":"old","trial_type":"html-button-response","trial_index":76,"time_elapsed":124683,"internal_node_id":"0.0-3.0-1.36","subject_id":"6061f0665cb1b3cdcecafe93","study_id":"606233c0e42b980319b6a18e","session_id":"60883cdf3ead6578cdcbfabc"},{"rt":6851.3000000000175,"stimulus":"img/plate_alternate.jpg","response":"n","image":"img/plate_alternate.jpg","old_or_new":"new","task":"recognition","trial_type":"image-keyboard-response","trial_index":77,"time_elapsed":132037,"internal_node_id":"0.0-3.0-0.37","subject_id":"6061f0665cb1b3cdcecafe93","study_id":"606233c0e42b980319b6a18e","session_id":"60883cdf3ead6578cdcbfabc","correct":true},{"rt":785.9549999998417,"stimulus":"\n      <p>How sure are you?</p>\n      <p>Rate your confidence in your answer from 1 (pure guess) to 5 (very sure) by pressing the corresponding button.</p>\n     ","response":3,"image":"img/plate_alternate.jpg","task":"confidence","old_or_new":"new","trial_type":"html-button-response","trial_index":78,"time_elapsed":132824,"internal_node_id":"0.0-3.0-1.37","subject_id":"6061f0665cb1b3cdcecafe93","study_id":"606233c0e42b980319b6a18e","session_id":"60883cdf3ead6578cdcbfabc"},{"rt":1001.5000000000873,"stimulus":"img/watch.jpg","response":"y","image":"img/watch.jpg","old_or_new":"old","task":"recognition","trial_type":"image-keyboard-response","trial_index":79,"time_elapsed":134329,"internal_node_id":"0.0-3.0-0.38","subject_id":"6061f0665cb1b3cdcecafe93","study_id":"606233c0e42b980319b6a18e","session_id":"60883cdf3ead6578cdcbfabc","correct":true},{"rt":761.0400000000955,"stimulus":"\n      <p>How sure are you?</p>\n      <p>Rate your confidence in your answer from 1 (pure guess) to 5 (very sure) by pressing the corresponding button.</p>\n     ","response":4,"image":"img/watch.jpg","task":"confidence","old_or_new":"old","trial_type":"html-button-response","trial_index":80,"time_elapsed":135091,"internal_node_id":"0.0-3.0-1.38","subject_id":"6061f0665cb1b3cdcecafe93","study_id":"606233c0e42b980319b6a18e","session_id":"60883cdf3ead6578cdcbfabc"},{"rt":704.5200000000186,"stimulus":"img/knife.jpg","response":"y","image":"img/knife.jpg","old_or_new":"old","task":"recognition","trial_type":"image-keyboard-response","trial_index":81,"time_elapsed":136301,"internal_node_id":"0.0-3.0-0.39","subject_id":"6061f0665cb1b3cdcecafe93","study_id":"606233c0e42b980319b6a18e","session_id":"60883cdf3ead6578cdcbfabc","correct":true},{"rt":376.8499999998894,"stimulus":"\n      <p>How sure are you?</p>\n      <p>Rate your confidence in your answer from 1 (pure guess) to 5 (very sure) by pressing the corresponding button.</p>\n     ","response":4,"image":"img/knife.jpg","task":"confidence","old_or_new":"old","trial_type":"html-button-response","trial_index":82,"time_elapsed":136679,"internal_node_id":"0.0-3.0-1.39","subject_id":"6061f0665cb1b3cdcecafe93","study_id":"606233c0e42b980319b6a18e","session_id":"60883cdf3ead6578cdcbfabc"},{"rt":2811.6499999998487,"stimulus":"img/knife_alternate.jpg","response":"n","image":"img/knife_alternate.jpg","old_or_new":"new","task":"recognition","trial_type":"image-keyboard-response","trial_index":83,"time_elapsed":139997,"internal_node_id":"0.0-3.0-0.40","subject_id":"6061f0665cb1b3cdcecafe93","study_id":"606233c0e42b980319b6a18e","session_id":"60883cdf3ead6578cdcbfabc","correct":true},{"rt":1160.3649999999616,"stimulus":"\n      <p>How sure are you?</p>\n      <p>Rate your confidence in your answer from 1 (pure guess) to 5 (very sure) by pressing the corresponding button.</p>\n     ","response":3,"image":"img/knife_alternate.jpg","task":"confidence","old_or_new":"new","trial_type":"html-button-response","trial_index":84,"time_elapsed":141159,"internal_node_id":"0.0-3.0-1.40","subject_id":"6061f0665cb1b3cdcecafe93","study_id":"606233c0e42b980319b6a18e","session_id":"60883cdf3ead6578cdcbfabc"},{"rt":955.9850000000442,"stimulus":"img/parfait_alternate.jpg","response":"n","image":"img/parfait_alternate.jpg","old_or_new":"new","task":"recognition","trial_type":"image-keyboard-response","trial_index":85,"time_elapsed":142620,"internal_node_id":"0.0-3.0-0.41","subject_id":"6061f0665cb1b3cdcecafe93","study_id":"606233c0e42b980319b6a18e","session_id":"60883cdf3ead6578cdcbfabc","correct":true},{"rt":692.7200000000012,"stimulus":"\n      <p>How sure are you?</p>\n      <p>Rate your confidence in your answer from 1 (pure guess) to 5 (very sure) by pressing the corresponding button.</p>\n     ","response":4,"image":"img/parfait_alternate.jpg","task":"confidence","old_or_new":"new","trial_type":"html-button-response","trial_index":86,"time_elapsed":143313,"internal_node_id":"0.0-3.0-1.41","subject_id":"6061f0665cb1b3cdcecafe93","study_id":"606233c0e42b980319b6a18e","session_id":"60883cdf3ead6578cdcbfabc"},{"rt":1039.655000000057,"stimulus":"img/tv_alternate.jpg","response":"n","image":"img/tv_alternate.jpg","old_or_new":"new","task":"recognition","trial_type":"image-keyboard-response","trial_index":87,"time_elapsed":144857,"internal_node_id":"0.0-3.0-0.42","subject_id":"6061f0665cb1b3cdcecafe93","study_id":"606233c0e42b980319b6a18e","session_id":"60883cdf3ead6578cdcbfabc","correct":true},{"rt":651.2900000000081,"stimulus":"\n      <p>How sure are you?</p>\n      <p>Rate your confidence in your answer from 1 (pure guess) to 5 (very sure) by pressing the corresponding button.</p>\n     ","response":4,"image":"img/tv_alternate.jpg","task":"confidence","old_or_new":"new","trial_type":"html-button-response","trial_index":88,"time_elapsed":145509,"internal_node_id":"0.0-3.0-1.42","subject_id":"6061f0665cb1b3cdcecafe93","study_id":"606233c0e42b980319b6a18e","session_id":"60883cdf3ead6578cdcbfabc"},{"rt":1198.8299999998126,"stimulus":"img/wheel_barrow.jpg","response":"y","image":"img/wheel_barrow.jpg","old_or_new":"old","task":"recognition","trial_type":"image-keyboard-response","trial_index":89,"time_elapsed":147214,"internal_node_id":"0.0-3.0-0.43","subject_id":"6061f0665cb1b3cdcecafe93","study_id":"606233c0e42b980319b6a18e","session_id":"60883cdf3ead6578cdcbfabc","correct":true},{"rt":689.1949999999488,"stimulus":"\n      <p>How sure are you?</p>\n      <p>Rate your confidence in your answer from 1 (pure guess) to 5 (very sure) by pressing the corresponding button.</p>\n     ","response":3,"image":"img/wheel_barrow.jpg","task":"confidence","old_or_new":"old","trial_type":"html-button-response","trial_index":90,"time_elapsed":147904,"internal_node_id":"0.0-3.0-1.43","subject_id":"6061f0665cb1b3cdcecafe93","study_id":"606233c0e42b980319b6a18e","session_id":"60883cdf3ead6578cdcbfabc"},{"rt":1028.769999999873,"stimulus":"img/toaster_alternate.jpg","response":"n","image":"img/toaster_alternate.jpg","old_or_new":"new","task":"recognition","trial_type":"image-keyboard-response","trial_index":91,"time_elapsed":149438,"internal_node_id":"0.0-3.0-0.44","subject_id":"6061f0665cb1b3cdcecafe93","study_id":"606233c0e42b980319b6a18e","session_id":"60883cdf3ead6578cdcbfabc","correct":true},{"rt":667.3499999999185,"stimulus":"\n      <p>How sure are you?</p>\n      <p>Rate your confidence in your answer from 1 (pure guess) to 5 (very sure) by pressing the corresponding button.</p>\n     ","response":2,"image":"img/toaster_alternate.jpg","task":"confidence","old_or_new":"new","trial_type":"html-button-response","trial_index":92,"time_elapsed":150107,"internal_node_id":"0.0-3.0-1.44","subject_id":"6061f0665cb1b3cdcecafe93","study_id":"606233c0e42b980319b6a18e","session_id":"60883cdf3ead6578cdcbfabc"},{"rt":1000.4000000001106,"stimulus":"img/toaster.jpg","response":"n","image":"img/toaster.jpg","old_or_new":"old","task":"recognition","trial_type":"image-keyboard-response","trial_index":93,"time_elapsed":151614,"internal_node_id":"0.0-3.0-0.45","subject_id":"6061f0665cb1b3cdcecafe93","study_id":"606233c0e42b980319b6a18e","session_id":"60883cdf3ead6578cdcbfabc","correct":false},{"rt":381.8300000000454,"stimulus":"\n      <p>How sure are you?</p>\n      <p>Rate your confidence in your answer from 1 (pure guess) to 5 (very sure) by pressing the corresponding button.</p>\n     ","response":2,"image":"img/toaster.jpg","task":"confidence","old_or_new":"old","trial_type":"html-button-response","trial_index":94,"time_elapsed":151997,"internal_node_id":"0.0-3.0-1.45","subject_id":"6061f0665cb1b3cdcecafe93","study_id":"606233c0e42b980319b6a18e","session_id":"60883cdf3ead6578cdcbfabc"},{"rt":933.890000000014,"stimulus":"img/watch_alternate.jpg","response":"n","image":"img/watch_alternate.jpg","old_or_new":"new","task":"recognition","trial_type":"image-keyboard-response","trial_index":95,"time_elapsed":153437,"internal_node_id":"0.0-3.0-0.46","subject_id":"6061f0665cb1b3cdcecafe93","study_id":"606233c0e42b980319b6a18e","session_id":"60883cdf3ead6578cdcbfabc","correct":true},{"rt":706.1249999999418,"stimulus":"\n      <p>How sure are you?</p>\n      <p>Rate your confidence in your answer from 1 (pure guess) to 5 (very sure) by pressing the corresponding button.</p>\n     ","response":4,"image":"img/watch_alternate.jpg","task":"confidence","old_or_new":"new","trial_type":"html-button-response","trial_index":96,"time_elapsed":154144,"internal_node_id":"0.0-3.0-1.46","subject_id":"6061f0665cb1b3cdcecafe93","study_id":"606233c0e42b980319b6a18e","session_id":"60883cdf3ead6578cdcbfabc"},{"rt":1067.114999999816,"stimulus":"img/pizza.jpg","response":"y","image":"img/pizza.jpg","old_or_new":"old","task":"recognition","trial_type":"image-keyboard-response","trial_index":97,"time_elapsed":155713,"internal_node_id":"0.0-3.0-0.47","subject_id":"6061f0665cb1b3cdcecafe93","study_id":"606233c0e42b980319b6a18e","session_id":"60883cdf3ead6578cdcbfabc","correct":true},{"rt":345.2250000000349,"stimulus":"\n      <p>How sure are you?</p>\n      <p>Rate your confidence in your answer from 1 (pure guess) to 5 (very sure) by pressing the corresponding button.</p>\n     ","response":4,"image":"img/pizza.jpg","task":"confidence","old_or_new":"old","trial_type":"html-button-response","trial_index":98,"time_elapsed":156059,"internal_node_id":"0.0-3.0-1.47","subject_id":"6061f0665cb1b3cdcecafe93","study_id":"606233c0e42b980319b6a18e","session_id":"60883cdf3ead6578cdcbfabc"}]