[{"success":true,"timeout":false,"failed_images":[],"failed_audio":[],"failed_video":[],"trial_type":"preload","trial_index":0,"time_elapsed":13362,"internal_node_id":"0.0-0.0","subject_id":"6075d330883e3d6205fbbf88","study_id":"607de2837874a824e2e8c6ec","session_id":"60885513221ee5d765440d28"},{"rt":16157.854999999929,"stimulus":"\n      <div style=\"width:800px; text-align: left;\">\n        <p>Welcome to day 2 of the experiment! Thanks for coming back.</p>\n        <p>You will be presented with a series of images. Images will appear one at a time.</p>\n        <p>Each image will remain on the screen until you press either <span style=\"font-weight: bold;\">\"y\" to indicate you have seen the \n        exact same photo the day before or \"n\" to indicate you have not seen the exact same photo the day before.</span></p>\n        <p>After you answer yes (\"y\") or no (\"n\"), you will then be prompted to rate your certainty on a scale of\n        1 (pure guess) to 5 (very sure).</p>\n      </div>\n    ","response":0,"trial_type":"html-button-response","trial_index":1,"time_elapsed":29522,"internal_node_id":"0.0-1.0","subject_id":"6075d330883e3d6205fbbf88","study_id":"607de2837874a824e2e8c6ec","session_id":"60885513221ee5d765440d28"},{"success":true,"trial_type":"fullscreen","trial_index":2,"time_elapsed":32339,"internal_node_id":"0.0-2.0","subject_id":"6075d330883e3d6205fbbf88","study_id":"607de2837874a824e2e8c6ec","session_id":"60885513221ee5d765440d28"},{"rt":2422.5449999999037,"stimulus":"img/folder_alternate.jpg","response":"n","image":"img/folder_alternate.jpg","old_or_new":"new","task":"recognition","trial_type":"image-keyboard-response","trial_index":3,"time_elapsed":34779,"internal_node_id":"0.0-3.0-0.0","subject_id":"6075d330883e3d6205fbbf88","study_id":"607de2837874a824e2e8c6ec","session_id":"60885513221ee5d765440d28","correct":true},{"rt":4135.130000000005,"stimulus":"\n      <p>How sure are you?</p>\n      <p>Rate your confidence in your answer from 1 (pure guess) to 5 (very sure) by pressing the corresponding button.</p>\n     ","response":4,"image":"img/folder_alternate.jpg","task":"confidence","old_or_new":"new","trial_type":"html-button-response","trial_index":4,"time_elapsed":38915,"internal_node_id":"0.0-3.0-1.0","subject_id":"6075d330883e3d6205fbbf88","study_id":"607de2837874a824e2e8c6ec","session_id":"60885513221ee5d765440d28"},{"rt":1364.54000000003,"stimulus":"img/lightbulb.jpg","response":"y","image":"img/lightbulb.jpg","old_or_new":"old","task":"recognition","trial_type":"image-keyboard-response","trial_index":5,"time_elapsed":40784,"internal_node_id":"0.0-3.0-0.1","subject_id":"6075d330883e3d6205fbbf88","study_id":"607de2837874a824e2e8c6ec","session_id":"60885513221ee5d765440d28","correct":true},{"rt":1523.7699999999022,"stimulus":"\n      <p>How sure are you?</p>\n      <p>Rate your confidence in your answer from 1 (pure guess) to 5 (very sure) by pressing the corresponding button.</p>\n     ","response":4,"image":"img/lightbulb.jpg","task":"confidence","old_or_new":"old","trial_type":"html-button-response","trial_index":6,"time_elapsed":42309,"internal_node_id":"0.0-3.0-1.1","subject_id":"6075d330883e3d6205fbbf88","study_id":"607de2837874a824e2e8c6ec","session_id":"60885513221ee5d765440d28"},{"rt":1126.6000000000495,"stimulus":"img/lightbulb_alternate.jpg","response":"n","image":"img/lightbulb_alternate.jpg","old_or_new":"new","task":"recognition","trial_type":"image-keyboard-response","trial_index":7,"time_elapsed":43938,"internal_node_id":"0.0-3.0-0.2","subject_id":"6075d330883e3d6205fbbf88","study_id":"607de2837874a824e2e8c6ec","session_id":"60885513221ee5d765440d28","correct":true},{"rt":1498.0749999999753,"stimulus":"\n      <p>How sure are you?</p>\n      <p>Rate your confidence in your answer from 1 (pure guess) to 5 (very sure) by pressing the corresponding button.</p>\n     ","response":4,"image":"img/lightbulb_alternate.jpg","task":"confidence","old_or_new":"new","trial_type":"html-button-response","trial_index":8,"time_elapsed":45437,"internal_node_id":"0.0-3.0-1.2","subject_id":"6075d330883e3d6205fbbf88","study_id":"607de2837874a824e2e8c6ec","session_id":"60885513221ee5d765440d28"},{"rt":1069.2249999999622,"stimulus":"img/apple.jpg","response":"y","image":"img/apple.jpg","old_or_new":"old","task":"recognition","trial_type":"image-keyboard-response","trial_index":9,"time_elapsed":47010,"internal_node_id":"0.0-3.0-0.3","subject_id":"6075d330883e3d6205fbbf88","study_id":"607de2837874a824e2e8c6ec","session_id":"60885513221ee5d765440d28","correct":true},{"rt":1390.1950000000652,"stimulus":"\n      <p>How sure are you?</p>\n      <p>Rate your confidence in your answer from 1 (pure guess) to 5 (very sure) by pressing the corresponding button.</p>\n     ","response":4,"image":"img/apple.jpg","task":"confidence","old_or_new":"old","trial_type":"html-button-response","trial_index":10,"time_elapsed":48402,"internal_node_id":"0.0-3.0-1.3","subject_id":"6075d330883e3d6205fbbf88","study_id":"607de2837874a824e2e8c6ec","session_id":"60885513221ee5d765440d28"},{"rt":3475.934999999932,"stimulus":"img/hourglass_alternate.jpg","response":"n","image":"img/hourglass_alternate.jpg","old_or_new":"new","task":"recognition","trial_type":"image-keyboard-response","trial_index":11,"time_elapsed":52384,"internal_node_id":"0.0-3.0-0.4","subject_id":"6075d330883e3d6205fbbf88","study_id":"607de2837874a824e2e8c6ec","session_id":"60885513221ee5d765440d28","correct":true},{"rt":2683.1150000000416,"stimulus":"\n      <p>How sure are you?</p>\n      <p>Rate your confidence in your answer from 1 (pure guess) to 5 (very sure) by pressing the corresponding button.</p>\n     ","response":1,"image":"img/hourglass_alternate.jpg","task":"confidence","old_or_new":"new","trial_type":"html-button-response","trial_index":12,"time_elapsed":55068,"internal_node_id":"0.0-3.0-1.4","subject_id":"6075d330883e3d6205fbbf88","study_id":"607de2837874a824e2e8c6ec","session_id":"60885513221ee5d765440d28"},{"rt":1202.7450000000463,"stimulus":"img/hat.jpg","response":"y","image":"img/hat.jpg","old_or_new":"old","task":"recognition","trial_type":"image-keyboard-response","trial_index":13,"time_elapsed":56781,"internal_node_id":"0.0-3.0-0.5","subject_id":"6075d330883e3d6205fbbf88","study_id":"607de2837874a824e2e8c6ec","session_id":"60885513221ee5d765440d28","correct":true},{"rt":1758.9749999999694,"stimulus":"\n      <p>How sure are you?</p>\n      <p>Rate your confidence in your answer from 1 (pure guess) to 5 (very sure) by pressing the corresponding button.</p>\n     ","response":4,"image":"img/hat.jpg","task":"confidence","old_or_new":"old","trial_type":"html-button-response","trial_index":14,"time_elapsed":58542,"internal_node_id":"0.0-3.0-1.5","subject_id":"6075d330883e3d6205fbbf88","study_id":"607de2837874a824e2e8c6ec","session_id":"60885513221ee5d765440d28"},{"rt":1561.360000000037,"stimulus":"img/calculator_alternate.jpg","response":"n","image":"img/calculator_alternate.jpg","old_or_new":"new","task":"recognition","trial_type":"image-keyboard-response","trial_index":15,"time_elapsed":60609,"internal_node_id":"0.0-3.0-0.6","subject_id":"6075d330883e3d6205fbbf88","study_id":"607de2837874a824e2e8c6ec","session_id":"60885513221ee5d765440d28","correct":true},{"rt":1123.9150000000154,"stimulus":"\n      <p>How sure are you?</p>\n      <p>Rate your confidence in your answer from 1 (pure guess) to 5 (very sure) by pressing the corresponding button.</p>\n     ","response":3,"image":"img/calculator_alternate.jpg","task":"confidence","old_or_new":"new","trial_type":"html-button-response","trial_index":16,"time_elapsed":61734,"internal_node_id":"0.0-3.0-1.6","subject_id":"6075d330883e3d6205fbbf88","study_id":"607de2837874a824e2e8c6ec","session_id":"60885513221ee5d765440d28"},{"rt":1423.9800000000323,"stimulus":"img/key.jpg","response":"y","image":"img/key.jpg","old_or_new":"old","task":"recognition","trial_type":"image-keyboard-response","trial_index":17,"time_elapsed":63660,"internal_node_id":"0.0-3.0-0.7","subject_id":"6075d330883e3d6205fbbf88","study_id":"607de2837874a824e2e8c6ec","session_id":"60885513221ee5d765440d28","correct":true},{"rt":2078.3199999999633,"stimulus":"\n      <p>How sure are you?</p>\n      <p>Rate your confidence in your answer from 1 (pure guess) to 5 (very sure) by pressing the corresponding button.</p>\n     ","response":4,"image":"img/key.jpg","task":"confidence","old_or_new":"old","trial_type":"html-button-response","trial_index":18,"time_elapsed":65739,"internal_node_id":"0.0-3.0-1.7","subject_id":"6075d330883e3d6205fbbf88","study_id":"607de2837874a824e2e8c6ec","session_id":"60885513221ee5d765440d28"},{"rt":1182.1199999999371,"stimulus":"img/chair_alternate.jpg","response":"n","image":"img/chair_alternate.jpg","old_or_new":"new","task":"recognition","trial_type":"image-keyboard-response","trial_index":19,"time_elapsed":67423,"internal_node_id":"0.0-3.0-0.8","subject_id":"6075d330883e3d6205fbbf88","study_id":"607de2837874a824e2e8c6ec","session_id":"60885513221ee5d765440d28","correct":true},{"rt":1223.6699999999691,"stimulus":"\n      <p>How sure are you?</p>\n      <p>Rate your confidence in your answer from 1 (pure guess) to 5 (very sure) by pressing the corresponding button.</p>\n     ","response":3,"image":"img/chair_alternate.jpg","task":"confidence","old_or_new":"new","trial_type":"html-button-response","trial_index":20,"time_elapsed":68648,"internal_node_id":"0.0-3.0-1.8","subject_id":"6075d330883e3d6205fbbf88","study_id":"607de2837874a824e2e8c6ec","session_id":"60885513221ee5d765440d28"},{"rt":1101.3700000000827,"stimulus":"img/leaf_alternate.jpg","response":"n","image":"img/leaf_alternate.jpg","old_or_new":"new","task":"recognition","trial_type":"image-keyboard-response","trial_index":21,"time_elapsed":70252,"internal_node_id":"0.0-3.0-0.9","subject_id":"6075d330883e3d6205fbbf88","study_id":"607de2837874a824e2e8c6ec","session_id":"60885513221ee5d765440d28","correct":true},{"rt":1021.7199999999575,"stimulus":"\n      <p>How sure are you?</p>\n      <p>Rate your confidence in your answer from 1 (pure guess) to 5 (very sure) by pressing the corresponding button.</p>\n     ","response":3,"image":"img/leaf_alternate.jpg","task":"confidence","old_or_new":"new","trial_type":"html-button-response","trial_index":22,"time_elapsed":71275,"internal_node_id":"0.0-3.0-1.9","subject_id":"6075d330883e3d6205fbbf88","study_id":"607de2837874a824e2e8c6ec","session_id":"60885513221ee5d765440d28"},{"rt":977.2950000000274,"stimulus":"img/basket.jpg","response":"y","image":"img/basket.jpg","old_or_new":"old","task":"recognition","trial_type":"image-keyboard-response","trial_index":23,"time_elapsed":72754,"internal_node_id":"0.0-3.0-0.10","subject_id":"6075d330883e3d6205fbbf88","study_id":"607de2837874a824e2e8c6ec","session_id":"60885513221ee5d765440d28","correct":true},{"rt":1325.9199999999983,"stimulus":"\n      <p>How sure are you?</p>\n      <p>Rate your confidence in your answer from 1 (pure guess) to 5 (very sure) by pressing the corresponding button.</p>\n     ","response":4,"image":"img/basket.jpg","task":"confidence","old_or_new":"old","trial_type":"html-button-response","trial_index":24,"time_elapsed":74081,"internal_node_id":"0.0-3.0-1.10","subject_id":"6075d330883e3d6205fbbf88","study_id":"607de2837874a824e2e8c6ec","session_id":"60885513221ee5d765440d28"},{"rt":11529.63999999997,"stimulus":"img/grapes_alternate.jpg","response":"n","image":"img/grapes_alternate.jpg","old_or_new":"new","task":"recognition","trial_type":"image-keyboard-response","trial_index":25,"time_elapsed":86113,"internal_node_id":"0.0-3.0-0.11","subject_id":"6075d330883e3d6205fbbf88","study_id":"607de2837874a824e2e8c6ec","session_id":"60885513221ee5d765440d28","correct":true},{"rt":1630.9899999999907,"stimulus":"\n      <p>How sure are you?</p>\n      <p>Rate your confidence in your answer from 1 (pure guess) to 5 (very sure) by pressing the corresponding button.</p>\n     ","response":1,"image":"img/grapes_alternate.jpg","task":"confidence","old_or_new":"new","trial_type":"html-button-response","trial_index":26,"time_elapsed":87746,"internal_node_id":"0.0-3.0-1.11","subject_id":"6075d330883e3d6205fbbf88","study_id":"607de2837874a824e2e8c6ec","session_id":"60885513221ee5d765440d28"},{"rt":2712.854999999996,"stimulus":"img/calculator.jpg","response":"y","image":"img/calculator.jpg","old_or_new":"old","task":"recognition","trial_type":"image-keyboard-response","trial_index":27,"time_elapsed":90974,"internal_node_id":"0.0-3.0-0.12","subject_id":"6075d330883e3d6205fbbf88","study_id":"607de2837874a824e2e8c6ec","session_id":"60885513221ee5d765440d28","correct":true},{"rt":1133.789999999979,"stimulus":"\n      <p>How sure are you?</p>\n      <p>Rate your confidence in your answer from 1 (pure guess) to 5 (very sure) by pressing the corresponding button.</p>\n     ","response":4,"image":"img/calculator.jpg","task":"confidence","old_or_new":"old","trial_type":"html-button-response","trial_index":28,"time_elapsed":92109,"internal_node_id":"0.0-3.0-1.12","subject_id":"6075d330883e3d6205fbbf88","study_id":"607de2837874a824e2e8c6ec","session_id":"60885513221ee5d765440d28"},{"rt":1029.6400000000867,"stimulus":"img/bowl.jpg","response":"y","image":"img/bowl.jpg","old_or_new":"old","task":"recognition","trial_type":"image-keyboard-response","trial_index":29,"time_elapsed":93640,"internal_node_id":"0.0-3.0-0.13","subject_id":"6075d330883e3d6205fbbf88","study_id":"607de2837874a824e2e8c6ec","session_id":"60885513221ee5d765440d28","correct":true},{"rt":1152.3600000000442,"stimulus":"\n      <p>How sure are you?</p>\n      <p>Rate your confidence in your answer from 1 (pure guess) to 5 (very sure) by pressing the corresponding button.</p>\n     ","response":4,"image":"img/bowl.jpg","task":"confidence","old_or_new":"old","trial_type":"html-button-response","trial_index":30,"time_elapsed":94794,"internal_node_id":"0.0-3.0-1.13","subject_id":"6075d330883e3d6205fbbf88","study_id":"607de2837874a824e2e8c6ec","session_id":"60885513221ee5d765440d28"},{"rt":1004.9749999999476,"stimulus":"img/dryer.jpg","response":"y","image":"img/dryer.jpg","old_or_new":"old","task":"recognition","trial_type":"image-keyboard-response","trial_index":31,"time_elapsed":96314,"internal_node_id":"0.0-3.0-0.14","subject_id":"6075d330883e3d6205fbbf88","study_id":"607de2837874a824e2e8c6ec","session_id":"60885513221ee5d765440d28","correct":true},{"rt":1304.8650000000634,"stimulus":"\n      <p>How sure are you?</p>\n      <p>Rate your confidence in your answer from 1 (pure guess) to 5 (very sure) by pressing the corresponding button.</p>\n     ","response":4,"image":"img/dryer.jpg","task":"confidence","old_or_new":"old","trial_type":"html-button-response","trial_index":32,"time_elapsed":97620,"internal_node_id":"0.0-3.0-1.14","subject_id":"6075d330883e3d6205fbbf88","study_id":"607de2837874a824e2e8c6ec","session_id":"60885513221ee5d765440d28"},{"rt":980.6050000000832,"stimulus":"img/coin.jpg","response":"y","image":"img/coin.jpg","old_or_new":"old","task":"recognition","trial_type":"image-keyboard-response","trial_index":33,"time_elapsed":99108,"internal_node_id":"0.0-3.0-0.15","subject_id":"6075d330883e3d6205fbbf88","study_id":"607de2837874a824e2e8c6ec","session_id":"60885513221ee5d765440d28","correct":true},{"rt":820.8900000000867,"stimulus":"\n      <p>How sure are you?</p>\n      <p>Rate your confidence in your answer from 1 (pure guess) to 5 (very sure) by pressing the corresponding button.</p>\n     ","response":4,"image":"img/coin.jpg","task":"confidence","old_or_new":"old","trial_type":"html-button-response","trial_index":34,"time_elapsed":99930,"internal_node_id":"0.0-3.0-1.15","subject_id":"6075d330883e3d6205fbbf88","study_id":"607de2837874a824e2e8c6ec","session_id":"60885513221ee5d765440d28"},{"rt":981.8149999999878,"stimulus":"img/globe.jpg","response":"y","image":"img/globe.jpg","old_or_new":"old","task":"recognition","trial_type":"image-keyboard-response","trial_index":35,"time_elapsed":101420,"internal_node_id":"0.0-3.0-0.16","subject_id":"6075d330883e3d6205fbbf88","study_id":"607de2837874a824e2e8c6ec","session_id":"60885513221ee5d765440d28","correct":true},{"rt":783.0299999999406,"stimulus":"\n      <p>How sure are you?</p>\n      <p>Rate your confidence in your answer from 1 (pure guess) to 5 (very sure) by pressing the corresponding button.</p>\n     ","response":4,"image":"img/globe.jpg","task":"confidence","old_or_new":"old","trial_type":"html-button-response","trial_index":36,"time_elapsed":102204,"internal_node_id":"0.0-3.0-1.16","subject_id":"6075d330883e3d6205fbbf88","study_id":"607de2837874a824e2e8c6ec","session_id":"60885513221ee5d765440d28"},{"rt":1875.2699999999895,"stimulus":"img/key_alternate.jpg","response":"n","image":"img/key_alternate.jpg","old_or_new":"new","task":"recognition","trial_type":"image-keyboard-response","trial_index":37,"time_elapsed":104595,"internal_node_id":"0.0-3.0-0.17","subject_id":"6075d330883e3d6205fbbf88","study_id":"607de2837874a824e2e8c6ec","session_id":"60885513221ee5d765440d28","correct":true},{"rt":1422.9199999999837,"stimulus":"\n      <p>How sure are you?</p>\n      <p>Rate your confidence in your answer from 1 (pure guess) to 5 (very sure) by pressing the corresponding button.</p>\n     ","response":2,"image":"img/key_alternate.jpg","task":"confidence","old_or_new":"new","trial_type":"html-button-response","trial_index":38,"time_elapsed":106019,"internal_node_id":"0.0-3.0-1.17","subject_id":"6075d330883e3d6205fbbf88","study_id":"607de2837874a824e2e8c6ec","session_id":"60885513221ee5d765440d28"},{"rt":918.8450000000448,"stimulus":"img/backpack.jpg","response":"y","image":"img/backpack.jpg","old_or_new":"old","task":"recognition","trial_type":"image-keyboard-response","trial_index":39,"time_elapsed":107451,"internal_node_id":"0.0-3.0-0.18","subject_id":"6075d330883e3d6205fbbf88","study_id":"607de2837874a824e2e8c6ec","session_id":"60885513221ee5d765440d28","correct":true},{"rt":1690.8549999999377,"stimulus":"\n      <p>How sure are you?</p>\n      <p>Rate your confidence in your answer from 1 (pure guess) to 5 (very sure) by pressing the corresponding button.</p>\n     ","response":4,"image":"img/backpack.jpg","task":"confidence","old_or_new":"old","trial_type":"html-button-response","trial_index":40,"time_elapsed":109143,"internal_node_id":"0.0-3.0-1.18","subject_id":"6075d330883e3d6205fbbf88","study_id":"607de2837874a824e2e8c6ec","session_id":"60885513221ee5d765440d28"},{"rt":1136.9400000000896,"stimulus":"img/hairbrush.jpg","response":"n","image":"img/hairbrush.jpg","old_or_new":"old","task":"recognition","trial_type":"image-keyboard-response","trial_index":41,"time_elapsed":110791,"internal_node_id":"0.0-3.0-0.19","subject_id":"6075d330883e3d6205fbbf88","study_id":"607de2837874a824e2e8c6ec","session_id":"60885513221ee5d765440d28","correct":false},{"rt":1204.1500000000378,"stimulus":"\n      <p>How sure are you?</p>\n      <p>Rate your confidence in your answer from 1 (pure guess) to 5 (very sure) by pressing the corresponding button.</p>\n     ","response":2,"image":"img/hairbrush.jpg","task":"confidence","old_or_new":"old","trial_type":"html-button-response","trial_index":42,"time_elapsed":111996,"internal_node_id":"0.0-3.0-1.19","subject_id":"6075d330883e3d6205fbbf88","study_id":"607de2837874a824e2e8c6ec","session_id":"60885513221ee5d765440d28"},{"rt":1490.9999999999854,"stimulus":"img/drum_alternate.jpg","response":"n","image":"img/drum_alternate.jpg","old_or_new":"new","task":"recognition","trial_type":"image-keyboard-response","trial_index":43,"time_elapsed":113998,"internal_node_id":"0.0-3.0-0.20","subject_id":"6075d330883e3d6205fbbf88","study_id":"607de2837874a824e2e8c6ec","session_id":"60885513221ee5d765440d28","correct":true},{"rt":1408.9450000000215,"stimulus":"\n      <p>How sure are you?</p>\n      <p>Rate your confidence in your answer from 1 (pure guess) to 5 (very sure) by pressing the corresponding button.</p>\n     ","response":2,"image":"img/drum_alternate.jpg","task":"confidence","old_or_new":"new","trial_type":"html-button-response","trial_index":44,"time_elapsed":115408,"internal_node_id":"0.0-3.0-1.20","subject_id":"6075d330883e3d6205fbbf88","study_id":"607de2837874a824e2e8c6ec","session_id":"60885513221ee5d765440d28"},{"rt":1144,"stimulus":"img/folder.jpg","response":"y","image":"img/folder.jpg","old_or_new":"old","task":"recognition","trial_type":"image-keyboard-response","trial_index":45,"time_elapsed":117064,"internal_node_id":"0.0-3.0-0.21","subject_id":"6075d330883e3d6205fbbf88","study_id":"607de2837874a824e2e8c6ec","session_id":"60885513221ee5d765440d28","correct":true},{"rt":1345.2149999999383,"stimulus":"\n      <p>How sure are you?</p>\n      <p>Rate your confidence in your answer from 1 (pure guess) to 5 (very sure) by pressing the corresponding button.</p>\n     ","response":4,"image":"img/folder.jpg","task":"confidence","old_or_new":"old","trial_type":"html-button-response","trial_index":46,"time_elapsed":118410,"internal_node_id":"0.0-3.0-1.21","subject_id":"6075d330883e3d6205fbbf88","study_id":"607de2837874a824e2e8c6ec","session_id":"60885513221ee5d765440d28"},{"rt":1468.4500000000844,"stimulus":"img/hairbrush_alternate.jpg","response":"n","image":"img/hairbrush_alternate.jpg","old_or_new":"new","task":"recognition","trial_type":"image-keyboard-response","trial_index":47,"time_elapsed":120384,"internal_node_id":"0.0-3.0-0.22","subject_id":"6075d330883e3d6205fbbf88","study_id":"607de2837874a824e2e8c6ec","session_id":"60885513221ee5d765440d28","correct":true},{"rt":2137.920000000013,"stimulus":"\n      <p>How sure are you?</p>\n      <p>Rate your confidence in your answer from 1 (pure guess) to 5 (very sure) by pressing the corresponding button.</p>\n     ","response":3,"image":"img/hairbrush_alternate.jpg","task":"confidence","old_or_new":"new","trial_type":"html-button-response","trial_index":48,"time_elapsed":122523,"internal_node_id":"0.0-3.0-1.22","subject_id":"6075d330883e3d6205fbbf88","study_id":"607de2837874a824e2e8c6ec","session_id":"60885513221ee5d765440d28"},{"rt":1859.4800000000832,"stimulus":"img/helmet_alternate.jpg","response":"n","image":"img/helmet_alternate.jpg","old_or_new":"new","task":"recognition","trial_type":"image-keyboard-response","trial_index":49,"time_elapsed":124888,"internal_node_id":"0.0-3.0-0.23","subject_id":"6075d330883e3d6205fbbf88","study_id":"607de2837874a824e2e8c6ec","session_id":"60885513221ee5d765440d28","correct":true},{"rt":1230.4149999999936,"stimulus":"\n      <p>How sure are you?</p>\n      <p>Rate your confidence in your answer from 1 (pure guess) to 5 (very sure) by pressing the corresponding button.</p>\n     ","response":4,"image":"img/helmet_alternate.jpg","task":"confidence","old_or_new":"new","trial_type":"html-button-response","trial_index":50,"time_elapsed":126119,"internal_node_id":"0.0-3.0-1.23","subject_id":"6075d330883e3d6205fbbf88","study_id":"607de2837874a824e2e8c6ec","session_id":"60885513221ee5d765440d28"},{"rt":1100.7650000000285,"stimulus":"img/camera_alternate.jpg","response":"n","image":"img/camera_alternate.jpg","old_or_new":"new","task":"recognition","trial_type":"image-keyboard-response","trial_index":51,"time_elapsed":127721,"internal_node_id":"0.0-3.0-0.24","subject_id":"6075d330883e3d6205fbbf88","study_id":"607de2837874a824e2e8c6ec","session_id":"60885513221ee5d765440d28","correct":true},{"rt":1217.480000000025,"stimulus":"\n      <p>How sure are you?</p>\n      <p>Rate your confidence in your answer from 1 (pure guess) to 5 (very sure) by pressing the corresponding button.</p>\n     ","response":4,"image":"img/camera_alternate.jpg","task":"confidence","old_or_new":"new","trial_type":"html-button-response","trial_index":52,"time_elapsed":128940,"internal_node_id":"0.0-3.0-1.24","subject_id":"6075d330883e3d6205fbbf88","study_id":"607de2837874a824e2e8c6ec","session_id":"60885513221ee5d765440d28"},{"rt":942.2949999999546,"stimulus":"img/hair_tie.jpg","response":"y","image":"img/hair_tie.jpg","old_or_new":"old","task":"recognition","trial_type":"image-keyboard-response","trial_index":53,"time_elapsed":130385,"internal_node_id":"0.0-3.0-0.25","subject_id":"6075d330883e3d6205fbbf88","study_id":"607de2837874a824e2e8c6ec","session_id":"60885513221ee5d765440d28","correct":true},{"rt":1230.6899999999732,"stimulus":"\n      <p>How sure are you?</p>\n      <p>Rate your confidence in your answer from 1 (pure guess) to 5 (very sure) by pressing the corresponding button.</p>\n     ","response":4,"image":"img/hair_tie.jpg","task":"confidence","old_or_new":"old","trial_type":"html-button-response","trial_index":54,"time_elapsed":131617,"internal_node_id":"0.0-3.0-1.25","subject_id":"6075d330883e3d6205fbbf88","study_id":"607de2837874a824e2e8c6ec","session_id":"60885513221ee5d765440d28"},{"rt":1848.9650000000256,"stimulus":"img/fan_alternate.jpg","response":"n","image":"img/fan_alternate.jpg","old_or_new":"new","task":"recognition","trial_type":"image-keyboard-response","trial_index":55,"time_elapsed":133969,"internal_node_id":"0.0-3.0-0.26","subject_id":"6075d330883e3d6205fbbf88","study_id":"607de2837874a824e2e8c6ec","session_id":"60885513221ee5d765440d28","correct":true},{"rt":1138.500000000029,"stimulus":"\n      <p>How sure are you?</p>\n      <p>Rate your confidence in your answer from 1 (pure guess) to 5 (very sure) by pressing the corresponding button.</p>\n     ","response":3,"image":"img/fan_alternate.jpg","task":"confidence","old_or_new":"new","trial_type":"html-button-response","trial_index":56,"time_elapsed":135108,"internal_node_id":"0.0-3.0-1.26","subject_id":"6075d330883e3d6205fbbf88","study_id":"607de2837874a824e2e8c6ec","session_id":"60885513221ee5d765440d28"},{"rt":7398.0500000000175,"stimulus":"img/leaf.jpg","response":"y","image":"img/leaf.jpg","old_or_new":"old","task":"recognition","trial_type":"image-keyboard-response","trial_index":57,"time_elapsed":143020,"internal_node_id":"0.0-3.0-0.27","subject_id":"6075d330883e3d6205fbbf88","study_id":"607de2837874a824e2e8c6ec","session_id":"60885513221ee5d765440d28","correct":true},{"rt":1076.4899999999325,"stimulus":"\n      <p>How sure are you?</p>\n      <p>Rate your confidence in your answer from 1 (pure guess) to 5 (very sure) by pressing the corresponding button.</p>\n     ","response":4,"image":"img/leaf.jpg","task":"confidence","old_or_new":"old","trial_type":"html-button-response","trial_index":58,"time_elapsed":144098,"internal_node_id":"0.0-3.0-1.27","subject_id":"6075d330883e3d6205fbbf88","study_id":"607de2837874a824e2e8c6ec","session_id":"60885513221ee5d765440d28"},{"rt":1225.765000000043,"stimulus":"img/ladder_alternate.jpg","response":"n","image":"img/ladder_alternate.jpg","old_or_new":"new","task":"recognition","trial_type":"image-keyboard-response","trial_index":59,"time_elapsed":145837,"internal_node_id":"0.0-3.0-0.28","subject_id":"6075d330883e3d6205fbbf88","study_id":"607de2837874a824e2e8c6ec","session_id":"60885513221ee5d765440d28","correct":true},{"rt":939.8099999999686,"stimulus":"\n      <p>How sure are you?</p>\n      <p>Rate your confidence in your answer from 1 (pure guess) to 5 (very sure) by pressing the corresponding button.</p>\n     ","response":2,"image":"img/ladder_alternate.jpg","task":"confidence","old_or_new":"new","trial_type":"html-button-response","trial_index":60,"time_elapsed":146778,"internal_node_id":"0.0-3.0-1.28","subject_id":"6075d330883e3d6205fbbf88","study_id":"607de2837874a824e2e8c6ec","session_id":"60885513221ee5d765440d28"},{"rt":1148.3050000000512,"stimulus":"img/grapes.jpg","response":"y","image":"img/grapes.jpg","old_or_new":"old","task":"recognition","trial_type":"image-keyboard-response","trial_index":61,"time_elapsed":148428,"internal_node_id":"0.0-3.0-0.29","subject_id":"6075d330883e3d6205fbbf88","study_id":"607de2837874a824e2e8c6ec","session_id":"60885513221ee5d765440d28","correct":true},{"rt":1589.4949999999662,"stimulus":"\n      <p>How sure are you?</p>\n      <p>Rate your confidence in your answer from 1 (pure guess) to 5 (very sure) by pressing the corresponding button.</p>\n     ","response":4,"image":"img/grapes.jpg","task":"confidence","old_or_new":"old","trial_type":"html-button-response","trial_index":62,"time_elapsed":150019,"internal_node_id":"0.0-3.0-1.29","subject_id":"6075d330883e3d6205fbbf88","study_id":"607de2837874a824e2e8c6ec","session_id":"60885513221ee5d765440d28"},{"rt":1048.3850000000384,"stimulus":"img/glasses.jpg","response":"y","image":"img/glasses.jpg","old_or_new":"old","task":"recognition","trial_type":"image-keyboard-response","trial_index":63,"time_elapsed":151579,"internal_node_id":"0.0-3.0-0.30","subject_id":"6075d330883e3d6205fbbf88","study_id":"607de2837874a824e2e8c6ec","session_id":"60885513221ee5d765440d28","correct":true},{"rt":730.9150000000955,"stimulus":"\n      <p>How sure are you?</p>\n      <p>Rate your confidence in your answer from 1 (pure guess) to 5 (very sure) by pressing the corresponding button.</p>\n     ","response":4,"image":"img/glasses.jpg","task":"confidence","old_or_new":"old","trial_type":"html-button-response","trial_index":64,"time_elapsed":152311,"internal_node_id":"0.0-3.0-1.30","subject_id":"6075d330883e3d6205fbbf88","study_id":"607de2837874a824e2e8c6ec","session_id":"60885513221ee5d765440d28"},{"rt":1059.6150000000198,"stimulus":"img/fan.jpg","response":"y","image":"img/fan.jpg","old_or_new":"old","task":"recognition","trial_type":"image-keyboard-response","trial_index":65,"time_elapsed":153887,"internal_node_id":"0.0-3.0-0.31","subject_id":"6075d330883e3d6205fbbf88","study_id":"607de2837874a824e2e8c6ec","session_id":"60885513221ee5d765440d28","correct":true},{"rt":1552.884999999951,"stimulus":"\n      <p>How sure are you?</p>\n      <p>Rate your confidence in your answer from 1 (pure guess) to 5 (very sure) by pressing the corresponding button.</p>\n     ","response":4,"image":"img/fan.jpg","task":"confidence","old_or_new":"old","trial_type":"html-button-response","trial_index":66,"time_elapsed":155441,"internal_node_id":"0.0-3.0-1.31","subject_id":"6075d330883e3d6205fbbf88","study_id":"607de2837874a824e2e8c6ec","session_id":"60885513221ee5d765440d28"},{"rt":1114.8000000000466,"stimulus":"img/apple_alternate.jpg","response":"n","image":"img/apple_alternate.jpg","old_or_new":"new","task":"recognition","trial_type":"image-keyboard-response","trial_index":67,"time_elapsed":157061,"internal_node_id":"0.0-3.0-0.32","subject_id":"6075d330883e3d6205fbbf88","study_id":"607de2837874a824e2e8c6ec","session_id":"60885513221ee5d765440d28","correct":true},{"rt":1072.354999999894,"stimulus":"\n      <p>How sure are you?</p>\n      <p>Rate your confidence in your answer from 1 (pure guess) to 5 (very sure) by pressing the corresponding button.</p>\n     ","response":3,"image":"img/apple_alternate.jpg","task":"confidence","old_or_new":"new","trial_type":"html-button-response","trial_index":68,"time_elapsed":158134,"internal_node_id":"0.0-3.0-1.32","subject_id":"6075d330883e3d6205fbbf88","study_id":"607de2837874a824e2e8c6ec","session_id":"60885513221ee5d765440d28"},{"rt":1101.8999999999942,"stimulus":"img/dryer_alternate.jpg","response":"n","image":"img/dryer_alternate.jpg","old_or_new":"new","task":"recognition","trial_type":"image-keyboard-response","trial_index":69,"time_elapsed":159743,"internal_node_id":"0.0-3.0-0.33","subject_id":"6075d330883e3d6205fbbf88","study_id":"607de2837874a824e2e8c6ec","session_id":"60885513221ee5d765440d28","correct":true},{"rt":1412.6049999999814,"stimulus":"\n      <p>How sure are you?</p>\n      <p>Rate your confidence in your answer from 1 (pure guess) to 5 (very sure) by pressing the corresponding button.</p>\n     ","response":4,"image":"img/dryer_alternate.jpg","task":"confidence","old_or_new":"new","trial_type":"html-button-response","trial_index":70,"time_elapsed":161159,"internal_node_id":"0.0-3.0-1.33","subject_id":"6075d330883e3d6205fbbf88","study_id":"607de2837874a824e2e8c6ec","session_id":"60885513221ee5d765440d28"},{"rt":1189.3199999999779,"stimulus":"img/hair_tie_alternate.jpg","response":"n","image":"img/hair_tie_alternate.jpg","old_or_new":"new","task":"recognition","trial_type":"image-keyboard-response","trial_index":71,"time_elapsed":162856,"internal_node_id":"0.0-3.0-0.34","subject_id":"6075d330883e3d6205fbbf88","study_id":"607de2837874a824e2e8c6ec","session_id":"60885513221ee5d765440d28","correct":true},{"rt":1348.0149999999267,"stimulus":"\n      <p>How sure are you?</p>\n      <p>Rate your confidence in your answer from 1 (pure guess) to 5 (very sure) by pressing the corresponding button.</p>\n     ","response":4,"image":"img/hair_tie_alternate.jpg","task":"confidence","old_or_new":"new","trial_type":"html-button-response","trial_index":72,"time_elapsed":164205,"internal_node_id":"0.0-3.0-1.34","subject_id":"6075d330883e3d6205fbbf88","study_id":"607de2837874a824e2e8c6ec","session_id":"60885513221ee5d765440d28"},{"rt":924.6500000000524,"stimulus":"img/chair.jpg","response":"y","image":"img/chair.jpg","old_or_new":"old","task":"recognition","trial_type":"image-keyboard-response","trial_index":73,"time_elapsed":165634,"internal_node_id":"0.0-3.0-0.35","subject_id":"6075d330883e3d6205fbbf88","study_id":"607de2837874a824e2e8c6ec","session_id":"60885513221ee5d765440d28","correct":true},{"rt":1665.9649999999092,"stimulus":"\n      <p>How sure are you?</p>\n      <p>Rate your confidence in your answer from 1 (pure guess) to 5 (very sure) by pressing the corresponding button.</p>\n     ","response":4,"image":"img/chair.jpg","task":"confidence","old_or_new":"old","trial_type":"html-button-response","trial_index":74,"time_elapsed":167302,"internal_node_id":"0.0-3.0-1.35","subject_id":"6075d330883e3d6205fbbf88","study_id":"607de2837874a824e2e8c6ec","session_id":"60885513221ee5d765440d28"},{"rt":1079.5999999999185,"stimulus":"img/bowl_alternate.jpg","response":"n","image":"img/bowl_alternate.jpg","old_or_new":"new","task":"recognition","trial_type":"image-keyboard-response","trial_index":75,"time_elapsed":168899,"internal_node_id":"0.0-3.0-0.36","subject_id":"6075d330883e3d6205fbbf88","study_id":"607de2837874a824e2e8c6ec","session_id":"60885513221ee5d765440d28","correct":true},{"rt":755.2350000001024,"stimulus":"\n      <p>How sure are you?</p>\n      <p>Rate your confidence in your answer from 1 (pure guess) to 5 (very sure) by pressing the corresponding button.</p>\n     ","response":4,"image":"img/bowl_alternate.jpg","task":"confidence","old_or_new":"new","trial_type":"html-button-response","trial_index":76,"time_elapsed":169655,"internal_node_id":"0.0-3.0-1.36","subject_id":"6075d330883e3d6205fbbf88","study_id":"607de2837874a824e2e8c6ec","session_id":"60885513221ee5d765440d28"},{"rt":995.9400000000023,"stimulus":"img/hourglass.jpg","response":"y","image":"img/hourglass.jpg","old_or_new":"old","task":"recognition","trial_type":"image-keyboard-response","trial_index":77,"time_elapsed":171163,"internal_node_id":"0.0-3.0-0.37","subject_id":"6075d330883e3d6205fbbf88","study_id":"607de2837874a824e2e8c6ec","session_id":"60885513221ee5d765440d28","correct":true},{"rt":690.5649999999732,"stimulus":"\n      <p>How sure are you?</p>\n      <p>Rate your confidence in your answer from 1 (pure guess) to 5 (very sure) by pressing the corresponding button.</p>\n     ","response":4,"image":"img/hourglass.jpg","task":"confidence","old_or_new":"old","trial_type":"html-button-response","trial_index":78,"time_elapsed":171855,"internal_node_id":"0.0-3.0-1.37","subject_id":"6075d330883e3d6205fbbf88","study_id":"607de2837874a824e2e8c6ec","session_id":"60885513221ee5d765440d28"},{"rt":1422.9799999999523,"stimulus":"img/globe_alternate.jpg","response":"n","image":"img/globe_alternate.jpg","old_or_new":"new","task":"recognition","trial_type":"image-keyboard-response","trial_index":79,"time_elapsed":173795,"internal_node_id":"0.0-3.0-0.38","subject_id":"6075d330883e3d6205fbbf88","study_id":"607de2837874a824e2e8c6ec","session_id":"60885513221ee5d765440d28","correct":true},{"rt":778.2249999998894,"stimulus":"\n      <p>How sure are you?</p>\n      <p>Rate your confidence in your answer from 1 (pure guess) to 5 (very sure) by pressing the corresponding button.</p>\n     ","response":4,"image":"img/globe_alternate.jpg","task":"confidence","old_or_new":"new","trial_type":"html-button-response","trial_index":80,"time_elapsed":174574,"internal_node_id":"0.0-3.0-1.38","subject_id":"6075d330883e3d6205fbbf88","study_id":"607de2837874a824e2e8c6ec","session_id":"60885513221ee5d765440d28"},{"rt":1239.850000000064,"stimulus":"img/coin_alternate.jpg","response":"n","image":"img/coin_alternate.jpg","old_or_new":"new","task":"recognition","trial_type":"image-keyboard-response","trial_index":81,"time_elapsed":176319,"internal_node_id":"0.0-3.0-0.39","subject_id":"6075d330883e3d6205fbbf88","study_id":"607de2837874a824e2e8c6ec","session_id":"60885513221ee5d765440d28","correct":true},{"rt":656.9399999999441,"stimulus":"\n      <p>How sure are you?</p>\n      <p>Rate your confidence in your answer from 1 (pure guess) to 5 (very sure) by pressing the corresponding button.</p>\n     ","response":4,"image":"img/coin_alternate.jpg","task":"confidence","old_or_new":"new","trial_type":"html-button-response","trial_index":82,"time_elapsed":176977,"internal_node_id":"0.0-3.0-1.39","subject_id":"6075d330883e3d6205fbbf88","study_id":"607de2837874a824e2e8c6ec","session_id":"60885513221ee5d765440d28"},{"rt":971.9549999999872,"stimulus":"img/glasses_alternate.jpg","response":"n","image":"img/glasses_alternate.jpg","old_or_new":"new","task":"recognition","trial_type":"image-keyboard-response","trial_index":83,"time_elapsed":178463,"internal_node_id":"0.0-3.0-0.40","subject_id":"6075d330883e3d6205fbbf88","study_id":"607de2837874a824e2e8c6ec","session_id":"60885513221ee5d765440d28","correct":true},{"rt":582.1949999999779,"stimulus":"\n      <p>How sure are you?</p>\n      <p>Rate your confidence in your answer from 1 (pure guess) to 5 (very sure) by pressing the corresponding button.</p>\n     ","response":4,"image":"img/glasses_alternate.jpg","task":"confidence","old_or_new":"new","trial_type":"html-button-response","trial_index":84,"time_elapsed":179046,"internal_node_id":"0.0-3.0-1.40","subject_id":"6075d330883e3d6205fbbf88","study_id":"607de2837874a824e2e8c6ec","session_id":"60885513221ee5d765440d28"},{"rt":1020.5500000000757,"stimulus":"img/hat_alternate.jpg","response":"n","image":"img/hat_alternate.jpg","old_or_new":"new","task":"recognition","trial_type":"image-keyboard-response","trial_index":85,"time_elapsed":180573,"internal_node_id":"0.0-3.0-0.41","subject_id":"6075d330883e3d6205fbbf88","study_id":"607de2837874a824e2e8c6ec","session_id":"60885513221ee5d765440d28","correct":true},{"rt":603.1149999999907,"stimulus":"\n      <p>How sure are you?</p>\n      <p>Rate your confidence in your answer from 1 (pure guess) to 5 (very sure) by pressing the corresponding button.</p>\n     ","response":4,"image":"img/hat_alternate.jpg","task":"confidence","old_or_new":"new","trial_type":"html-button-response","trial_index":86,"time_elapsed":181178,"internal_node_id":"0.0-3.0-1.41","subject_id":"6075d330883e3d6205fbbf88","study_id":"607de2837874a824e2e8c6ec","session_id":"60885513221ee5d765440d28"},{"rt":1232.100000000064,"stimulus":"img/drum.jpg","response":"y","image":"img/drum.jpg","old_or_new":"old","task":"recognition","trial_type":"image-keyboard-response","trial_index":87,"time_elapsed":182920,"internal_node_id":"0.0-3.0-0.42","subject_id":"6075d330883e3d6205fbbf88","study_id":"607de2837874a824e2e8c6ec","session_id":"60885513221ee5d765440d28","correct":true},{"rt":577.6200000000244,"stimulus":"\n      <p>How sure are you?</p>\n      <p>Rate your confidence in your answer from 1 (pure guess) to 5 (very sure) by pressing the corresponding button.</p>\n     ","response":4,"image":"img/drum.jpg","task":"confidence","old_or_new":"old","trial_type":"html-button-response","trial_index":88,"time_elapsed":183499,"internal_node_id":"0.0-3.0-1.42","subject_id":"6075d330883e3d6205fbbf88","study_id":"607de2837874a824e2e8c6ec","session_id":"60885513221ee5d765440d28"},{"rt":964.4949999999662,"stimulus":"img/backpack_alternate.jpg","response":"n","image":"img/backpack_alternate.jpg","old_or_new":"new","task":"recognition","trial_type":"image-keyboard-response","trial_index":89,"time_elapsed":184969,"internal_node_id":"0.0-3.0-0.43","subject_id":"6075d330883e3d6205fbbf88","study_id":"607de2837874a824e2e8c6ec","session_id":"60885513221ee5d765440d28","correct":true},{"rt":547.9799999999523,"stimulus":"\n      <p>How sure are you?</p>\n      <p>Rate your confidence in your answer from 1 (pure guess) to 5 (very sure) by pressing the corresponding button.</p>\n     ","response":4,"image":"img/backpack_alternate.jpg","task":"confidence","old_or_new":"new","trial_type":"html-button-response","trial_index":90,"time_elapsed":185518,"internal_node_id":"0.0-3.0-1.43","subject_id":"6075d330883e3d6205fbbf88","study_id":"607de2837874a824e2e8c6ec","session_id":"60885513221ee5d765440d28"},{"rt":1031.2200000000594,"stimulus":"img/camera.jpg","response":"y","image":"img/camera.jpg","old_or_new":"old","task":"recognition","trial_type":"image-keyboard-response","trial_index":91,"time_elapsed":187053,"internal_node_id":"0.0-3.0-0.44","subject_id":"6075d330883e3d6205fbbf88","study_id":"607de2837874a824e2e8c6ec","session_id":"60885513221ee5d765440d28","correct":true},{"rt":630.179999999993,"stimulus":"\n      <p>How sure are you?</p>\n      <p>Rate your confidence in your answer from 1 (pure guess) to 5 (very sure) by pressing the corresponding button.</p>\n     ","response":4,"image":"img/camera.jpg","task":"confidence","old_or_new":"old","trial_type":"html-button-response","trial_index":92,"time_elapsed":187684,"internal_node_id":"0.0-3.0-1.44","subject_id":"6075d330883e3d6205fbbf88","study_id":"607de2837874a824e2e8c6ec","session_id":"60885513221ee5d765440d28"},{"rt":6531.495000000083,"stimulus":"img/ladder.jpg","response":"y","image":"img/ladder.jpg","old_or_new":"old","task":"recognition","trial_type":"image-keyboard-response","trial_index":93,"time_elapsed":194720,"internal_node_id":"0.0-3.0-0.45","subject_id":"6075d330883e3d6205fbbf88","study_id":"607de2837874a824e2e8c6ec","session_id":"60885513221ee5d765440d28","correct":true},{"rt":1209.134999999951,"stimulus":"\n      <p>How sure are you?</p>\n      <p>Rate your confidence in your answer from 1 (pure guess) to 5 (very sure) by pressing the corresponding button.</p>\n     ","response":2,"image":"img/ladder.jpg","task":"confidence","old_or_new":"old","trial_type":"html-button-response","trial_index":94,"time_elapsed":195930,"internal_node_id":"0.0-3.0-1.45","subject_id":"6075d330883e3d6205fbbf88","study_id":"607de2837874a824e2e8c6ec","session_id":"60885513221ee5d765440d28"},{"rt":1113.9550000000454,"stimulus":"img/basket_alternate.jpg","response":"n","image":"img/basket_alternate.jpg","old_or_new":"new","task":"recognition","trial_type":"image-keyboard-response","trial_index":95,"time_elapsed":197546,"internal_node_id":"0.0-3.0-0.46","subject_id":"6075d330883e3d6205fbbf88","study_id":"607de2837874a824e2e8c6ec","session_id":"60885513221ee5d765440d28","correct":true},{"rt":1258.1300000000629,"stimulus":"\n      <p>How sure are you?</p>\n      <p>Rate your confidence in your answer from 1 (pure guess) to 5 (very sure) by pressing the corresponding button.</p>\n     ","response":4,"image":"img/basket_alternate.jpg","task":"confidence","old_or_new":"new","trial_type":"html-button-response","trial_index":96,"time_elapsed":198805,"internal_node_id":"0.0-3.0-1.46","subject_id":"6075d330883e3d6205fbbf88","study_id":"607de2837874a824e2e8c6ec","session_id":"60885513221ee5d765440d28"},{"rt":963.3850000000384,"stimulus":"img/helmet.jpg","response":"y","image":"img/helmet.jpg","old_or_new":"old","task":"recognition","trial_type":"image-keyboard-response","trial_index":97,"time_elapsed":200284,"internal_node_id":"0.0-3.0-0.47","subject_id":"6075d330883e3d6205fbbf88","study_id":"607de2837874a824e2e8c6ec","session_id":"60885513221ee5d765440d28","correct":true},{"rt":599.8850000000966,"stimulus":"\n      <p>How sure are you?</p>\n      <p>Rate your confidence in your answer from 1 (pure guess) to 5 (very sure) by pressing the corresponding button.</p>\n     ","response":4,"image":"img/helmet.jpg","task":"confidence","old_or_new":"old","trial_type":"html-button-response","trial_index":98,"time_elapsed":200885,"internal_node_id":"0.0-3.0-1.47","subject_id":"6075d330883e3d6205fbbf88","study_id":"607de2837874a824e2e8c6ec","session_id":"60885513221ee5d765440d28"}]