[{"success":true,"timeout":false,"failed_images":[],"failed_audio":[],"failed_video":[],"trial_type":"preload","trial_index":0,"time_elapsed":54,"internal_node_id":"0.0-0.0","subject_id":"5e73f574163a03039f576ab7","study_id":"607de2837874a824e2e8c6ec","session_id":"6088502e7b29e33eafb3ad81"},{"rt":2701.32500003092,"stimulus":"\n      <div style=\"width:800px; text-align: left;\">\n        <p>Welcome to day 2 of the experiment! Thanks for coming back.</p>\n        <p>You will be presented with a series of images. Images will appear one at a time.</p>\n        <p>Each image will remain on the screen until you press either <span style=\"font-weight: bold;\">\"y\" to indicate you have seen the \n        exact same photo the day before or \"n\" to indicate you have not seen the exact same photo the day before.</span></p>\n        <p>After you answer yes (\"y\") or no (\"n\"), you will then be prompted to rate your certainty on a scale of\n        1 (pure guess) to 5 (very sure).</p>\n      </div>\n    ","response":0,"trial_type":"html-button-response","trial_index":1,"time_elapsed":2757,"internal_node_id":"0.0-1.0","subject_id":"5e73f574163a03039f576ab7","study_id":"607de2837874a824e2e8c6ec","session_id":"6088502e7b29e33eafb3ad81"},{"success":true,"trial_type":"fullscreen","trial_index":2,"time_elapsed":4957,"internal_node_id":"0.0-2.0","subject_id":"5e73f574163a03039f576ab7","study_id":"607de2837874a824e2e8c6ec","session_id":"6088502e7b29e33eafb3ad81"},{"rt":22288.030000054277,"stimulus":"img/drum.jpg","response":"y","image":"img/drum.jpg","old_or_new":"old","task":"recognition","trial_type":"image-keyboard-response","trial_index":3,"time_elapsed":27264,"internal_node_id":"0.0-3.0-0.0","subject_id":"5e73f574163a03039f576ab7","study_id":"607de2837874a824e2e8c6ec","session_id":"6088502e7b29e33eafb3ad81","correct":true},{"rt":2463.0200000246987,"stimulus":"\n      <p>How sure are you?</p>\n      <p>Rate your confidence in your answer from 1 (pure guess) to 5 (very sure) by pressing the corresponding button.</p>\n     ","response":4,"image":"img/drum.jpg","task":"confidence","old_or_new":"old","trial_type":"html-button-response","trial_index":4,"time_elapsed":29731,"internal_node_id":"0.0-3.0-1.0","subject_id":"5e73f574163a03039f576ab7","study_id":"607de2837874a824e2e8c6ec","session_id":"6088502e7b29e33eafb3ad81"},{"rt":2656.9600000511855,"stimulus":"img/hat.jpg","response":"y","image":"img/hat.jpg","old_or_new":"old","task":"recognition","trial_type":"image-keyboard-response","trial_index":5,"time_elapsed":32898,"internal_node_id":"0.0-3.0-0.1","subject_id":"5e73f574163a03039f576ab7","study_id":"607de2837874a824e2e8c6ec","session_id":"6088502e7b29e33eafb3ad81","correct":true},{"rt":2421.5199999744073,"stimulus":"\n      <p>How sure are you?</p>\n      <p>Rate your confidence in your answer from 1 (pure guess) to 5 (very sure) by pressing the corresponding button.</p>\n     ","response":4,"image":"img/hat.jpg","task":"confidence","old_or_new":"old","trial_type":"html-button-response","trial_index":6,"time_elapsed":35325,"internal_node_id":"0.0-3.0-1.1","subject_id":"5e73f574163a03039f576ab7","study_id":"607de2837874a824e2e8c6ec","session_id":"6088502e7b29e33eafb3ad81"},{"rt":1435.2299999445677,"stimulus":"img/hair_tie.jpg","response":"y","image":"img/hair_tie.jpg","old_or_new":"old","task":"recognition","trial_type":"image-keyboard-response","trial_index":7,"time_elapsed":37272,"internal_node_id":"0.0-3.0-0.2","subject_id":"5e73f574163a03039f576ab7","study_id":"607de2837874a824e2e8c6ec","session_id":"6088502e7b29e33eafb3ad81","correct":true},{"rt":1044.3349999841303,"stimulus":"\n      <p>How sure are you?</p>\n      <p>Rate your confidence in your answer from 1 (pure guess) to 5 (very sure) by pressing the corresponding button.</p>\n     ","response":4,"image":"img/hair_tie.jpg","task":"confidence","old_or_new":"old","trial_type":"html-button-response","trial_index":8,"time_elapsed":38321,"internal_node_id":"0.0-3.0-1.2","subject_id":"5e73f574163a03039f576ab7","study_id":"607de2837874a824e2e8c6ec","session_id":"6088502e7b29e33eafb3ad81"},{"rt":1414.3049999838695,"stimulus":"img/calculator.jpg","response":"y","image":"img/calculator.jpg","old_or_new":"old","task":"recognition","trial_type":"image-keyboard-response","trial_index":9,"time_elapsed":40247,"internal_node_id":"0.0-3.0-0.3","subject_id":"5e73f574163a03039f576ab7","study_id":"607de2837874a824e2e8c6ec","session_id":"6088502e7b29e33eafb3ad81","correct":true},{"rt":1066.675000009127,"stimulus":"\n      <p>How sure are you?</p>\n      <p>Rate your confidence in your answer from 1 (pure guess) to 5 (very sure) by pressing the corresponding button.</p>\n     ","response":4,"image":"img/calculator.jpg","task":"confidence","old_or_new":"old","trial_type":"html-button-response","trial_index":10,"time_elapsed":41319,"internal_node_id":"0.0-3.0-1.3","subject_id":"5e73f574163a03039f576ab7","study_id":"607de2837874a824e2e8c6ec","session_id":"6088502e7b29e33eafb3ad81"},{"rt":2920.1149999862537,"stimulus":"img/lightbulb.jpg","response":"y","image":"img/lightbulb.jpg","old_or_new":"old","task":"recognition","trial_type":"image-keyboard-response","trial_index":11,"time_elapsed":44750,"internal_node_id":"0.0-3.0-0.4","subject_id":"5e73f574163a03039f576ab7","study_id":"607de2837874a824e2e8c6ec","session_id":"6088502e7b29e33eafb3ad81","correct":true},{"rt":1096.8550000106916,"stimulus":"\n      <p>How sure are you?</p>\n      <p>Rate your confidence in your answer from 1 (pure guess) to 5 (very sure) by pressing the corresponding button.</p>\n     ","response":4,"image":"img/lightbulb.jpg","task":"confidence","old_or_new":"old","trial_type":"html-button-response","trial_index":12,"time_elapsed":45852,"internal_node_id":"0.0-3.0-1.4","subject_id":"5e73f574163a03039f576ab7","study_id":"607de2837874a824e2e8c6ec","session_id":"6088502e7b29e33eafb3ad81"},{"rt":1867.560000042431,"stimulus":"img/lightbulb_alternate.jpg","response":"n","image":"img/lightbulb_alternate.jpg","old_or_new":"new","task":"recognition","trial_type":"image-keyboard-response","trial_index":13,"time_elapsed":48233,"internal_node_id":"0.0-3.0-0.5","subject_id":"5e73f574163a03039f576ab7","study_id":"607de2837874a824e2e8c6ec","session_id":"6088502e7b29e33eafb3ad81","correct":true},{"rt":1664.1850000014529,"stimulus":"\n      <p>How sure are you?</p>\n      <p>Rate your confidence in your answer from 1 (pure guess) to 5 (very sure) by pressing the corresponding button.</p>\n     ","response":4,"image":"img/lightbulb_alternate.jpg","task":"confidence","old_or_new":"new","trial_type":"html-button-response","trial_index":14,"time_elapsed":49902,"internal_node_id":"0.0-3.0-1.5","subject_id":"5e73f574163a03039f576ab7","study_id":"607de2837874a824e2e8c6ec","session_id":"6088502e7b29e33eafb3ad81"},{"rt":4142.990000080317,"stimulus":"img/ladder_alternate.jpg","response":"n","image":"img/ladder_alternate.jpg","old_or_new":"new","task":"recognition","trial_type":"image-keyboard-response","trial_index":15,"time_elapsed":54558,"internal_node_id":"0.0-3.0-0.6","subject_id":"5e73f574163a03039f576ab7","study_id":"607de2837874a824e2e8c6ec","session_id":"6088502e7b29e33eafb3ad81","correct":true},{"rt":1777.1199999842793,"stimulus":"\n      <p>How sure are you?</p>\n      <p>Rate your confidence in your answer from 1 (pure guess) to 5 (very sure) by pressing the corresponding button.</p>\n     ","response":2,"image":"img/ladder_alternate.jpg","task":"confidence","old_or_new":"new","trial_type":"html-button-response","trial_index":16,"time_elapsed":56343,"internal_node_id":"0.0-3.0-1.6","subject_id":"5e73f574163a03039f576ab7","study_id":"607de2837874a824e2e8c6ec","session_id":"6088502e7b29e33eafb3ad81"},{"rt":1687.7849999582395,"stimulus":"img/helmet.jpg","response":"y","image":"img/helmet.jpg","old_or_new":"old","task":"recognition","trial_type":"image-keyboard-response","trial_index":17,"time_elapsed":58550,"internal_node_id":"0.0-3.0-0.7","subject_id":"5e73f574163a03039f576ab7","study_id":"607de2837874a824e2e8c6ec","session_id":"6088502e7b29e33eafb3ad81","correct":true},{"rt":1417.299999971874,"stimulus":"\n      <p>How sure are you?</p>\n      <p>Rate your confidence in your answer from 1 (pure guess) to 5 (very sure) by pressing the corresponding button.</p>\n     ","response":4,"image":"img/helmet.jpg","task":"confidence","old_or_new":"old","trial_type":"html-button-response","trial_index":18,"time_elapsed":59972,"internal_node_id":"0.0-3.0-1.7","subject_id":"5e73f574163a03039f576ab7","study_id":"607de2837874a824e2e8c6ec","session_id":"6088502e7b29e33eafb3ad81"},{"rt":1432.3800000129268,"stimulus":"img/bowl_alternate.jpg","response":"n","image":"img/bowl_alternate.jpg","old_or_new":"new","task":"recognition","trial_type":"image-keyboard-response","trial_index":19,"time_elapsed":61909,"internal_node_id":"0.0-3.0-0.8","subject_id":"5e73f574163a03039f576ab7","study_id":"607de2837874a824e2e8c6ec","session_id":"6088502e7b29e33eafb3ad81","correct":true},{"rt":2096.3149999734014,"stimulus":"\n      <p>How sure are you?</p>\n      <p>Rate your confidence in your answer from 1 (pure guess) to 5 (very sure) by pressing the corresponding button.</p>\n     ","response":4,"image":"img/bowl_alternate.jpg","task":"confidence","old_or_new":"new","trial_type":"html-button-response","trial_index":20,"time_elapsed":64010,"internal_node_id":"0.0-3.0-1.8","subject_id":"5e73f574163a03039f576ab7","study_id":"607de2837874a824e2e8c6ec","session_id":"6088502e7b29e33eafb3ad81"},{"rt":2144.275000086054,"stimulus":"img/folder_alternate.jpg","response":"n","image":"img/folder_alternate.jpg","old_or_new":"new","task":"recognition","trial_type":"image-keyboard-response","trial_index":21,"time_elapsed":66665,"internal_node_id":"0.0-3.0-0.9","subject_id":"5e73f574163a03039f576ab7","study_id":"607de2837874a824e2e8c6ec","session_id":"6088502e7b29e33eafb3ad81","correct":true},{"rt":1959.2849999899045,"stimulus":"\n      <p>How sure are you?</p>\n      <p>Rate your confidence in your answer from 1 (pure guess) to 5 (very sure) by pressing the corresponding button.</p>\n     ","response":4,"image":"img/folder_alternate.jpg","task":"confidence","old_or_new":"new","trial_type":"html-button-response","trial_index":22,"time_elapsed":68629,"internal_node_id":"0.0-3.0-1.9","subject_id":"5e73f574163a03039f576ab7","study_id":"607de2837874a824e2e8c6ec","session_id":"6088502e7b29e33eafb3ad81"},{"rt":1373.509999946691,"stimulus":"img/apple.jpg","response":"y","image":"img/apple.jpg","old_or_new":"old","task":"recognition","trial_type":"image-keyboard-response","trial_index":23,"time_elapsed":70511,"internal_node_id":"0.0-3.0-0.10","subject_id":"5e73f574163a03039f576ab7","study_id":"607de2837874a824e2e8c6ec","session_id":"6088502e7b29e33eafb3ad81","correct":true},{"rt":1730.0700000487268,"stimulus":"\n      <p>How sure are you?</p>\n      <p>Rate your confidence in your answer from 1 (pure guess) to 5 (very sure) by pressing the corresponding button.</p>\n     ","response":4,"image":"img/apple.jpg","task":"confidence","old_or_new":"old","trial_type":"html-button-response","trial_index":24,"time_elapsed":72245,"internal_node_id":"0.0-3.0-1.10","subject_id":"5e73f574163a03039f576ab7","study_id":"607de2837874a824e2e8c6ec","session_id":"6088502e7b29e33eafb3ad81"},{"rt":1060.4749999474734,"stimulus":"img/apple_alternate.jpg","response":"n","image":"img/apple_alternate.jpg","old_or_new":"new","task":"recognition","trial_type":"image-keyboard-response","trial_index":25,"time_elapsed":73822,"internal_node_id":"0.0-3.0-0.11","subject_id":"5e73f574163a03039f576ab7","study_id":"607de2837874a824e2e8c6ec","session_id":"6088502e7b29e33eafb3ad81","correct":true},{"rt":1440.39000000339,"stimulus":"\n      <p>How sure are you?</p>\n      <p>Rate your confidence in your answer from 1 (pure guess) to 5 (very sure) by pressing the corresponding button.</p>\n     ","response":4,"image":"img/apple_alternate.jpg","task":"confidence","old_or_new":"new","trial_type":"html-button-response","trial_index":26,"time_elapsed":75267,"internal_node_id":"0.0-3.0-1.11","subject_id":"5e73f574163a03039f576ab7","study_id":"607de2837874a824e2e8c6ec","session_id":"6088502e7b29e33eafb3ad81"},{"rt":2186.839999980293,"stimulus":"img/fan_alternate.jpg","response":"y","image":"img/fan_alternate.jpg","old_or_new":"new","task":"recognition","trial_type":"image-keyboard-response","trial_index":27,"time_elapsed":77961,"internal_node_id":"0.0-3.0-0.12","subject_id":"5e73f574163a03039f576ab7","study_id":"607de2837874a824e2e8c6ec","session_id":"6088502e7b29e33eafb3ad81","correct":false},{"rt":1315.0550000136718,"stimulus":"\n      <p>How sure are you?</p>\n      <p>Rate your confidence in your answer from 1 (pure guess) to 5 (very sure) by pressing the corresponding button.</p>\n     ","response":4,"image":"img/fan_alternate.jpg","task":"confidence","old_or_new":"new","trial_type":"html-button-response","trial_index":28,"time_elapsed":79281,"internal_node_id":"0.0-3.0-1.12","subject_id":"5e73f574163a03039f576ab7","study_id":"607de2837874a824e2e8c6ec","session_id":"6088502e7b29e33eafb3ad81"},{"rt":1167.5350000150502,"stimulus":"img/backpack.jpg","response":"y","image":"img/backpack.jpg","old_or_new":"old","task":"recognition","trial_type":"image-keyboard-response","trial_index":29,"time_elapsed":80964,"internal_node_id":"0.0-3.0-0.13","subject_id":"5e73f574163a03039f576ab7","study_id":"607de2837874a824e2e8c6ec","session_id":"6088502e7b29e33eafb3ad81","correct":true},{"rt":2201.2249999679625,"stimulus":"\n      <p>How sure are you?</p>\n      <p>Rate your confidence in your answer from 1 (pure guess) to 5 (very sure) by pressing the corresponding button.</p>\n     ","response":4,"image":"img/backpack.jpg","task":"confidence","old_or_new":"old","trial_type":"html-button-response","trial_index":30,"time_elapsed":83170,"internal_node_id":"0.0-3.0-1.13","subject_id":"5e73f574163a03039f576ab7","study_id":"607de2837874a824e2e8c6ec","session_id":"6088502e7b29e33eafb3ad81"},{"rt":3269.0350000048056,"stimulus":"img/glasses_alternate.jpg","response":"n","image":"img/glasses_alternate.jpg","old_or_new":"new","task":"recognition","trial_type":"image-keyboard-response","trial_index":31,"time_elapsed":86949,"internal_node_id":"0.0-3.0-0.14","subject_id":"5e73f574163a03039f576ab7","study_id":"607de2837874a824e2e8c6ec","session_id":"6088502e7b29e33eafb3ad81","correct":true},{"rt":1541.6299999924377,"stimulus":"\n      <p>How sure are you?</p>\n      <p>Rate your confidence in your answer from 1 (pure guess) to 5 (very sure) by pressing the corresponding button.</p>\n     ","response":4,"image":"img/glasses_alternate.jpg","task":"confidence","old_or_new":"new","trial_type":"html-button-response","trial_index":32,"time_elapsed":88496,"internal_node_id":"0.0-3.0-1.14","subject_id":"5e73f574163a03039f576ab7","study_id":"607de2837874a824e2e8c6ec","session_id":"6088502e7b29e33eafb3ad81"},{"rt":886.8950000032783,"stimulus":"img/globe.jpg","response":"y","image":"img/globe.jpg","old_or_new":"old","task":"recognition","trial_type":"image-keyboard-response","trial_index":33,"time_elapsed":89897,"internal_node_id":"0.0-3.0-0.15","subject_id":"5e73f574163a03039f576ab7","study_id":"607de2837874a824e2e8c6ec","session_id":"6088502e7b29e33eafb3ad81","correct":true},{"rt":1355.7199999922886,"stimulus":"\n      <p>How sure are you?</p>\n      <p>Rate your confidence in your answer from 1 (pure guess) to 5 (very sure) by pressing the corresponding button.</p>\n     ","response":4,"image":"img/globe.jpg","task":"confidence","old_or_new":"old","trial_type":"html-button-response","trial_index":34,"time_elapsed":91258,"internal_node_id":"0.0-3.0-1.15","subject_id":"5e73f574163a03039f576ab7","study_id":"607de2837874a824e2e8c6ec","session_id":"6088502e7b29e33eafb3ad81"},{"rt":1009.7749999258667,"stimulus":"img/leaf.jpg","response":"y","image":"img/leaf.jpg","old_or_new":"old","task":"recognition","trial_type":"image-keyboard-response","trial_index":35,"time_elapsed":92789,"internal_node_id":"0.0-3.0-0.16","subject_id":"5e73f574163a03039f576ab7","study_id":"607de2837874a824e2e8c6ec","session_id":"6088502e7b29e33eafb3ad81","correct":true},{"rt":1337.360000004992,"stimulus":"\n      <p>How sure are you?</p>\n      <p>Rate your confidence in your answer from 1 (pure guess) to 5 (very sure) by pressing the corresponding button.</p>\n     ","response":4,"image":"img/leaf.jpg","task":"confidence","old_or_new":"old","trial_type":"html-button-response","trial_index":36,"time_elapsed":94131,"internal_node_id":"0.0-3.0-1.16","subject_id":"5e73f574163a03039f576ab7","study_id":"607de2837874a824e2e8c6ec","session_id":"6088502e7b29e33eafb3ad81"},{"rt":1157.4000000255182,"stimulus":"img/coin_alternate.jpg","response":"n","image":"img/coin_alternate.jpg","old_or_new":"new","task":"recognition","trial_type":"image-keyboard-response","trial_index":37,"time_elapsed":95800,"internal_node_id":"0.0-3.0-0.17","subject_id":"5e73f574163a03039f576ab7","study_id":"607de2837874a824e2e8c6ec","session_id":"6088502e7b29e33eafb3ad81","correct":true},{"rt":1249.2199999978766,"stimulus":"\n      <p>How sure are you?</p>\n      <p>Rate your confidence in your answer from 1 (pure guess) to 5 (very sure) by pressing the corresponding button.</p>\n     ","response":4,"image":"img/coin_alternate.jpg","task":"confidence","old_or_new":"new","trial_type":"html-button-response","trial_index":38,"time_elapsed":97054,"internal_node_id":"0.0-3.0-1.17","subject_id":"5e73f574163a03039f576ab7","study_id":"607de2837874a824e2e8c6ec","session_id":"6088502e7b29e33eafb3ad81"},{"rt":1895.6400000024587,"stimulus":"img/grapes.jpg","response":"y","image":"img/grapes.jpg","old_or_new":"old","task":"recognition","trial_type":"image-keyboard-response","trial_index":39,"time_elapsed":99455,"internal_node_id":"0.0-3.0-0.18","subject_id":"5e73f574163a03039f576ab7","study_id":"607de2837874a824e2e8c6ec","session_id":"6088502e7b29e33eafb3ad81","correct":true},{"rt":1606.154999928549,"stimulus":"\n      <p>How sure are you?</p>\n      <p>Rate your confidence in your answer from 1 (pure guess) to 5 (very sure) by pressing the corresponding button.</p>\n     ","response":4,"image":"img/grapes.jpg","task":"confidence","old_or_new":"old","trial_type":"html-button-response","trial_index":40,"time_elapsed":101066,"internal_node_id":"0.0-3.0-1.18","subject_id":"5e73f574163a03039f576ab7","study_id":"607de2837874a824e2e8c6ec","session_id":"6088502e7b29e33eafb3ad81"},{"rt":902.0550000714138,"stimulus":"img/basket.jpg","response":"y","image":"img/basket.jpg","old_or_new":"old","task":"recognition","trial_type":"image-keyboard-response","trial_index":41,"time_elapsed":102483,"internal_node_id":"0.0-3.0-0.19","subject_id":"5e73f574163a03039f576ab7","study_id":"607de2837874a824e2e8c6ec","session_id":"6088502e7b29e33eafb3ad81","correct":true},{"rt":1167.3299999674782,"stimulus":"\n      <p>How sure are you?</p>\n      <p>Rate your confidence in your answer from 1 (pure guess) to 5 (very sure) by pressing the corresponding button.</p>\n     ","response":4,"image":"img/basket.jpg","task":"confidence","old_or_new":"old","trial_type":"html-button-response","trial_index":42,"time_elapsed":103655,"internal_node_id":"0.0-3.0-1.19","subject_id":"5e73f574163a03039f576ab7","study_id":"607de2837874a824e2e8c6ec","session_id":"6088502e7b29e33eafb3ad81"},{"rt":1034.8849999718368,"stimulus":"img/chair_alternate.jpg","response":"n","image":"img/chair_alternate.jpg","old_or_new":"new","task":"recognition","trial_type":"image-keyboard-response","trial_index":43,"time_elapsed":105212,"internal_node_id":"0.0-3.0-0.20","subject_id":"5e73f574163a03039f576ab7","study_id":"607de2837874a824e2e8c6ec","session_id":"6088502e7b29e33eafb3ad81","correct":true},{"rt":1250.2499999245629,"stimulus":"\n      <p>How sure are you?</p>\n      <p>Rate your confidence in your answer from 1 (pure guess) to 5 (very sure) by pressing the corresponding button.</p>\n     ","response":4,"image":"img/chair_alternate.jpg","task":"confidence","old_or_new":"new","trial_type":"html-button-response","trial_index":44,"time_elapsed":106467,"internal_node_id":"0.0-3.0-1.20","subject_id":"5e73f574163a03039f576ab7","study_id":"607de2837874a824e2e8c6ec","session_id":"6088502e7b29e33eafb3ad81"},{"rt":2401.934999972582,"stimulus":"img/dryer_alternate.jpg","response":"n","image":"img/dryer_alternate.jpg","old_or_new":"new","task":"recognition","trial_type":"image-keyboard-response","trial_index":45,"time_elapsed":109381,"internal_node_id":"0.0-3.0-0.21","subject_id":"5e73f574163a03039f576ab7","study_id":"607de2837874a824e2e8c6ec","session_id":"6088502e7b29e33eafb3ad81","correct":true},{"rt":1415.9249999793246,"stimulus":"\n      <p>How sure are you?</p>\n      <p>Rate your confidence in your answer from 1 (pure guess) to 5 (very sure) by pressing the corresponding button.</p>\n     ","response":4,"image":"img/dryer_alternate.jpg","task":"confidence","old_or_new":"new","trial_type":"html-button-response","trial_index":46,"time_elapsed":110802,"internal_node_id":"0.0-3.0-1.21","subject_id":"5e73f574163a03039f576ab7","study_id":"607de2837874a824e2e8c6ec","session_id":"6088502e7b29e33eafb3ad81"},{"rt":1015.1799999875948,"stimulus":"img/grapes_alternate.jpg","response":"n","image":"img/grapes_alternate.jpg","old_or_new":"new","task":"recognition","trial_type":"image-keyboard-response","trial_index":47,"time_elapsed":112321,"internal_node_id":"0.0-3.0-0.22","subject_id":"5e73f574163a03039f576ab7","study_id":"607de2837874a824e2e8c6ec","session_id":"6088502e7b29e33eafb3ad81","correct":true},{"rt":1373.835000093095,"stimulus":"\n      <p>How sure are you?</p>\n      <p>Rate your confidence in your answer from 1 (pure guess) to 5 (very sure) by pressing the corresponding button.</p>\n     ","response":4,"image":"img/grapes_alternate.jpg","task":"confidence","old_or_new":"new","trial_type":"html-button-response","trial_index":48,"time_elapsed":113701,"internal_node_id":"0.0-3.0-1.22","subject_id":"5e73f574163a03039f576ab7","study_id":"607de2837874a824e2e8c6ec","session_id":"6088502e7b29e33eafb3ad81"},{"rt":1300.3250000765547,"stimulus":"img/hourglass_alternate.jpg","response":"n","image":"img/hourglass_alternate.jpg","old_or_new":"new","task":"recognition","trial_type":"image-keyboard-response","trial_index":49,"time_elapsed":115510,"internal_node_id":"0.0-3.0-0.23","subject_id":"5e73f574163a03039f576ab7","study_id":"607de2837874a824e2e8c6ec","session_id":"6088502e7b29e33eafb3ad81","correct":true},{"rt":1359.0350000886247,"stimulus":"\n      <p>How sure are you?</p>\n      <p>Rate your confidence in your answer from 1 (pure guess) to 5 (very sure) by pressing the corresponding button.</p>\n     ","response":4,"image":"img/hourglass_alternate.jpg","task":"confidence","old_or_new":"new","trial_type":"html-button-response","trial_index":50,"time_elapsed":116871,"internal_node_id":"0.0-3.0-1.23","subject_id":"5e73f574163a03039f576ab7","study_id":"607de2837874a824e2e8c6ec","session_id":"6088502e7b29e33eafb3ad81"},{"rt":2389.299999922514,"stimulus":"img/hairbrush_alternate.jpg","response":"n","image":"img/hairbrush_alternate.jpg","old_or_new":"new","task":"recognition","trial_type":"image-keyboard-response","trial_index":51,"time_elapsed":119781,"internal_node_id":"0.0-3.0-0.24","subject_id":"5e73f574163a03039f576ab7","study_id":"607de2837874a824e2e8c6ec","session_id":"6088502e7b29e33eafb3ad81","correct":true},{"rt":1542.5599999725819,"stimulus":"\n      <p>How sure are you?</p>\n      <p>Rate your confidence in your answer from 1 (pure guess) to 5 (very sure) by pressing the corresponding button.</p>\n     ","response":4,"image":"img/hairbrush_alternate.jpg","task":"confidence","old_or_new":"new","trial_type":"html-button-response","trial_index":52,"time_elapsed":121331,"internal_node_id":"0.0-3.0-1.24","subject_id":"5e73f574163a03039f576ab7","study_id":"607de2837874a824e2e8c6ec","session_id":"6088502e7b29e33eafb3ad81"},{"rt":1049.0299999946728,"stimulus":"img/backpack_alternate.jpg","response":"n","image":"img/backpack_alternate.jpg","old_or_new":"new","task":"recognition","trial_type":"image-keyboard-response","trial_index":53,"time_elapsed":122891,"internal_node_id":"0.0-3.0-0.25","subject_id":"5e73f574163a03039f576ab7","study_id":"607de2837874a824e2e8c6ec","session_id":"6088502e7b29e33eafb3ad81","correct":true},{"rt":1878.4299999242648,"stimulus":"\n      <p>How sure are you?</p>\n      <p>Rate your confidence in your answer from 1 (pure guess) to 5 (very sure) by pressing the corresponding button.</p>\n     ","response":4,"image":"img/backpack_alternate.jpg","task":"confidence","old_or_new":"new","trial_type":"html-button-response","trial_index":54,"time_elapsed":124774,"internal_node_id":"0.0-3.0-1.25","subject_id":"5e73f574163a03039f576ab7","study_id":"607de2837874a824e2e8c6ec","session_id":"6088502e7b29e33eafb3ad81"},{"rt":2124.7999999905005,"stimulus":"img/fan.jpg","response":"n","image":"img/fan.jpg","old_or_new":"old","task":"recognition","trial_type":"image-keyboard-response","trial_index":55,"time_elapsed":127414,"internal_node_id":"0.0-3.0-0.26","subject_id":"5e73f574163a03039f576ab7","study_id":"607de2837874a824e2e8c6ec","session_id":"6088502e7b29e33eafb3ad81","correct":false},{"rt":953.9549999171868,"stimulus":"\n      <p>How sure are you?</p>\n      <p>Rate your confidence in your answer from 1 (pure guess) to 5 (very sure) by pressing the corresponding button.</p>\n     ","response":4,"image":"img/fan.jpg","task":"confidence","old_or_new":"old","trial_type":"html-button-response","trial_index":56,"time_elapsed":128373,"internal_node_id":"0.0-3.0-1.26","subject_id":"5e73f574163a03039f576ab7","study_id":"607de2837874a824e2e8c6ec","session_id":"6088502e7b29e33eafb3ad81"},{"rt":1197.8649999946356,"stimulus":"img/coin.jpg","response":"y","image":"img/coin.jpg","old_or_new":"old","task":"recognition","trial_type":"image-keyboard-response","trial_index":57,"time_elapsed":130078,"internal_node_id":"0.0-3.0-0.27","subject_id":"5e73f574163a03039f576ab7","study_id":"607de2837874a824e2e8c6ec","session_id":"6088502e7b29e33eafb3ad81","correct":true},{"rt":759.650000021793,"stimulus":"\n      <p>How sure are you?</p>\n      <p>Rate your confidence in your answer from 1 (pure guess) to 5 (very sure) by pressing the corresponding button.</p>\n     ","response":4,"image":"img/coin.jpg","task":"confidence","old_or_new":"old","trial_type":"html-button-response","trial_index":58,"time_elapsed":130843,"internal_node_id":"0.0-3.0-1.27","subject_id":"5e73f574163a03039f576ab7","study_id":"607de2837874a824e2e8c6ec","session_id":"6088502e7b29e33eafb3ad81"},{"rt":1002.4850000627339,"stimulus":"img/camera_alternate.jpg","response":"n","image":"img/camera_alternate.jpg","old_or_new":"new","task":"recognition","trial_type":"image-keyboard-response","trial_index":59,"time_elapsed":132360,"internal_node_id":"0.0-3.0-0.28","subject_id":"5e73f574163a03039f576ab7","study_id":"607de2837874a824e2e8c6ec","session_id":"6088502e7b29e33eafb3ad81","correct":true},{"rt":493.8550000078976,"stimulus":"\n      <p>How sure are you?</p>\n      <p>Rate your confidence in your answer from 1 (pure guess) to 5 (very sure) by pressing the corresponding button.</p>\n     ","response":4,"image":"img/camera_alternate.jpg","task":"confidence","old_or_new":"new","trial_type":"html-button-response","trial_index":60,"time_elapsed":132859,"internal_node_id":"0.0-3.0-1.28","subject_id":"5e73f574163a03039f576ab7","study_id":"607de2837874a824e2e8c6ec","session_id":"6088502e7b29e33eafb3ad81"},{"rt":1128.954999963753,"stimulus":"img/folder.jpg","response":"y","image":"img/folder.jpg","old_or_new":"old","task":"recognition","trial_type":"image-keyboard-response","trial_index":61,"time_elapsed":134503,"internal_node_id":"0.0-3.0-0.29","subject_id":"5e73f574163a03039f576ab7","study_id":"607de2837874a824e2e8c6ec","session_id":"6088502e7b29e33eafb3ad81","correct":true},{"rt":432.18500004149973,"stimulus":"\n      <p>How sure are you?</p>\n      <p>Rate your confidence in your answer from 1 (pure guess) to 5 (very sure) by pressing the corresponding button.</p>\n     ","response":4,"image":"img/folder.jpg","task":"confidence","old_or_new":"old","trial_type":"html-button-response","trial_index":62,"time_elapsed":134941,"internal_node_id":"0.0-3.0-1.29","subject_id":"5e73f574163a03039f576ab7","study_id":"607de2837874a824e2e8c6ec","session_id":"6088502e7b29e33eafb3ad81"},{"rt":1195.8449999801815,"stimulus":"img/ladder.jpg","response":"y","image":"img/ladder.jpg","old_or_new":"old","task":"recognition","trial_type":"image-keyboard-response","trial_index":63,"time_elapsed":136651,"internal_node_id":"0.0-3.0-0.30","subject_id":"5e73f574163a03039f576ab7","study_id":"607de2837874a824e2e8c6ec","session_id":"6088502e7b29e33eafb3ad81","correct":true},{"rt":451.26999996136874,"stimulus":"\n      <p>How sure are you?</p>\n      <p>Rate your confidence in your answer from 1 (pure guess) to 5 (very sure) by pressing the corresponding button.</p>\n     ","response":4,"image":"img/ladder.jpg","task":"confidence","old_or_new":"old","trial_type":"html-button-response","trial_index":64,"time_elapsed":137107,"internal_node_id":"0.0-3.0-1.30","subject_id":"5e73f574163a03039f576ab7","study_id":"607de2837874a824e2e8c6ec","session_id":"6088502e7b29e33eafb3ad81"},{"rt":953.8649999303743,"stimulus":"img/leaf_alternate.jpg","response":"n","image":"img/leaf_alternate.jpg","old_or_new":"new","task":"recognition","trial_type":"image-keyboard-response","trial_index":65,"time_elapsed":138577,"internal_node_id":"0.0-3.0-0.31","subject_id":"5e73f574163a03039f576ab7","study_id":"607de2837874a824e2e8c6ec","session_id":"6088502e7b29e33eafb3ad81","correct":true},{"rt":444.58000001031905,"stimulus":"\n      <p>How sure are you?</p>\n      <p>Rate your confidence in your answer from 1 (pure guess) to 5 (very sure) by pressing the corresponding button.</p>\n     ","response":4,"image":"img/leaf_alternate.jpg","task":"confidence","old_or_new":"new","trial_type":"html-button-response","trial_index":66,"time_elapsed":139027,"internal_node_id":"0.0-3.0-1.31","subject_id":"5e73f574163a03039f576ab7","study_id":"607de2837874a824e2e8c6ec","session_id":"6088502e7b29e33eafb3ad81"},{"rt":945.4100000439212,"stimulus":"img/hat_alternate.jpg","response":"n","image":"img/hat_alternate.jpg","old_or_new":"new","task":"recognition","trial_type":"image-keyboard-response","trial_index":67,"time_elapsed":140485,"internal_node_id":"0.0-3.0-0.32","subject_id":"5e73f574163a03039f576ab7","study_id":"607de2837874a824e2e8c6ec","session_id":"6088502e7b29e33eafb3ad81","correct":true},{"rt":391.97500003501773,"stimulus":"\n      <p>How sure are you?</p>\n      <p>Rate your confidence in your answer from 1 (pure guess) to 5 (very sure) by pressing the corresponding button.</p>\n     ","response":4,"image":"img/hat_alternate.jpg","task":"confidence","old_or_new":"new","trial_type":"html-button-response","trial_index":68,"time_elapsed":140883,"internal_node_id":"0.0-3.0-1.32","subject_id":"5e73f574163a03039f576ab7","study_id":"607de2837874a824e2e8c6ec","session_id":"6088502e7b29e33eafb3ad81"},{"rt":3233.574999962002,"stimulus":"img/hourglass.jpg","response":"n","image":"img/hourglass.jpg","old_or_new":"old","task":"recognition","trial_type":"image-keyboard-response","trial_index":69,"time_elapsed":144625,"internal_node_id":"0.0-3.0-0.33","subject_id":"5e73f574163a03039f576ab7","study_id":"607de2837874a824e2e8c6ec","session_id":"6088502e7b29e33eafb3ad81","correct":false},{"rt":539.8900000145659,"stimulus":"\n      <p>How sure are you?</p>\n      <p>Rate your confidence in your answer from 1 (pure guess) to 5 (very sure) by pressing the corresponding button.</p>\n     ","response":4,"image":"img/hourglass.jpg","task":"confidence","old_or_new":"old","trial_type":"html-button-response","trial_index":70,"time_elapsed":145173,"internal_node_id":"0.0-3.0-1.33","subject_id":"5e73f574163a03039f576ab7","study_id":"607de2837874a824e2e8c6ec","session_id":"6088502e7b29e33eafb3ad81"},{"rt":1251.2650000862777,"stimulus":"img/drum_alternate.jpg","response":"n","image":"img/drum_alternate.jpg","old_or_new":"new","task":"recognition","trial_type":"image-keyboard-response","trial_index":71,"time_elapsed":146941,"internal_node_id":"0.0-3.0-0.34","subject_id":"5e73f574163a03039f576ab7","study_id":"607de2837874a824e2e8c6ec","session_id":"6088502e7b29e33eafb3ad81","correct":true},{"rt":401.4100000495091,"stimulus":"\n      <p>How sure are you?</p>\n      <p>Rate your confidence in your answer from 1 (pure guess) to 5 (very sure) by pressing the corresponding button.</p>\n     ","response":4,"image":"img/drum_alternate.jpg","task":"confidence","old_or_new":"new","trial_type":"html-button-response","trial_index":72,"time_elapsed":147347,"internal_node_id":"0.0-3.0-1.34","subject_id":"5e73f574163a03039f576ab7","study_id":"607de2837874a824e2e8c6ec","session_id":"6088502e7b29e33eafb3ad81"},{"rt":1118.7800000188872,"stimulus":"img/globe_alternate.jpg","response":"n","image":"img/globe_alternate.jpg","old_or_new":"new","task":"recognition","trial_type":"image-keyboard-response","trial_index":73,"time_elapsed":148975,"internal_node_id":"0.0-3.0-0.35","subject_id":"5e73f574163a03039f576ab7","study_id":"607de2837874a824e2e8c6ec","session_id":"6088502e7b29e33eafb3ad81","correct":true},{"rt":406.25500003807247,"stimulus":"\n      <p>How sure are you?</p>\n      <p>Rate your confidence in your answer from 1 (pure guess) to 5 (very sure) by pressing the corresponding button.</p>\n     ","response":4,"image":"img/globe_alternate.jpg","task":"confidence","old_or_new":"new","trial_type":"html-button-response","trial_index":74,"time_elapsed":149386,"internal_node_id":"0.0-3.0-1.35","subject_id":"5e73f574163a03039f576ab7","study_id":"607de2837874a824e2e8c6ec","session_id":"6088502e7b29e33eafb3ad81"},{"rt":1247.7349999826401,"stimulus":"img/key_alternate.jpg","response":"n","image":"img/key_alternate.jpg","old_or_new":"new","task":"recognition","trial_type":"image-keyboard-response","trial_index":75,"time_elapsed":151155,"internal_node_id":"0.0-3.0-0.36","subject_id":"5e73f574163a03039f576ab7","study_id":"607de2837874a824e2e8c6ec","session_id":"6088502e7b29e33eafb3ad81","correct":true},{"rt":386.68500003404915,"stimulus":"\n      <p>How sure are you?</p>\n      <p>Rate your confidence in your answer from 1 (pure guess) to 5 (very sure) by pressing the corresponding button.</p>\n     ","response":4,"image":"img/key_alternate.jpg","task":"confidence","old_or_new":"new","trial_type":"html-button-response","trial_index":76,"time_elapsed":151547,"internal_node_id":"0.0-3.0-1.36","subject_id":"5e73f574163a03039f576ab7","study_id":"607de2837874a824e2e8c6ec","session_id":"6088502e7b29e33eafb3ad81"},{"rt":961.7749999742955,"stimulus":"img/hairbrush.jpg","response":"y","image":"img/hairbrush.jpg","old_or_new":"old","task":"recognition","trial_type":"image-keyboard-response","trial_index":77,"time_elapsed":153018,"internal_node_id":"0.0-3.0-0.37","subject_id":"5e73f574163a03039f576ab7","study_id":"607de2837874a824e2e8c6ec","session_id":"6088502e7b29e33eafb3ad81","correct":true},{"rt":420.6250000279397,"stimulus":"\n      <p>How sure are you?</p>\n      <p>Rate your confidence in your answer from 1 (pure guess) to 5 (very sure) by pressing the corresponding button.</p>\n     ","response":4,"image":"img/hairbrush.jpg","task":"confidence","old_or_new":"old","trial_type":"html-button-response","trial_index":78,"time_elapsed":153443,"internal_node_id":"0.0-3.0-1.37","subject_id":"5e73f574163a03039f576ab7","study_id":"607de2837874a824e2e8c6ec","session_id":"6088502e7b29e33eafb3ad81"},{"rt":1125.0500000314787,"stimulus":"img/bowl.jpg","response":"y","image":"img/bowl.jpg","old_or_new":"old","task":"recognition","trial_type":"image-keyboard-response","trial_index":79,"time_elapsed":155078,"internal_node_id":"0.0-3.0-0.38","subject_id":"5e73f574163a03039f576ab7","study_id":"607de2837874a824e2e8c6ec","session_id":"6088502e7b29e33eafb3ad81","correct":true},{"rt":375.6300000241026,"stimulus":"\n      <p>How sure are you?</p>\n      <p>Rate your confidence in your answer from 1 (pure guess) to 5 (very sure) by pressing the corresponding button.</p>\n     ","response":4,"image":"img/bowl.jpg","task":"confidence","old_or_new":"old","trial_type":"html-button-response","trial_index":80,"time_elapsed":155459,"internal_node_id":"0.0-3.0-1.38","subject_id":"5e73f574163a03039f576ab7","study_id":"607de2837874a824e2e8c6ec","session_id":"6088502e7b29e33eafb3ad81"},{"rt":1116.5599999949336,"stimulus":"img/chair.jpg","response":"y","image":"img/chair.jpg","old_or_new":"old","task":"recognition","trial_type":"image-keyboard-response","trial_index":81,"time_elapsed":157093,"internal_node_id":"0.0-3.0-0.39","subject_id":"5e73f574163a03039f576ab7","study_id":"607de2837874a824e2e8c6ec","session_id":"6088502e7b29e33eafb3ad81","correct":true},{"rt":315.4400000348687,"stimulus":"\n      <p>How sure are you?</p>\n      <p>Rate your confidence in your answer from 1 (pure guess) to 5 (very sure) by pressing the corresponding button.</p>\n     ","response":4,"image":"img/chair.jpg","task":"confidence","old_or_new":"old","trial_type":"html-button-response","trial_index":82,"time_elapsed":157412,"internal_node_id":"0.0-3.0-1.39","subject_id":"5e73f574163a03039f576ab7","study_id":"607de2837874a824e2e8c6ec","session_id":"6088502e7b29e33eafb3ad81"},{"rt":907.8849999932572,"stimulus":"img/glasses.jpg","response":"y","image":"img/glasses.jpg","old_or_new":"old","task":"recognition","trial_type":"image-keyboard-response","trial_index":83,"time_elapsed":158831,"internal_node_id":"0.0-3.0-0.40","subject_id":"5e73f574163a03039f576ab7","study_id":"607de2837874a824e2e8c6ec","session_id":"6088502e7b29e33eafb3ad81","correct":true},{"rt":335.3349999524653,"stimulus":"\n      <p>How sure are you?</p>\n      <p>Rate your confidence in your answer from 1 (pure guess) to 5 (very sure) by pressing the corresponding button.</p>\n     ","response":4,"image":"img/glasses.jpg","task":"confidence","old_or_new":"old","trial_type":"html-button-response","trial_index":84,"time_elapsed":159171,"internal_node_id":"0.0-3.0-1.40","subject_id":"5e73f574163a03039f576ab7","study_id":"607de2837874a824e2e8c6ec","session_id":"6088502e7b29e33eafb3ad81"},{"rt":1042.2649999381974,"stimulus":"img/basket_alternate.jpg","response":"n","image":"img/basket_alternate.jpg","old_or_new":"new","task":"recognition","trial_type":"image-keyboard-response","trial_index":85,"time_elapsed":160720,"internal_node_id":"0.0-3.0-0.41","subject_id":"5e73f574163a03039f576ab7","study_id":"607de2837874a824e2e8c6ec","session_id":"6088502e7b29e33eafb3ad81","correct":true},{"rt":1054.1700000176206,"stimulus":"\n      <p>How sure are you?</p>\n      <p>Rate your confidence in your answer from 1 (pure guess) to 5 (very sure) by pressing the corresponding button.</p>\n     ","response":4,"image":"img/basket_alternate.jpg","task":"confidence","old_or_new":"new","trial_type":"html-button-response","trial_index":86,"time_elapsed":161779,"internal_node_id":"0.0-3.0-1.41","subject_id":"5e73f574163a03039f576ab7","study_id":"607de2837874a824e2e8c6ec","session_id":"6088502e7b29e33eafb3ad81"},{"rt":915.6850000144914,"stimulus":"img/hair_tie_alternate.jpg","response":"n","image":"img/hair_tie_alternate.jpg","old_or_new":"new","task":"recognition","trial_type":"image-keyboard-response","trial_index":87,"time_elapsed":163201,"internal_node_id":"0.0-3.0-0.42","subject_id":"5e73f574163a03039f576ab7","study_id":"607de2837874a824e2e8c6ec","session_id":"6088502e7b29e33eafb3ad81","correct":true},{"rt":518.5350000392646,"stimulus":"\n      <p>How sure are you?</p>\n      <p>Rate your confidence in your answer from 1 (pure guess) to 5 (very sure) by pressing the corresponding button.</p>\n     ","response":4,"image":"img/hair_tie_alternate.jpg","task":"confidence","old_or_new":"new","trial_type":"html-button-response","trial_index":88,"time_elapsed":163724,"internal_node_id":"0.0-3.0-1.42","subject_id":"5e73f574163a03039f576ab7","study_id":"607de2837874a824e2e8c6ec","session_id":"6088502e7b29e33eafb3ad81"},{"rt":963.5550000239164,"stimulus":"img/camera.jpg","response":"n","image":"img/camera.jpg","old_or_new":"old","task":"recognition","trial_type":"image-keyboard-response","trial_index":89,"time_elapsed":165202,"internal_node_id":"0.0-3.0-0.43","subject_id":"5e73f574163a03039f576ab7","study_id":"607de2837874a824e2e8c6ec","session_id":"6088502e7b29e33eafb3ad81","correct":false},{"rt":357.1749998955056,"stimulus":"\n      <p>How sure are you?</p>\n      <p>Rate your confidence in your answer from 1 (pure guess) to 5 (very sure) by pressing the corresponding button.</p>\n     ","response":4,"image":"img/camera.jpg","task":"confidence","old_or_new":"old","trial_type":"html-button-response","trial_index":90,"time_elapsed":165564,"internal_node_id":"0.0-3.0-1.43","subject_id":"5e73f574163a03039f576ab7","study_id":"607de2837874a824e2e8c6ec","session_id":"6088502e7b29e33eafb3ad81"},{"rt":920.7099999766797,"stimulus":"img/key.jpg","response":"y","image":"img/key.jpg","old_or_new":"old","task":"recognition","trial_type":"image-keyboard-response","trial_index":91,"time_elapsed":166994,"internal_node_id":"0.0-3.0-0.44","subject_id":"5e73f574163a03039f576ab7","study_id":"607de2837874a824e2e8c6ec","session_id":"6088502e7b29e33eafb3ad81","correct":true},{"rt":373.8049999810755,"stimulus":"\n      <p>How sure are you?</p>\n      <p>Rate your confidence in your answer from 1 (pure guess) to 5 (very sure) by pressing the corresponding button.</p>\n     ","response":4,"image":"img/key.jpg","task":"confidence","old_or_new":"old","trial_type":"html-button-response","trial_index":92,"time_elapsed":167373,"internal_node_id":"0.0-3.0-1.44","subject_id":"5e73f574163a03039f576ab7","study_id":"607de2837874a824e2e8c6ec","session_id":"6088502e7b29e33eafb3ad81"},{"rt":999.8249999480322,"stimulus":"img/helmet_alternate.jpg","response":"n","image":"img/helmet_alternate.jpg","old_or_new":"new","task":"recognition","trial_type":"image-keyboard-response","trial_index":93,"time_elapsed":168888,"internal_node_id":"0.0-3.0-0.45","subject_id":"5e73f574163a03039f576ab7","study_id":"607de2837874a824e2e8c6ec","session_id":"6088502e7b29e33eafb3ad81","correct":true},{"rt":374.2550000315532,"stimulus":"\n      <p>How sure are you?</p>\n      <p>Rate your confidence in your answer from 1 (pure guess) to 5 (very sure) by pressing the corresponding button.</p>\n     ","response":4,"image":"img/helmet_alternate.jpg","task":"confidence","old_or_new":"new","trial_type":"html-button-response","trial_index":94,"time_elapsed":169267,"internal_node_id":"0.0-3.0-1.45","subject_id":"5e73f574163a03039f576ab7","study_id":"607de2837874a824e2e8c6ec","session_id":"6088502e7b29e33eafb3ad81"},{"rt":3950.055000022985,"stimulus":"img/dryer.jpg","response":"n","image":"img/dryer.jpg","old_or_new":"old","task":"recognition","trial_type":"image-keyboard-response","trial_index":95,"time_elapsed":173738,"internal_node_id":"0.0-3.0-0.46","subject_id":"5e73f574163a03039f576ab7","study_id":"607de2837874a824e2e8c6ec","session_id":"6088502e7b29e33eafb3ad81","correct":false},{"rt":521.4949999935925,"stimulus":"\n      <p>How sure are you?</p>\n      <p>Rate your confidence in your answer from 1 (pure guess) to 5 (very sure) by pressing the corresponding button.</p>\n     ","response":4,"image":"img/dryer.jpg","task":"confidence","old_or_new":"old","trial_type":"html-button-response","trial_index":96,"time_elapsed":174267,"internal_node_id":"0.0-3.0-1.46","subject_id":"5e73f574163a03039f576ab7","study_id":"607de2837874a824e2e8c6ec","session_id":"6088502e7b29e33eafb3ad81"},{"rt":910.8550000237301,"stimulus":"img/calculator_alternate.jpg","response":"n","image":"img/calculator_alternate.jpg","old_or_new":"new","task":"recognition","trial_type":"image-keyboard-response","trial_index":97,"time_elapsed":175698,"internal_node_id":"0.0-3.0-0.47","subject_id":"5e73f574163a03039f576ab7","study_id":"607de2837874a824e2e8c6ec","session_id":"6088502e7b29e33eafb3ad81","correct":true},{"rt":341.1700000287965,"stimulus":"\n      <p>How sure are you?</p>\n      <p>Rate your confidence in your answer from 1 (pure guess) to 5 (very sure) by pressing the corresponding button.</p>\n     ","response":4,"image":"img/calculator_alternate.jpg","task":"confidence","old_or_new":"new","trial_type":"html-button-response","trial_index":98,"time_elapsed":176044,"internal_node_id":"0.0-3.0-1.47","subject_id":"5e73f574163a03039f576ab7","study_id":"607de2837874a824e2e8c6ec","session_id":"6088502e7b29e33eafb3ad81"}]