[{"success":true,"timeout":false,"failed_images":[],"failed_audio":[],"failed_video":[],"trial_type":"preload","trial_index":0,"time_elapsed":3883,"internal_node_id":"0.0-0.0","subject_id":"5fa3ee4de1dc8503f0a622e5","study_id":"607de2837874a824e2e8c6ec","session_id":"608859a1b7b0120d2d7f95de"},{"rt":1036.999999999999,"stimulus":"\n      <div style=\"width:800px; text-align: left;\">\n        <p>Welcome to day 2 of the experiment! Thanks for coming back.</p>\n        <p>You will be presented with a series of images. Images will appear one at a time.</p>\n        <p>Each image will remain on the screen until you press either <span style=\"font-weight: bold;\">\"y\" to indicate you have seen the \n        exact same photo the day before or \"n\" to indicate you have not seen the exact same photo the day before.</span></p>\n        <p>After you answer yes (\"y\") or no (\"n\"), you will then be prompted to rate your certainty on a scale of\n        1 (pure guess) to 5 (very sure).</p>\n      </div>\n    ","response":0,"trial_type":"html-button-response","trial_index":1,"time_elapsed":4922,"internal_node_id":"0.0-1.0","subject_id":"5fa3ee4de1dc8503f0a622e5","study_id":"607de2837874a824e2e8c6ec","session_id":"608859a1b7b0120d2d7f95de"},{"success":true,"trial_type":"fullscreen","trial_index":2,"time_elapsed":7405,"internal_node_id":"0.0-2.0","subject_id":"5fa3ee4de1dc8503f0a622e5","study_id":"607de2837874a824e2e8c6ec","session_id":"608859a1b7b0120d2d7f95de"},{"rt":5587,"stimulus":"img/hairbrush.jpg","response":"y","image":"img/hairbrush.jpg","old_or_new":"old","task":"recognition","trial_type":"image-keyboard-response","trial_index":3,"time_elapsed":12997,"internal_node_id":"0.0-3.0-0.0","subject_id":"5fa3ee4de1dc8503f0a622e5","study_id":"607de2837874a824e2e8c6ec","session_id":"608859a1b7b0120d2d7f95de","correct":true},{"rt":2482,"stimulus":"\n      <p>How sure are you?</p>\n      <p>Rate your confidence in your answer from 1 (pure guess) to 5 (very sure) by pressing the corresponding button.</p>\n     ","response":4,"image":"img/hairbrush.jpg","task":"confidence","old_or_new":"old","trial_type":"html-button-response","trial_index":4,"time_elapsed":15481,"internal_node_id":"0.0-3.0-1.0","subject_id":"5fa3ee4de1dc8503f0a622e5","study_id":"607de2837874a824e2e8c6ec","session_id":"608859a1b7b0120d2d7f95de"},{"rt":1600,"stimulus":"img/camera.jpg","response":"y","image":"img/camera.jpg","old_or_new":"old","task":"recognition","trial_type":"image-keyboard-response","trial_index":5,"time_elapsed":17586,"internal_node_id":"0.0-3.0-0.1","subject_id":"5fa3ee4de1dc8503f0a622e5","study_id":"607de2837874a824e2e8c6ec","session_id":"608859a1b7b0120d2d7f95de","correct":true},{"rt":1902,"stimulus":"\n      <p>How sure are you?</p>\n      <p>Rate your confidence in your answer from 1 (pure guess) to 5 (very sure) by pressing the corresponding button.</p>\n     ","response":4,"image":"img/camera.jpg","task":"confidence","old_or_new":"old","trial_type":"html-button-response","trial_index":6,"time_elapsed":19490,"internal_node_id":"0.0-3.0-1.1","subject_id":"5fa3ee4de1dc8503f0a622e5","study_id":"607de2837874a824e2e8c6ec","session_id":"608859a1b7b0120d2d7f95de"},{"rt":2225,"stimulus":"img/glasses.jpg","response":"y","image":"img/glasses.jpg","old_or_new":"old","task":"recognition","trial_type":"image-keyboard-response","trial_index":7,"time_elapsed":22220,"internal_node_id":"0.0-3.0-0.2","subject_id":"5fa3ee4de1dc8503f0a622e5","study_id":"607de2837874a824e2e8c6ec","session_id":"608859a1b7b0120d2d7f95de","correct":true},{"rt":947.9999999999964,"stimulus":"\n      <p>How sure are you?</p>\n      <p>Rate your confidence in your answer from 1 (pure guess) to 5 (very sure) by pressing the corresponding button.</p>\n     ","response":4,"image":"img/glasses.jpg","task":"confidence","old_or_new":"old","trial_type":"html-button-response","trial_index":8,"time_elapsed":23170,"internal_node_id":"0.0-3.0-1.2","subject_id":"5fa3ee4de1dc8503f0a622e5","study_id":"607de2837874a824e2e8c6ec","session_id":"608859a1b7b0120d2d7f95de"},{"rt":1063,"stimulus":"img/basket.jpg","response":"y","image":"img/basket.jpg","old_or_new":"old","task":"recognition","trial_type":"image-keyboard-response","trial_index":9,"time_elapsed":24738,"internal_node_id":"0.0-3.0-0.3","subject_id":"5fa3ee4de1dc8503f0a622e5","study_id":"607de2837874a824e2e8c6ec","session_id":"608859a1b7b0120d2d7f95de","correct":true},{"rt":934,"stimulus":"\n      <p>How sure are you?</p>\n      <p>Rate your confidence in your answer from 1 (pure guess) to 5 (very sure) by pressing the corresponding button.</p>\n     ","response":4,"image":"img/basket.jpg","task":"confidence","old_or_new":"old","trial_type":"html-button-response","trial_index":10,"time_elapsed":25673,"internal_node_id":"0.0-3.0-1.3","subject_id":"5fa3ee4de1dc8503f0a622e5","study_id":"607de2837874a824e2e8c6ec","session_id":"608859a1b7b0120d2d7f95de"},{"rt":2443,"stimulus":"img/leaf_alternate.jpg","response":"n","image":"img/leaf_alternate.jpg","old_or_new":"new","task":"recognition","trial_type":"image-keyboard-response","trial_index":11,"time_elapsed":28622,"internal_node_id":"0.0-3.0-0.4","subject_id":"5fa3ee4de1dc8503f0a622e5","study_id":"607de2837874a824e2e8c6ec","session_id":"608859a1b7b0120d2d7f95de","correct":true},{"rt":985,"stimulus":"\n      <p>How sure are you?</p>\n      <p>Rate your confidence in your answer from 1 (pure guess) to 5 (very sure) by pressing the corresponding button.</p>\n     ","response":4,"image":"img/leaf_alternate.jpg","task":"confidence","old_or_new":"new","trial_type":"html-button-response","trial_index":12,"time_elapsed":29608,"internal_node_id":"0.0-3.0-1.4","subject_id":"5fa3ee4de1dc8503f0a622e5","study_id":"607de2837874a824e2e8c6ec","session_id":"608859a1b7b0120d2d7f95de"},{"rt":1142,"stimulus":"img/backpack.jpg","response":"y","image":"img/backpack.jpg","old_or_new":"old","task":"recognition","trial_type":"image-keyboard-response","trial_index":13,"time_elapsed":31254,"internal_node_id":"0.0-3.0-0.5","subject_id":"5fa3ee4de1dc8503f0a622e5","study_id":"607de2837874a824e2e8c6ec","session_id":"608859a1b7b0120d2d7f95de","correct":true},{"rt":960,"stimulus":"\n      <p>How sure are you?</p>\n      <p>Rate your confidence in your answer from 1 (pure guess) to 5 (very sure) by pressing the corresponding button.</p>\n     ","response":4,"image":"img/backpack.jpg","task":"confidence","old_or_new":"old","trial_type":"html-button-response","trial_index":14,"time_elapsed":32216,"internal_node_id":"0.0-3.0-1.5","subject_id":"5fa3ee4de1dc8503f0a622e5","study_id":"607de2837874a824e2e8c6ec","session_id":"608859a1b7b0120d2d7f95de"},{"rt":1351,"stimulus":"img/helmet_alternate.jpg","response":"n","image":"img/helmet_alternate.jpg","old_or_new":"new","task":"recognition","trial_type":"image-keyboard-response","trial_index":15,"time_elapsed":34071,"internal_node_id":"0.0-3.0-0.6","subject_id":"5fa3ee4de1dc8503f0a622e5","study_id":"607de2837874a824e2e8c6ec","session_id":"608859a1b7b0120d2d7f95de","correct":true},{"rt":911,"stimulus":"\n      <p>How sure are you?</p>\n      <p>Rate your confidence in your answer from 1 (pure guess) to 5 (very sure) by pressing the corresponding button.</p>\n     ","response":4,"image":"img/helmet_alternate.jpg","task":"confidence","old_or_new":"new","trial_type":"html-button-response","trial_index":16,"time_elapsed":34984,"internal_node_id":"0.0-3.0-1.6","subject_id":"5fa3ee4de1dc8503f0a622e5","study_id":"607de2837874a824e2e8c6ec","session_id":"608859a1b7b0120d2d7f95de"},{"rt":1104,"stimulus":"img/calculator_alternate.jpg","response":"n","image":"img/calculator_alternate.jpg","old_or_new":"new","task":"recognition","trial_type":"image-keyboard-response","trial_index":17,"time_elapsed":36593,"internal_node_id":"0.0-3.0-0.7","subject_id":"5fa3ee4de1dc8503f0a622e5","study_id":"607de2837874a824e2e8c6ec","session_id":"608859a1b7b0120d2d7f95de","correct":true},{"rt":972.9999999999927,"stimulus":"\n      <p>How sure are you?</p>\n      <p>Rate your confidence in your answer from 1 (pure guess) to 5 (very sure) by pressing the corresponding button.</p>\n     ","response":4,"image":"img/calculator_alternate.jpg","task":"confidence","old_or_new":"new","trial_type":"html-button-response","trial_index":18,"time_elapsed":37568,"internal_node_id":"0.0-3.0-1.7","subject_id":"5fa3ee4de1dc8503f0a622e5","study_id":"607de2837874a824e2e8c6ec","session_id":"608859a1b7b0120d2d7f95de"},{"rt":685,"stimulus":"img/fan_alternate.jpg","response":"n","image":"img/fan_alternate.jpg","old_or_new":"new","task":"recognition","trial_type":"image-keyboard-response","trial_index":19,"time_elapsed":38757,"internal_node_id":"0.0-3.0-0.8","subject_id":"5fa3ee4de1dc8503f0a622e5","study_id":"607de2837874a824e2e8c6ec","session_id":"608859a1b7b0120d2d7f95de","correct":true},{"rt":870,"stimulus":"\n      <p>How sure are you?</p>\n      <p>Rate your confidence in your answer from 1 (pure guess) to 5 (very sure) by pressing the corresponding button.</p>\n     ","response":4,"image":"img/fan_alternate.jpg","task":"confidence","old_or_new":"new","trial_type":"html-button-response","trial_index":20,"time_elapsed":39629,"internal_node_id":"0.0-3.0-1.8","subject_id":"5fa3ee4de1dc8503f0a622e5","study_id":"607de2837874a824e2e8c6ec","session_id":"608859a1b7b0120d2d7f95de"},{"rt":1810,"stimulus":"img/calculator.jpg","response":"n","image":"img/calculator.jpg","old_or_new":"old","task":"recognition","trial_type":"image-keyboard-response","trial_index":21,"time_elapsed":41944,"internal_node_id":"0.0-3.0-0.9","subject_id":"5fa3ee4de1dc8503f0a622e5","study_id":"607de2837874a824e2e8c6ec","session_id":"608859a1b7b0120d2d7f95de","correct":false},{"rt":795,"stimulus":"\n      <p>How sure are you?</p>\n      <p>Rate your confidence in your answer from 1 (pure guess) to 5 (very sure) by pressing the corresponding button.</p>\n     ","response":4,"image":"img/calculator.jpg","task":"confidence","old_or_new":"old","trial_type":"html-button-response","trial_index":22,"time_elapsed":42741,"internal_node_id":"0.0-3.0-1.9","subject_id":"5fa3ee4de1dc8503f0a622e5","study_id":"607de2837874a824e2e8c6ec","session_id":"608859a1b7b0120d2d7f95de"},{"rt":745,"stimulus":"img/ladder.jpg","response":"y","image":"img/ladder.jpg","old_or_new":"old","task":"recognition","trial_type":"image-keyboard-response","trial_index":23,"time_elapsed":43991,"internal_node_id":"0.0-3.0-0.10","subject_id":"5fa3ee4de1dc8503f0a622e5","study_id":"607de2837874a824e2e8c6ec","session_id":"608859a1b7b0120d2d7f95de","correct":true},{"rt":1516,"stimulus":"\n      <p>How sure are you?</p>\n      <p>Rate your confidence in your answer from 1 (pure guess) to 5 (very sure) by pressing the corresponding button.</p>\n     ","response":3,"image":"img/ladder.jpg","task":"confidence","old_or_new":"old","trial_type":"html-button-response","trial_index":24,"time_elapsed":45509,"internal_node_id":"0.0-3.0-1.10","subject_id":"5fa3ee4de1dc8503f0a622e5","study_id":"607de2837874a824e2e8c6ec","session_id":"608859a1b7b0120d2d7f95de"},{"rt":1705,"stimulus":"img/grapes.jpg","response":"y","image":"img/grapes.jpg","old_or_new":"old","task":"recognition","trial_type":"image-keyboard-response","trial_index":25,"time_elapsed":47719,"internal_node_id":"0.0-3.0-0.11","subject_id":"5fa3ee4de1dc8503f0a622e5","study_id":"607de2837874a824e2e8c6ec","session_id":"608859a1b7b0120d2d7f95de","correct":true},{"rt":931,"stimulus":"\n      <p>How sure are you?</p>\n      <p>Rate your confidence in your answer from 1 (pure guess) to 5 (very sure) by pressing the corresponding button.</p>\n     ","response":4,"image":"img/grapes.jpg","task":"confidence","old_or_new":"old","trial_type":"html-button-response","trial_index":26,"time_elapsed":48651,"internal_node_id":"0.0-3.0-1.11","subject_id":"5fa3ee4de1dc8503f0a622e5","study_id":"607de2837874a824e2e8c6ec","session_id":"608859a1b7b0120d2d7f95de"},{"rt":2625.9999999999927,"stimulus":"img/folder_alternate.jpg","response":"n","image":"img/folder_alternate.jpg","old_or_new":"new","task":"recognition","trial_type":"image-keyboard-response","trial_index":27,"time_elapsed":51781,"internal_node_id":"0.0-3.0-0.12","subject_id":"5fa3ee4de1dc8503f0a622e5","study_id":"607de2837874a824e2e8c6ec","session_id":"608859a1b7b0120d2d7f95de","correct":true},{"rt":1235.9999999999927,"stimulus":"\n      <p>How sure are you?</p>\n      <p>Rate your confidence in your answer from 1 (pure guess) to 5 (very sure) by pressing the corresponding button.</p>\n     ","response":4,"image":"img/folder_alternate.jpg","task":"confidence","old_or_new":"new","trial_type":"html-button-response","trial_index":28,"time_elapsed":53020,"internal_node_id":"0.0-3.0-1.12","subject_id":"5fa3ee4de1dc8503f0a622e5","study_id":"607de2837874a824e2e8c6ec","session_id":"608859a1b7b0120d2d7f95de"},{"rt":956.9999999999927,"stimulus":"img/hourglass.jpg","response":"y","image":"img/hourglass.jpg","old_or_new":"old","task":"recognition","trial_type":"image-keyboard-response","trial_index":29,"time_elapsed":54481,"internal_node_id":"0.0-3.0-0.13","subject_id":"5fa3ee4de1dc8503f0a622e5","study_id":"607de2837874a824e2e8c6ec","session_id":"608859a1b7b0120d2d7f95de","correct":true},{"rt":1224.0000000000073,"stimulus":"\n      <p>How sure are you?</p>\n      <p>Rate your confidence in your answer from 1 (pure guess) to 5 (very sure) by pressing the corresponding button.</p>\n     ","response":3,"image":"img/hourglass.jpg","task":"confidence","old_or_new":"old","trial_type":"html-button-response","trial_index":30,"time_elapsed":55707,"internal_node_id":"0.0-3.0-1.13","subject_id":"5fa3ee4de1dc8503f0a622e5","study_id":"607de2837874a824e2e8c6ec","session_id":"608859a1b7b0120d2d7f95de"},{"rt":808,"stimulus":"img/hair_tie.jpg","response":"y","image":"img/hair_tie.jpg","old_or_new":"old","task":"recognition","trial_type":"image-keyboard-response","trial_index":31,"time_elapsed":57020,"internal_node_id":"0.0-3.0-0.14","subject_id":"5fa3ee4de1dc8503f0a622e5","study_id":"607de2837874a824e2e8c6ec","session_id":"608859a1b7b0120d2d7f95de","correct":true},{"rt":683,"stimulus":"\n      <p>How sure are you?</p>\n      <p>Rate your confidence in your answer from 1 (pure guess) to 5 (very sure) by pressing the corresponding button.</p>\n     ","response":4,"image":"img/hair_tie.jpg","task":"confidence","old_or_new":"old","trial_type":"html-button-response","trial_index":32,"time_elapsed":57705,"internal_node_id":"0.0-3.0-1.14","subject_id":"5fa3ee4de1dc8503f0a622e5","study_id":"607de2837874a824e2e8c6ec","session_id":"608859a1b7b0120d2d7f95de"},{"rt":718.9999999999927,"stimulus":"img/drum.jpg","response":"y","image":"img/drum.jpg","old_or_new":"old","task":"recognition","trial_type":"image-keyboard-response","trial_index":33,"time_elapsed":58929,"internal_node_id":"0.0-3.0-0.15","subject_id":"5fa3ee4de1dc8503f0a622e5","study_id":"607de2837874a824e2e8c6ec","session_id":"608859a1b7b0120d2d7f95de","correct":true},{"rt":1044,"stimulus":"\n      <p>How sure are you?</p>\n      <p>Rate your confidence in your answer from 1 (pure guess) to 5 (very sure) by pressing the corresponding button.</p>\n     ","response":4,"image":"img/drum.jpg","task":"confidence","old_or_new":"old","trial_type":"html-button-response","trial_index":34,"time_elapsed":59976,"internal_node_id":"0.0-3.0-1.15","subject_id":"5fa3ee4de1dc8503f0a622e5","study_id":"607de2837874a824e2e8c6ec","session_id":"608859a1b7b0120d2d7f95de"},{"rt":551,"stimulus":"img/hat.jpg","response":"y","image":"img/hat.jpg","old_or_new":"old","task":"recognition","trial_type":"image-keyboard-response","trial_index":35,"time_elapsed":61032,"internal_node_id":"0.0-3.0-0.16","subject_id":"5fa3ee4de1dc8503f0a622e5","study_id":"607de2837874a824e2e8c6ec","session_id":"608859a1b7b0120d2d7f95de","correct":true},{"rt":811.9999999999927,"stimulus":"\n      <p>How sure are you?</p>\n      <p>Rate your confidence in your answer from 1 (pure guess) to 5 (very sure) by pressing the corresponding button.</p>\n     ","response":4,"image":"img/hat.jpg","task":"confidence","old_or_new":"old","trial_type":"html-button-response","trial_index":36,"time_elapsed":61845,"internal_node_id":"0.0-3.0-1.16","subject_id":"5fa3ee4de1dc8503f0a622e5","study_id":"607de2837874a824e2e8c6ec","session_id":"608859a1b7b0120d2d7f95de"},{"rt":607,"stimulus":"img/key.jpg","response":"y","image":"img/key.jpg","old_or_new":"old","task":"recognition","trial_type":"image-keyboard-response","trial_index":37,"time_elapsed":62957,"internal_node_id":"0.0-3.0-0.17","subject_id":"5fa3ee4de1dc8503f0a622e5","study_id":"607de2837874a824e2e8c6ec","session_id":"608859a1b7b0120d2d7f95de","correct":true},{"rt":1004,"stimulus":"\n      <p>How sure are you?</p>\n      <p>Rate your confidence in your answer from 1 (pure guess) to 5 (very sure) by pressing the corresponding button.</p>\n     ","response":4,"image":"img/key.jpg","task":"confidence","old_or_new":"old","trial_type":"html-button-response","trial_index":38,"time_elapsed":63963,"internal_node_id":"0.0-3.0-1.17","subject_id":"5fa3ee4de1dc8503f0a622e5","study_id":"607de2837874a824e2e8c6ec","session_id":"608859a1b7b0120d2d7f95de"},{"rt":846,"stimulus":"img/bowl_alternate.jpg","response":"n","image":"img/bowl_alternate.jpg","old_or_new":"new","task":"recognition","trial_type":"image-keyboard-response","trial_index":39,"time_elapsed":65314,"internal_node_id":"0.0-3.0-0.18","subject_id":"5fa3ee4de1dc8503f0a622e5","study_id":"607de2837874a824e2e8c6ec","session_id":"608859a1b7b0120d2d7f95de","correct":true},{"rt":1190,"stimulus":"\n      <p>How sure are you?</p>\n      <p>Rate your confidence in your answer from 1 (pure guess) to 5 (very sure) by pressing the corresponding button.</p>\n     ","response":4,"image":"img/bowl_alternate.jpg","task":"confidence","old_or_new":"new","trial_type":"html-button-response","trial_index":40,"time_elapsed":66506,"internal_node_id":"0.0-3.0-1.18","subject_id":"5fa3ee4de1dc8503f0a622e5","study_id":"607de2837874a824e2e8c6ec","session_id":"608859a1b7b0120d2d7f95de"},{"rt":775,"stimulus":"img/drum_alternate.jpg","response":"n","image":"img/drum_alternate.jpg","old_or_new":"new","task":"recognition","trial_type":"image-keyboard-response","trial_index":41,"time_elapsed":67786,"internal_node_id":"0.0-3.0-0.19","subject_id":"5fa3ee4de1dc8503f0a622e5","study_id":"607de2837874a824e2e8c6ec","session_id":"608859a1b7b0120d2d7f95de","correct":true},{"rt":1013,"stimulus":"\n      <p>How sure are you?</p>\n      <p>Rate your confidence in your answer from 1 (pure guess) to 5 (very sure) by pressing the corresponding button.</p>\n     ","response":4,"image":"img/drum_alternate.jpg","task":"confidence","old_or_new":"new","trial_type":"html-button-response","trial_index":42,"time_elapsed":68801,"internal_node_id":"0.0-3.0-1.19","subject_id":"5fa3ee4de1dc8503f0a622e5","study_id":"607de2837874a824e2e8c6ec","session_id":"608859a1b7b0120d2d7f95de"},{"rt":948,"stimulus":"img/dryer_alternate.jpg","response":"n","image":"img/dryer_alternate.jpg","old_or_new":"new","task":"recognition","trial_type":"image-keyboard-response","trial_index":43,"time_elapsed":70253,"internal_node_id":"0.0-3.0-0.20","subject_id":"5fa3ee4de1dc8503f0a622e5","study_id":"607de2837874a824e2e8c6ec","session_id":"608859a1b7b0120d2d7f95de","correct":true},{"rt":1547,"stimulus":"\n      <p>How sure are you?</p>\n      <p>Rate your confidence in your answer from 1 (pure guess) to 5 (very sure) by pressing the corresponding button.</p>\n     ","response":4,"image":"img/dryer_alternate.jpg","task":"confidence","old_or_new":"new","trial_type":"html-button-response","trial_index":44,"time_elapsed":71802,"internal_node_id":"0.0-3.0-1.20","subject_id":"5fa3ee4de1dc8503f0a622e5","study_id":"607de2837874a824e2e8c6ec","session_id":"608859a1b7b0120d2d7f95de"},{"rt":1180,"stimulus":"img/glasses_alternate.jpg","response":"n","image":"img/glasses_alternate.jpg","old_or_new":"new","task":"recognition","trial_type":"image-keyboard-response","trial_index":45,"time_elapsed":73487,"internal_node_id":"0.0-3.0-0.21","subject_id":"5fa3ee4de1dc8503f0a622e5","study_id":"607de2837874a824e2e8c6ec","session_id":"608859a1b7b0120d2d7f95de","correct":true},{"rt":1025,"stimulus":"\n      <p>How sure are you?</p>\n      <p>Rate your confidence in your answer from 1 (pure guess) to 5 (very sure) by pressing the corresponding button.</p>\n     ","response":4,"image":"img/glasses_alternate.jpg","task":"confidence","old_or_new":"new","trial_type":"html-button-response","trial_index":46,"time_elapsed":74515,"internal_node_id":"0.0-3.0-1.21","subject_id":"5fa3ee4de1dc8503f0a622e5","study_id":"607de2837874a824e2e8c6ec","session_id":"608859a1b7b0120d2d7f95de"},{"rt":873,"stimulus":"img/leaf.jpg","response":"y","image":"img/leaf.jpg","old_or_new":"old","task":"recognition","trial_type":"image-keyboard-response","trial_index":47,"time_elapsed":75892,"internal_node_id":"0.0-3.0-0.22","subject_id":"5fa3ee4de1dc8503f0a622e5","study_id":"607de2837874a824e2e8c6ec","session_id":"608859a1b7b0120d2d7f95de","correct":true},{"rt":1076,"stimulus":"\n      <p>How sure are you?</p>\n      <p>Rate your confidence in your answer from 1 (pure guess) to 5 (very sure) by pressing the corresponding button.</p>\n     ","response":4,"image":"img/leaf.jpg","task":"confidence","old_or_new":"old","trial_type":"html-button-response","trial_index":48,"time_elapsed":76970,"internal_node_id":"0.0-3.0-1.22","subject_id":"5fa3ee4de1dc8503f0a622e5","study_id":"607de2837874a824e2e8c6ec","session_id":"608859a1b7b0120d2d7f95de"},{"rt":677,"stimulus":"img/chair.jpg","response":"y","image":"img/chair.jpg","old_or_new":"old","task":"recognition","trial_type":"image-keyboard-response","trial_index":49,"time_elapsed":78152,"internal_node_id":"0.0-3.0-0.23","subject_id":"5fa3ee4de1dc8503f0a622e5","study_id":"607de2837874a824e2e8c6ec","session_id":"608859a1b7b0120d2d7f95de","correct":true},{"rt":1680,"stimulus":"\n      <p>How sure are you?</p>\n      <p>Rate your confidence in your answer from 1 (pure guess) to 5 (very sure) by pressing the corresponding button.</p>\n     ","response":4,"image":"img/chair.jpg","task":"confidence","old_or_new":"old","trial_type":"html-button-response","trial_index":50,"time_elapsed":79835,"internal_node_id":"0.0-3.0-1.23","subject_id":"5fa3ee4de1dc8503f0a622e5","study_id":"607de2837874a824e2e8c6ec","session_id":"608859a1b7b0120d2d7f95de"},{"rt":588.0000000000146,"stimulus":"img/folder.jpg","response":"y","image":"img/folder.jpg","old_or_new":"old","task":"recognition","trial_type":"image-keyboard-response","trial_index":51,"time_elapsed":80928,"internal_node_id":"0.0-3.0-0.24","subject_id":"5fa3ee4de1dc8503f0a622e5","study_id":"607de2837874a824e2e8c6ec","session_id":"608859a1b7b0120d2d7f95de","correct":true},{"rt":1013.9999999999854,"stimulus":"\n      <p>How sure are you?</p>\n      <p>Rate your confidence in your answer from 1 (pure guess) to 5 (very sure) by pressing the corresponding button.</p>\n     ","response":4,"image":"img/folder.jpg","task":"confidence","old_or_new":"old","trial_type":"html-button-response","trial_index":52,"time_elapsed":81944,"internal_node_id":"0.0-3.0-1.24","subject_id":"5fa3ee4de1dc8503f0a622e5","study_id":"607de2837874a824e2e8c6ec","session_id":"608859a1b7b0120d2d7f95de"},{"rt":516,"stimulus":"img/key_alternate.jpg","response":"y","image":"img/key_alternate.jpg","old_or_new":"new","task":"recognition","trial_type":"image-keyboard-response","trial_index":53,"time_elapsed":82966,"internal_node_id":"0.0-3.0-0.25","subject_id":"5fa3ee4de1dc8503f0a622e5","study_id":"607de2837874a824e2e8c6ec","session_id":"608859a1b7b0120d2d7f95de","correct":false},{"rt":4663,"stimulus":"\n      <p>How sure are you?</p>\n      <p>Rate your confidence in your answer from 1 (pure guess) to 5 (very sure) by pressing the corresponding button.</p>\n     ","response":0,"image":"img/key_alternate.jpg","task":"confidence","old_or_new":"new","trial_type":"html-button-response","trial_index":54,"time_elapsed":87630,"internal_node_id":"0.0-3.0-1.25","subject_id":"5fa3ee4de1dc8503f0a622e5","study_id":"607de2837874a824e2e8c6ec","session_id":"608859a1b7b0120d2d7f95de"},{"rt":5477,"stimulus":"img/camera_alternate.jpg","response":"n","image":"img/camera_alternate.jpg","old_or_new":"new","task":"recognition","trial_type":"image-keyboard-response","trial_index":55,"time_elapsed":93612,"internal_node_id":"0.0-3.0-0.26","subject_id":"5fa3ee4de1dc8503f0a622e5","study_id":"607de2837874a824e2e8c6ec","session_id":"608859a1b7b0120d2d7f95de","correct":true},{"rt":1324,"stimulus":"\n      <p>How sure are you?</p>\n      <p>Rate your confidence in your answer from 1 (pure guess) to 5 (very sure) by pressing the corresponding button.</p>\n     ","response":4,"image":"img/camera_alternate.jpg","task":"confidence","old_or_new":"new","trial_type":"html-button-response","trial_index":56,"time_elapsed":94938,"internal_node_id":"0.0-3.0-1.26","subject_id":"5fa3ee4de1dc8503f0a622e5","study_id":"607de2837874a824e2e8c6ec","session_id":"608859a1b7b0120d2d7f95de"},{"rt":982,"stimulus":"img/fan.jpg","response":"y","image":"img/fan.jpg","old_or_new":"old","task":"recognition","trial_type":"image-keyboard-response","trial_index":57,"time_elapsed":96425,"internal_node_id":"0.0-3.0-0.27","subject_id":"5fa3ee4de1dc8503f0a622e5","study_id":"607de2837874a824e2e8c6ec","session_id":"608859a1b7b0120d2d7f95de","correct":true},{"rt":813.9999999999854,"stimulus":"\n      <p>How sure are you?</p>\n      <p>Rate your confidence in your answer from 1 (pure guess) to 5 (very sure) by pressing the corresponding button.</p>\n     ","response":4,"image":"img/fan.jpg","task":"confidence","old_or_new":"old","trial_type":"html-button-response","trial_index":58,"time_elapsed":97241,"internal_node_id":"0.0-3.0-1.27","subject_id":"5fa3ee4de1dc8503f0a622e5","study_id":"607de2837874a824e2e8c6ec","session_id":"608859a1b7b0120d2d7f95de"},{"rt":808,"stimulus":"img/ladder_alternate.jpg","response":"n","image":"img/ladder_alternate.jpg","old_or_new":"new","task":"recognition","trial_type":"image-keyboard-response","trial_index":59,"time_elapsed":98553,"internal_node_id":"0.0-3.0-0.28","subject_id":"5fa3ee4de1dc8503f0a622e5","study_id":"607de2837874a824e2e8c6ec","session_id":"608859a1b7b0120d2d7f95de","correct":true},{"rt":5730.999999999985,"stimulus":"\n      <p>How sure are you?</p>\n      <p>Rate your confidence in your answer from 1 (pure guess) to 5 (very sure) by pressing the corresponding button.</p>\n     ","response":4,"image":"img/ladder_alternate.jpg","task":"confidence","old_or_new":"new","trial_type":"html-button-response","trial_index":60,"time_elapsed":104286,"internal_node_id":"0.0-3.0-1.28","subject_id":"5fa3ee4de1dc8503f0a622e5","study_id":"607de2837874a824e2e8c6ec","session_id":"608859a1b7b0120d2d7f95de"},{"rt":1367,"stimulus":"img/grapes_alternate.jpg","response":"n","image":"img/grapes_alternate.jpg","old_or_new":"new","task":"recognition","trial_type":"image-keyboard-response","trial_index":61,"time_elapsed":106157,"internal_node_id":"0.0-3.0-0.29","subject_id":"5fa3ee4de1dc8503f0a622e5","study_id":"607de2837874a824e2e8c6ec","session_id":"608859a1b7b0120d2d7f95de","correct":true},{"rt":944,"stimulus":"\n      <p>How sure are you?</p>\n      <p>Rate your confidence in your answer from 1 (pure guess) to 5 (very sure) by pressing the corresponding button.</p>\n     ","response":4,"image":"img/grapes_alternate.jpg","task":"confidence","old_or_new":"new","trial_type":"html-button-response","trial_index":62,"time_elapsed":107103,"internal_node_id":"0.0-3.0-1.29","subject_id":"5fa3ee4de1dc8503f0a622e5","study_id":"607de2837874a824e2e8c6ec","session_id":"608859a1b7b0120d2d7f95de"},{"rt":664,"stimulus":"img/lightbulb.jpg","response":"n","image":"img/lightbulb.jpg","old_or_new":"old","task":"recognition","trial_type":"image-keyboard-response","trial_index":63,"time_elapsed":108272,"internal_node_id":"0.0-3.0-0.30","subject_id":"5fa3ee4de1dc8503f0a622e5","study_id":"607de2837874a824e2e8c6ec","session_id":"608859a1b7b0120d2d7f95de","correct":false},{"rt":1181,"stimulus":"\n      <p>How sure are you?</p>\n      <p>Rate your confidence in your answer from 1 (pure guess) to 5 (very sure) by pressing the corresponding button.</p>\n     ","response":4,"image":"img/lightbulb.jpg","task":"confidence","old_or_new":"old","trial_type":"html-button-response","trial_index":64,"time_elapsed":109455,"internal_node_id":"0.0-3.0-1.30","subject_id":"5fa3ee4de1dc8503f0a622e5","study_id":"607de2837874a824e2e8c6ec","session_id":"608859a1b7b0120d2d7f95de"},{"rt":593.9999999999854,"stimulus":"img/chair_alternate.jpg","response":"n","image":"img/chair_alternate.jpg","old_or_new":"new","task":"recognition","trial_type":"image-keyboard-response","trial_index":65,"time_elapsed":110554,"internal_node_id":"0.0-3.0-0.31","subject_id":"5fa3ee4de1dc8503f0a622e5","study_id":"607de2837874a824e2e8c6ec","session_id":"608859a1b7b0120d2d7f95de","correct":true},{"rt":816,"stimulus":"\n      <p>How sure are you?</p>\n      <p>Rate your confidence in your answer from 1 (pure guess) to 5 (very sure) by pressing the corresponding button.</p>\n     ","response":4,"image":"img/chair_alternate.jpg","task":"confidence","old_or_new":"new","trial_type":"html-button-response","trial_index":66,"time_elapsed":111372,"internal_node_id":"0.0-3.0-1.31","subject_id":"5fa3ee4de1dc8503f0a622e5","study_id":"607de2837874a824e2e8c6ec","session_id":"608859a1b7b0120d2d7f95de"},{"rt":696.0000000000146,"stimulus":"img/hair_tie_alternate.jpg","response":"n","image":"img/hair_tie_alternate.jpg","old_or_new":"new","task":"recognition","trial_type":"image-keyboard-response","trial_index":67,"time_elapsed":112573,"internal_node_id":"0.0-3.0-0.32","subject_id":"5fa3ee4de1dc8503f0a622e5","study_id":"607de2837874a824e2e8c6ec","session_id":"608859a1b7b0120d2d7f95de","correct":true},{"rt":1261,"stimulus":"\n      <p>How sure are you?</p>\n      <p>Rate your confidence in your answer from 1 (pure guess) to 5 (very sure) by pressing the corresponding button.</p>\n     ","response":4,"image":"img/hair_tie_alternate.jpg","task":"confidence","old_or_new":"new","trial_type":"html-button-response","trial_index":68,"time_elapsed":113835,"internal_node_id":"0.0-3.0-1.32","subject_id":"5fa3ee4de1dc8503f0a622e5","study_id":"607de2837874a824e2e8c6ec","session_id":"608859a1b7b0120d2d7f95de"},{"rt":687,"stimulus":"img/globe.jpg","response":"y","image":"img/globe.jpg","old_or_new":"old","task":"recognition","trial_type":"image-keyboard-response","trial_index":69,"time_elapsed":115026,"internal_node_id":"0.0-3.0-0.33","subject_id":"5fa3ee4de1dc8503f0a622e5","study_id":"607de2837874a824e2e8c6ec","session_id":"608859a1b7b0120d2d7f95de","correct":true},{"rt":910.0000000000146,"stimulus":"\n      <p>How sure are you?</p>\n      <p>Rate your confidence in your answer from 1 (pure guess) to 5 (very sure) by pressing the corresponding button.</p>\n     ","response":4,"image":"img/globe.jpg","task":"confidence","old_or_new":"old","trial_type":"html-button-response","trial_index":70,"time_elapsed":115938,"internal_node_id":"0.0-3.0-1.33","subject_id":"5fa3ee4de1dc8503f0a622e5","study_id":"607de2837874a824e2e8c6ec","session_id":"608859a1b7b0120d2d7f95de"},{"rt":706,"stimulus":"img/globe_alternate.jpg","response":"n","image":"img/globe_alternate.jpg","old_or_new":"new","task":"recognition","trial_type":"image-keyboard-response","trial_index":71,"time_elapsed":117149,"internal_node_id":"0.0-3.0-0.34","subject_id":"5fa3ee4de1dc8503f0a622e5","study_id":"607de2837874a824e2e8c6ec","session_id":"608859a1b7b0120d2d7f95de","correct":true},{"rt":889,"stimulus":"\n      <p>How sure are you?</p>\n      <p>Rate your confidence in your answer from 1 (pure guess) to 5 (very sure) by pressing the corresponding button.</p>\n     ","response":4,"image":"img/globe_alternate.jpg","task":"confidence","old_or_new":"new","trial_type":"html-button-response","trial_index":72,"time_elapsed":118039,"internal_node_id":"0.0-3.0-1.34","subject_id":"5fa3ee4de1dc8503f0a622e5","study_id":"607de2837874a824e2e8c6ec","session_id":"608859a1b7b0120d2d7f95de"},{"rt":644,"stimulus":"img/lightbulb_alternate.jpg","response":"n","image":"img/lightbulb_alternate.jpg","old_or_new":"new","task":"recognition","trial_type":"image-keyboard-response","trial_index":73,"time_elapsed":119187,"internal_node_id":"0.0-3.0-0.35","subject_id":"5fa3ee4de1dc8503f0a622e5","study_id":"607de2837874a824e2e8c6ec","session_id":"608859a1b7b0120d2d7f95de","correct":true},{"rt":1137,"stimulus":"\n      <p>How sure are you?</p>\n      <p>Rate your confidence in your answer from 1 (pure guess) to 5 (very sure) by pressing the corresponding button.</p>\n     ","response":4,"image":"img/lightbulb_alternate.jpg","task":"confidence","old_or_new":"new","trial_type":"html-button-response","trial_index":74,"time_elapsed":120326,"internal_node_id":"0.0-3.0-1.35","subject_id":"5fa3ee4de1dc8503f0a622e5","study_id":"607de2837874a824e2e8c6ec","session_id":"608859a1b7b0120d2d7f95de"},{"rt":684,"stimulus":"img/dryer.jpg","response":"y","image":"img/dryer.jpg","old_or_new":"old","task":"recognition","trial_type":"image-keyboard-response","trial_index":75,"time_elapsed":121514,"internal_node_id":"0.0-3.0-0.36","subject_id":"5fa3ee4de1dc8503f0a622e5","study_id":"607de2837874a824e2e8c6ec","session_id":"608859a1b7b0120d2d7f95de","correct":true},{"rt":952.0000000000146,"stimulus":"\n      <p>How sure are you?</p>\n      <p>Rate your confidence in your answer from 1 (pure guess) to 5 (very sure) by pressing the corresponding button.</p>\n     ","response":4,"image":"img/dryer.jpg","task":"confidence","old_or_new":"old","trial_type":"html-button-response","trial_index":76,"time_elapsed":122469,"internal_node_id":"0.0-3.0-1.36","subject_id":"5fa3ee4de1dc8503f0a622e5","study_id":"607de2837874a824e2e8c6ec","session_id":"608859a1b7b0120d2d7f95de"},{"rt":647,"stimulus":"img/coin.jpg","response":"y","image":"img/coin.jpg","old_or_new":"old","task":"recognition","trial_type":"image-keyboard-response","trial_index":77,"time_elapsed":123620,"internal_node_id":"0.0-3.0-0.37","subject_id":"5fa3ee4de1dc8503f0a622e5","study_id":"607de2837874a824e2e8c6ec","session_id":"608859a1b7b0120d2d7f95de","correct":true},{"rt":988,"stimulus":"\n      <p>How sure are you?</p>\n      <p>Rate your confidence in your answer from 1 (pure guess) to 5 (very sure) by pressing the corresponding button.</p>\n     ","response":4,"image":"img/coin.jpg","task":"confidence","old_or_new":"old","trial_type":"html-button-response","trial_index":78,"time_elapsed":124610,"internal_node_id":"0.0-3.0-1.37","subject_id":"5fa3ee4de1dc8503f0a622e5","study_id":"607de2837874a824e2e8c6ec","session_id":"608859a1b7b0120d2d7f95de"},{"rt":707.0000000000146,"stimulus":"img/hat_alternate.jpg","response":"n","image":"img/hat_alternate.jpg","old_or_new":"new","task":"recognition","trial_type":"image-keyboard-response","trial_index":79,"time_elapsed":125822,"internal_node_id":"0.0-3.0-0.38","subject_id":"5fa3ee4de1dc8503f0a622e5","study_id":"607de2837874a824e2e8c6ec","session_id":"608859a1b7b0120d2d7f95de","correct":true},{"rt":808,"stimulus":"\n      <p>How sure are you?</p>\n      <p>Rate your confidence in your answer from 1 (pure guess) to 5 (very sure) by pressing the corresponding button.</p>\n     ","response":4,"image":"img/hat_alternate.jpg","task":"confidence","old_or_new":"new","trial_type":"html-button-response","trial_index":80,"time_elapsed":126632,"internal_node_id":"0.0-3.0-1.38","subject_id":"5fa3ee4de1dc8503f0a622e5","study_id":"607de2837874a824e2e8c6ec","session_id":"608859a1b7b0120d2d7f95de"},{"rt":881,"stimulus":"img/hairbrush_alternate.jpg","response":"n","image":"img/hairbrush_alternate.jpg","old_or_new":"new","task":"recognition","trial_type":"image-keyboard-response","trial_index":81,"time_elapsed":128018,"internal_node_id":"0.0-3.0-0.39","subject_id":"5fa3ee4de1dc8503f0a622e5","study_id":"607de2837874a824e2e8c6ec","session_id":"608859a1b7b0120d2d7f95de","correct":true},{"rt":811.0000000000146,"stimulus":"\n      <p>How sure are you?</p>\n      <p>Rate your confidence in your answer from 1 (pure guess) to 5 (very sure) by pressing the corresponding button.</p>\n     ","response":4,"image":"img/hairbrush_alternate.jpg","task":"confidence","old_or_new":"new","trial_type":"html-button-response","trial_index":82,"time_elapsed":128831,"internal_node_id":"0.0-3.0-1.39","subject_id":"5fa3ee4de1dc8503f0a622e5","study_id":"607de2837874a824e2e8c6ec","session_id":"608859a1b7b0120d2d7f95de"},{"rt":519,"stimulus":"img/bowl.jpg","response":"n","image":"img/bowl.jpg","old_or_new":"old","task":"recognition","trial_type":"image-keyboard-response","trial_index":83,"time_elapsed":129855,"internal_node_id":"0.0-3.0-0.40","subject_id":"5fa3ee4de1dc8503f0a622e5","study_id":"607de2837874a824e2e8c6ec","session_id":"608859a1b7b0120d2d7f95de","correct":false},{"rt":811,"stimulus":"\n      <p>How sure are you?</p>\n      <p>Rate your confidence in your answer from 1 (pure guess) to 5 (very sure) by pressing the corresponding button.</p>\n     ","response":4,"image":"img/bowl.jpg","task":"confidence","old_or_new":"old","trial_type":"html-button-response","trial_index":84,"time_elapsed":130668,"internal_node_id":"0.0-3.0-1.40","subject_id":"5fa3ee4de1dc8503f0a622e5","study_id":"607de2837874a824e2e8c6ec","session_id":"608859a1b7b0120d2d7f95de"},{"rt":946,"stimulus":"img/basket_alternate.jpg","response":"n","image":"img/basket_alternate.jpg","old_or_new":"new","task":"recognition","trial_type":"image-keyboard-response","trial_index":85,"time_elapsed":132118,"internal_node_id":"0.0-3.0-0.41","subject_id":"5fa3ee4de1dc8503f0a622e5","study_id":"607de2837874a824e2e8c6ec","session_id":"608859a1b7b0120d2d7f95de","correct":true},{"rt":802,"stimulus":"\n      <p>How sure are you?</p>\n      <p>Rate your confidence in your answer from 1 (pure guess) to 5 (very sure) by pressing the corresponding button.</p>\n     ","response":4,"image":"img/basket_alternate.jpg","task":"confidence","old_or_new":"new","trial_type":"html-button-response","trial_index":86,"time_elapsed":132923,"internal_node_id":"0.0-3.0-1.41","subject_id":"5fa3ee4de1dc8503f0a622e5","study_id":"607de2837874a824e2e8c6ec","session_id":"608859a1b7b0120d2d7f95de"},{"rt":686,"stimulus":"img/helmet.jpg","response":"y","image":"img/helmet.jpg","old_or_new":"old","task":"recognition","trial_type":"image-keyboard-response","trial_index":87,"time_elapsed":134113,"internal_node_id":"0.0-3.0-0.42","subject_id":"5fa3ee4de1dc8503f0a622e5","study_id":"607de2837874a824e2e8c6ec","session_id":"608859a1b7b0120d2d7f95de","correct":true},{"rt":766,"stimulus":"\n      <p>How sure are you?</p>\n      <p>Rate your confidence in your answer from 1 (pure guess) to 5 (very sure) by pressing the corresponding button.</p>\n     ","response":4,"image":"img/helmet.jpg","task":"confidence","old_or_new":"old","trial_type":"html-button-response","trial_index":88,"time_elapsed":134880,"internal_node_id":"0.0-3.0-1.42","subject_id":"5fa3ee4de1dc8503f0a622e5","study_id":"607de2837874a824e2e8c6ec","session_id":"608859a1b7b0120d2d7f95de"},{"rt":710,"stimulus":"img/hourglass_alternate.jpg","response":"n","image":"img/hourglass_alternate.jpg","old_or_new":"new","task":"recognition","trial_type":"image-keyboard-response","trial_index":89,"time_elapsed":136095,"internal_node_id":"0.0-3.0-0.43","subject_id":"5fa3ee4de1dc8503f0a622e5","study_id":"607de2837874a824e2e8c6ec","session_id":"608859a1b7b0120d2d7f95de","correct":true},{"rt":805,"stimulus":"\n      <p>How sure are you?</p>\n      <p>Rate your confidence in your answer from 1 (pure guess) to 5 (very sure) by pressing the corresponding button.</p>\n     ","response":4,"image":"img/hourglass_alternate.jpg","task":"confidence","old_or_new":"new","trial_type":"html-button-response","trial_index":90,"time_elapsed":136902,"internal_node_id":"0.0-3.0-1.43","subject_id":"5fa3ee4de1dc8503f0a622e5","study_id":"607de2837874a824e2e8c6ec","session_id":"608859a1b7b0120d2d7f95de"},{"rt":615,"stimulus":"img/coin_alternate.jpg","response":"n","image":"img/coin_alternate.jpg","old_or_new":"new","task":"recognition","trial_type":"image-keyboard-response","trial_index":91,"time_elapsed":138022,"internal_node_id":"0.0-3.0-0.44","subject_id":"5fa3ee4de1dc8503f0a622e5","study_id":"607de2837874a824e2e8c6ec","session_id":"608859a1b7b0120d2d7f95de","correct":true},{"rt":1142.000000000029,"stimulus":"\n      <p>How sure are you?</p>\n      <p>Rate your confidence in your answer from 1 (pure guess) to 5 (very sure) by pressing the corresponding button.</p>\n     ","response":4,"image":"img/coin_alternate.jpg","task":"confidence","old_or_new":"new","trial_type":"html-button-response","trial_index":92,"time_elapsed":139165,"internal_node_id":"0.0-3.0-1.44","subject_id":"5fa3ee4de1dc8503f0a622e5","study_id":"607de2837874a824e2e8c6ec","session_id":"608859a1b7b0120d2d7f95de"},{"rt":672,"stimulus":"img/apple.jpg","response":"y","image":"img/apple.jpg","old_or_new":"old","task":"recognition","trial_type":"image-keyboard-response","trial_index":93,"time_elapsed":140342,"internal_node_id":"0.0-3.0-0.45","subject_id":"5fa3ee4de1dc8503f0a622e5","study_id":"607de2837874a824e2e8c6ec","session_id":"608859a1b7b0120d2d7f95de","correct":true},{"rt":884,"stimulus":"\n      <p>How sure are you?</p>\n      <p>Rate your confidence in your answer from 1 (pure guess) to 5 (very sure) by pressing the corresponding button.</p>\n     ","response":4,"image":"img/apple.jpg","task":"confidence","old_or_new":"old","trial_type":"html-button-response","trial_index":94,"time_elapsed":141227,"internal_node_id":"0.0-3.0-1.45","subject_id":"5fa3ee4de1dc8503f0a622e5","study_id":"607de2837874a824e2e8c6ec","session_id":"608859a1b7b0120d2d7f95de"},{"rt":728,"stimulus":"img/apple_alternate.jpg","response":"n","image":"img/apple_alternate.jpg","old_or_new":"new","task":"recognition","trial_type":"image-keyboard-response","trial_index":95,"time_elapsed":142464,"internal_node_id":"0.0-3.0-0.46","subject_id":"5fa3ee4de1dc8503f0a622e5","study_id":"607de2837874a824e2e8c6ec","session_id":"608859a1b7b0120d2d7f95de","correct":true},{"rt":767,"stimulus":"\n      <p>How sure are you?</p>\n      <p>Rate your confidence in your answer from 1 (pure guess) to 5 (very sure) by pressing the corresponding button.</p>\n     ","response":4,"image":"img/apple_alternate.jpg","task":"confidence","old_or_new":"new","trial_type":"html-button-response","trial_index":96,"time_elapsed":143233,"internal_node_id":"0.0-3.0-1.46","subject_id":"5fa3ee4de1dc8503f0a622e5","study_id":"607de2837874a824e2e8c6ec","session_id":"608859a1b7b0120d2d7f95de"},{"rt":838,"stimulus":"img/backpack_alternate.jpg","response":"n","image":"img/backpack_alternate.jpg","old_or_new":"new","task":"recognition","trial_type":"image-keyboard-response","trial_index":97,"time_elapsed":144577,"internal_node_id":"0.0-3.0-0.47","subject_id":"5fa3ee4de1dc8503f0a622e5","study_id":"607de2837874a824e2e8c6ec","session_id":"608859a1b7b0120d2d7f95de","correct":true},{"rt":669,"stimulus":"\n      <p>How sure are you?</p>\n      <p>Rate your confidence in your answer from 1 (pure guess) to 5 (very sure) by pressing the corresponding button.</p>\n     ","response":4,"image":"img/backpack_alternate.jpg","task":"confidence","old_or_new":"new","trial_type":"html-button-response","trial_index":98,"time_elapsed":145247,"internal_node_id":"0.0-3.0-1.47","subject_id":"5fa3ee4de1dc8503f0a622e5","study_id":"607de2837874a824e2e8c6ec","session_id":"608859a1b7b0120d2d7f95de"}]