[{"success":true,"timeout":false,"failed_images":[],"failed_audio":[],"failed_video":[],"trial_type":"preload","trial_index":0,"time_elapsed":7155,"internal_node_id":"0.0-0.0","subject_id":"5fc6217d11f15f1e4733d6c6","study_id":"606233c0e42b980319b6a18e","session_id":"60883486027e07bcdb12c159"},{"rt":85814.57,"stimulus":"\n      <div style=\"width:800px; text-align: left;\">\n        <p>Welcome to day 2 of the experiment! Thanks for coming back.</p>\n        <p>You will be presented with a series of images. Images will appear one at a time.</p>\n        <p>Each image will remain on the screen until you press either <span style=\"font-weight: bold;\">\"y\" to indicate you have seen the \n        exact same photo the day before or \"n\" to indicate you have not seen the exact same photo the day before.</span></p>\n        <p>After you answer yes (\"y\") or no (\"n\"), you will then be prompted to rate your certainty on a scale of\n        1 (pure guess) to 5 (very sure).</p>\n      </div>\n    ","response":0,"trial_type":"html-button-response","trial_index":1,"time_elapsed":92975,"internal_node_id":"0.0-1.0","subject_id":"5fc6217d11f15f1e4733d6c6","study_id":"606233c0e42b980319b6a18e","session_id":"60883486027e07bcdb12c159"},{"success":true,"trial_type":"fullscreen","trial_index":2,"time_elapsed":98128,"internal_node_id":"0.0-2.0","subject_id":"5fc6217d11f15f1e4733d6c6","study_id":"606233c0e42b980319b6a18e","session_id":"60883486027e07bcdb12c159"},{"rt":1512.3399999997637,"stimulus":"img/power_cord_alternate.jpg","response":"y","image":"img/power_cord_alternate.jpg","old_or_new":"new","task":"recognition","trial_type":"image-keyboard-response","trial_index":3,"time_elapsed":99658,"internal_node_id":"0.0-3.0-0.0","subject_id":"5fc6217d11f15f1e4733d6c6","study_id":"606233c0e42b980319b6a18e","session_id":"60883486027e07bcdb12c159","correct":false},{"rt":2161.295000000333,"stimulus":"\n      <p>How sure are you?</p>\n      <p>Rate your confidence in your answer from 1 (pure guess) to 5 (very sure) by pressing the corresponding button.</p>\n     ","response":4,"image":"img/power_cord_alternate.jpg","task":"confidence","old_or_new":"new","trial_type":"html-button-response","trial_index":4,"time_elapsed":101822,"internal_node_id":"0.0-3.0-1.0","subject_id":"5fc6217d11f15f1e4733d6c6","study_id":"606233c0e42b980319b6a18e","session_id":"60883486027e07bcdb12c159"},{"rt":932.5250000001688,"stimulus":"img/parfait.jpg","response":"y","image":"img/parfait.jpg","old_or_new":"old","task":"recognition","trial_type":"image-keyboard-response","trial_index":5,"time_elapsed":103266,"internal_node_id":"0.0-3.0-0.1","subject_id":"5fc6217d11f15f1e4733d6c6","study_id":"606233c0e42b980319b6a18e","session_id":"60883486027e07bcdb12c159","correct":true},{"rt":2020.8999999999942,"stimulus":"\n      <p>How sure are you?</p>\n      <p>Rate your confidence in your answer from 1 (pure guess) to 5 (very sure) by pressing the corresponding button.</p>\n     ","response":4,"image":"img/parfait.jpg","task":"confidence","old_or_new":"old","trial_type":"html-button-response","trial_index":6,"time_elapsed":105289,"internal_node_id":"0.0-3.0-1.1","subject_id":"5fc6217d11f15f1e4733d6c6","study_id":"606233c0e42b980319b6a18e","session_id":"60883486027e07bcdb12c159"},{"rt":783.6149999998306,"stimulus":"img/rolling_pin.jpg","response":"y","image":"img/rolling_pin.jpg","old_or_new":"old","task":"recognition","trial_type":"image-keyboard-response","trial_index":7,"time_elapsed":106582,"internal_node_id":"0.0-3.0-0.2","subject_id":"5fc6217d11f15f1e4733d6c6","study_id":"606233c0e42b980319b6a18e","session_id":"60883486027e07bcdb12c159","correct":true},{"rt":1523.384999999951,"stimulus":"\n      <p>How sure are you?</p>\n      <p>Rate your confidence in your answer from 1 (pure guess) to 5 (very sure) by pressing the corresponding button.</p>\n     ","response":4,"image":"img/rolling_pin.jpg","task":"confidence","old_or_new":"old","trial_type":"html-button-response","trial_index":8,"time_elapsed":108107,"internal_node_id":"0.0-3.0-1.2","subject_id":"5fc6217d11f15f1e4733d6c6","study_id":"606233c0e42b980319b6a18e","session_id":"60883486027e07bcdb12c159"},{"rt":2072.5149999998393,"stimulus":"img/skates_alternate.jpg","response":"n","image":"img/skates_alternate.jpg","old_or_new":"new","task":"recognition","trial_type":"image-keyboard-response","trial_index":9,"time_elapsed":110685,"internal_node_id":"0.0-3.0-0.3","subject_id":"5fc6217d11f15f1e4733d6c6","study_id":"606233c0e42b980319b6a18e","session_id":"60883486027e07bcdb12c159","correct":true},{"rt":1692.3450000003795,"stimulus":"\n      <p>How sure are you?</p>\n      <p>Rate your confidence in your answer from 1 (pure guess) to 5 (very sure) by pressing the corresponding button.</p>\n     ","response":2,"image":"img/skates_alternate.jpg","task":"confidence","old_or_new":"new","trial_type":"html-button-response","trial_index":10,"time_elapsed":112379,"internal_node_id":"0.0-3.0-1.3","subject_id":"5fc6217d11f15f1e4733d6c6","study_id":"606233c0e42b980319b6a18e","session_id":"60883486027e07bcdb12c159"},{"rt":1382.935000000085,"stimulus":"img/pizza.jpg","response":"y","image":"img/pizza.jpg","old_or_new":"old","task":"recognition","trial_type":"image-keyboard-response","trial_index":11,"time_elapsed":114272,"internal_node_id":"0.0-3.0-0.4","subject_id":"5fc6217d11f15f1e4733d6c6","study_id":"606233c0e42b980319b6a18e","session_id":"60883486027e07bcdb12c159","correct":true},{"rt":1836.8499999996857,"stimulus":"\n      <p>How sure are you?</p>\n      <p>Rate your confidence in your answer from 1 (pure guess) to 5 (very sure) by pressing the corresponding button.</p>\n     ","response":4,"image":"img/pizza.jpg","task":"confidence","old_or_new":"old","trial_type":"html-button-response","trial_index":12,"time_elapsed":116111,"internal_node_id":"0.0-3.0-1.4","subject_id":"5fc6217d11f15f1e4733d6c6","study_id":"606233c0e42b980319b6a18e","session_id":"60883486027e07bcdb12c159"},{"rt":1547.2600000002712,"stimulus":"img/power_cord.jpg","response":"y","image":"img/power_cord.jpg","old_or_new":"old","task":"recognition","trial_type":"image-keyboard-response","trial_index":13,"time_elapsed":118166,"internal_node_id":"0.0-3.0-0.5","subject_id":"5fc6217d11f15f1e4733d6c6","study_id":"606233c0e42b980319b6a18e","session_id":"60883486027e07bcdb12c159","correct":true},{"rt":1457.8300000002928,"stimulus":"\n      <p>How sure are you?</p>\n      <p>Rate your confidence in your answer from 1 (pure guess) to 5 (very sure) by pressing the corresponding button.</p>\n     ","response":4,"image":"img/power_cord.jpg","task":"confidence","old_or_new":"old","trial_type":"html-button-response","trial_index":14,"time_elapsed":119626,"internal_node_id":"0.0-3.0-1.5","subject_id":"5fc6217d11f15f1e4733d6c6","study_id":"606233c0e42b980319b6a18e","session_id":"60883486027e07bcdb12c159"},{"rt":1302.3200000002253,"stimulus":"img/knife_alternate.jpg","response":"y","image":"img/knife_alternate.jpg","old_or_new":"new","task":"recognition","trial_type":"image-keyboard-response","trial_index":15,"time_elapsed":121434,"internal_node_id":"0.0-3.0-0.6","subject_id":"5fc6217d11f15f1e4733d6c6","study_id":"606233c0e42b980319b6a18e","session_id":"60883486027e07bcdb12c159","correct":false},{"rt":1882.1350000002858,"stimulus":"\n      <p>How sure are you?</p>\n      <p>Rate your confidence in your answer from 1 (pure guess) to 5 (very sure) by pressing the corresponding button.</p>\n     ","response":4,"image":"img/knife_alternate.jpg","task":"confidence","old_or_new":"new","trial_type":"html-button-response","trial_index":16,"time_elapsed":123318,"internal_node_id":"0.0-3.0-1.6","subject_id":"5fc6217d11f15f1e4733d6c6","study_id":"606233c0e42b980319b6a18e","session_id":"60883486027e07bcdb12c159"},{"rt":1776.99500000017,"stimulus":"img/wheel_barrow_alternate.jpg","response":"n","image":"img/wheel_barrow_alternate.jpg","old_or_new":"new","task":"recognition","trial_type":"image-keyboard-response","trial_index":17,"time_elapsed":125607,"internal_node_id":"0.0-3.0-0.7","subject_id":"5fc6217d11f15f1e4733d6c6","study_id":"606233c0e42b980319b6a18e","session_id":"60883486027e07bcdb12c159","correct":true},{"rt":1558.4600000001956,"stimulus":"\n      <p>How sure are you?</p>\n      <p>Rate your confidence in your answer from 1 (pure guess) to 5 (very sure) by pressing the corresponding button.</p>\n     ","response":3,"image":"img/wheel_barrow_alternate.jpg","task":"confidence","old_or_new":"new","trial_type":"html-button-response","trial_index":18,"time_elapsed":127167,"internal_node_id":"0.0-3.0-1.7","subject_id":"5fc6217d11f15f1e4733d6c6","study_id":"606233c0e42b980319b6a18e","session_id":"60883486027e07bcdb12c159"},{"rt":1259.0749999999243,"stimulus":"img/skates.jpg","response":"y","image":"img/skates.jpg","old_or_new":"old","task":"recognition","trial_type":"image-keyboard-response","trial_index":19,"time_elapsed":128933,"internal_node_id":"0.0-3.0-0.8","subject_id":"5fc6217d11f15f1e4733d6c6","study_id":"606233c0e42b980319b6a18e","session_id":"60883486027e07bcdb12c159","correct":true},{"rt":1443.0200000001641,"stimulus":"\n      <p>How sure are you?</p>\n      <p>Rate your confidence in your answer from 1 (pure guess) to 5 (very sure) by pressing the corresponding button.</p>\n     ","response":4,"image":"img/skates.jpg","task":"confidence","old_or_new":"old","trial_type":"html-button-response","trial_index":20,"time_elapsed":130378,"internal_node_id":"0.0-3.0-1.8","subject_id":"5fc6217d11f15f1e4733d6c6","study_id":"606233c0e42b980319b6a18e","session_id":"60883486027e07bcdb12c159"},{"rt":1249.9149999998626,"stimulus":"img/rolling_pin_alternate.jpg","response":"y","image":"img/rolling_pin_alternate.jpg","old_or_new":"new","task":"recognition","trial_type":"image-keyboard-response","trial_index":21,"time_elapsed":132131,"internal_node_id":"0.0-3.0-0.9","subject_id":"5fc6217d11f15f1e4733d6c6","study_id":"606233c0e42b980319b6a18e","session_id":"60883486027e07bcdb12c159","correct":false},{"rt":2074.329999999929,"stimulus":"\n      <p>How sure are you?</p>\n      <p>Rate your confidence in your answer from 1 (pure guess) to 5 (very sure) by pressing the corresponding button.</p>\n     ","response":0,"image":"img/rolling_pin_alternate.jpg","task":"confidence","old_or_new":"new","trial_type":"html-button-response","trial_index":22,"time_elapsed":134207,"internal_node_id":"0.0-3.0-1.9","subject_id":"5fc6217d11f15f1e4733d6c6","study_id":"606233c0e42b980319b6a18e","session_id":"60883486027e07bcdb12c159"},{"rt":1528.1199999999371,"stimulus":"img/seashell_alternate.jpg","response":"n","image":"img/seashell_alternate.jpg","old_or_new":"new","task":"recognition","trial_type":"image-keyboard-response","trial_index":23,"time_elapsed":136240,"internal_node_id":"0.0-3.0-0.10","subject_id":"5fc6217d11f15f1e4733d6c6","study_id":"606233c0e42b980319b6a18e","session_id":"60883486027e07bcdb12c159","correct":true},{"rt":2697.0700000001525,"stimulus":"\n      <p>How sure are you?</p>\n      <p>Rate your confidence in your answer from 1 (pure guess) to 5 (very sure) by pressing the corresponding button.</p>\n     ","response":2,"image":"img/seashell_alternate.jpg","task":"confidence","old_or_new":"new","trial_type":"html-button-response","trial_index":24,"time_elapsed":138938,"internal_node_id":"0.0-3.0-1.10","subject_id":"5fc6217d11f15f1e4733d6c6","study_id":"606233c0e42b980319b6a18e","session_id":"60883486027e07bcdb12c159"},{"rt":1773.314999999915,"stimulus":"img/umbrella_alternate.jpg","response":"n","image":"img/umbrella_alternate.jpg","old_or_new":"new","task":"recognition","trial_type":"image-keyboard-response","trial_index":25,"time_elapsed":141216,"internal_node_id":"0.0-3.0-0.11","subject_id":"5fc6217d11f15f1e4733d6c6","study_id":"606233c0e42b980319b6a18e","session_id":"60883486027e07bcdb12c159","correct":true},{"rt":1618.9099999996834,"stimulus":"\n      <p>How sure are you?</p>\n      <p>Rate your confidence in your answer from 1 (pure guess) to 5 (very sure) by pressing the corresponding button.</p>\n     ","response":3,"image":"img/umbrella_alternate.jpg","task":"confidence","old_or_new":"new","trial_type":"html-button-response","trial_index":26,"time_elapsed":142837,"internal_node_id":"0.0-3.0-1.11","subject_id":"5fc6217d11f15f1e4733d6c6","study_id":"606233c0e42b980319b6a18e","session_id":"60883486027e07bcdb12c159"},{"rt":2205.7449999997334,"stimulus":"img/toaster.jpg","response":"n","image":"img/toaster.jpg","old_or_new":"old","task":"recognition","trial_type":"image-keyboard-response","trial_index":27,"time_elapsed":145547,"internal_node_id":"0.0-3.0-0.12","subject_id":"5fc6217d11f15f1e4733d6c6","study_id":"606233c0e42b980319b6a18e","session_id":"60883486027e07bcdb12c159","correct":false},{"rt":1421.6450000003388,"stimulus":"\n      <p>How sure are you?</p>\n      <p>Rate your confidence in your answer from 1 (pure guess) to 5 (very sure) by pressing the corresponding button.</p>\n     ","response":4,"image":"img/toaster.jpg","task":"confidence","old_or_new":"old","trial_type":"html-button-response","trial_index":28,"time_elapsed":146970,"internal_node_id":"0.0-3.0-1.12","subject_id":"5fc6217d11f15f1e4733d6c6","study_id":"606233c0e42b980319b6a18e","session_id":"60883486027e07bcdb12c159"},{"rt":1463.1000000004133,"stimulus":"img/seashell.jpg","response":"y","image":"img/seashell.jpg","old_or_new":"old","task":"recognition","trial_type":"image-keyboard-response","trial_index":29,"time_elapsed":148936,"internal_node_id":"0.0-3.0-0.13","subject_id":"5fc6217d11f15f1e4733d6c6","study_id":"606233c0e42b980319b6a18e","session_id":"60883486027e07bcdb12c159","correct":true},{"rt":1292.1050000000105,"stimulus":"\n      <p>How sure are you?</p>\n      <p>Rate your confidence in your answer from 1 (pure guess) to 5 (very sure) by pressing the corresponding button.</p>\n     ","response":4,"image":"img/seashell.jpg","task":"confidence","old_or_new":"old","trial_type":"html-button-response","trial_index":30,"time_elapsed":150230,"internal_node_id":"0.0-3.0-1.13","subject_id":"5fc6217d11f15f1e4733d6c6","study_id":"606233c0e42b980319b6a18e","session_id":"60883486027e07bcdb12c159"},{"rt":2686.0050000000338,"stimulus":"img/shoe.jpg","response":"n","image":"img/shoe.jpg","old_or_new":"old","task":"recognition","trial_type":"image-keyboard-response","trial_index":31,"time_elapsed":153419,"internal_node_id":"0.0-3.0-0.14","subject_id":"5fc6217d11f15f1e4733d6c6","study_id":"606233c0e42b980319b6a18e","session_id":"60883486027e07bcdb12c159","correct":false},{"rt":1637.7649999999558,"stimulus":"\n      <p>How sure are you?</p>\n      <p>Rate your confidence in your answer from 1 (pure guess) to 5 (very sure) by pressing the corresponding button.</p>\n     ","response":2,"image":"img/shoe.jpg","task":"confidence","old_or_new":"old","trial_type":"html-button-response","trial_index":32,"time_elapsed":155060,"internal_node_id":"0.0-3.0-1.14","subject_id":"5fc6217d11f15f1e4733d6c6","study_id":"606233c0e42b980319b6a18e","session_id":"60883486027e07bcdb12c159"},{"rt":1484.8250000000116,"stimulus":"img/sink_alternate.jpg","response":"n","image":"img/sink_alternate.jpg","old_or_new":"new","task":"recognition","trial_type":"image-keyboard-response","trial_index":33,"time_elapsed":157047,"internal_node_id":"0.0-3.0-0.15","subject_id":"5fc6217d11f15f1e4733d6c6","study_id":"606233c0e42b980319b6a18e","session_id":"60883486027e07bcdb12c159","correct":true},{"rt":1377.6900000002352,"stimulus":"\n      <p>How sure are you?</p>\n      <p>Rate your confidence in your answer from 1 (pure guess) to 5 (very sure) by pressing the corresponding button.</p>\n     ","response":4,"image":"img/sink_alternate.jpg","task":"confidence","old_or_new":"new","trial_type":"html-button-response","trial_index":34,"time_elapsed":158427,"internal_node_id":"0.0-3.0-1.15","subject_id":"5fc6217d11f15f1e4733d6c6","study_id":"606233c0e42b980319b6a18e","session_id":"60883486027e07bcdb12c159"},{"rt":975.7049999998417,"stimulus":"img/shirt.jpg","response":"y","image":"img/shirt.jpg","old_or_new":"old","task":"recognition","trial_type":"image-keyboard-response","trial_index":35,"time_elapsed":159905,"internal_node_id":"0.0-3.0-0.16","subject_id":"5fc6217d11f15f1e4733d6c6","study_id":"606233c0e42b980319b6a18e","session_id":"60883486027e07bcdb12c159","correct":true},{"rt":1658.4600000001083,"stimulus":"\n      <p>How sure are you?</p>\n      <p>Rate your confidence in your answer from 1 (pure guess) to 5 (very sure) by pressing the corresponding button.</p>\n     ","response":4,"image":"img/shirt.jpg","task":"confidence","old_or_new":"old","trial_type":"html-button-response","trial_index":36,"time_elapsed":161566,"internal_node_id":"0.0-3.0-1.16","subject_id":"5fc6217d11f15f1e4733d6c6","study_id":"606233c0e42b980319b6a18e","session_id":"60883486027e07bcdb12c159"},{"rt":946.6700000002456,"stimulus":"img/plane.jpg","response":"y","image":"img/plane.jpg","old_or_new":"old","task":"recognition","trial_type":"image-keyboard-response","trial_index":37,"time_elapsed":163015,"internal_node_id":"0.0-3.0-0.17","subject_id":"5fc6217d11f15f1e4733d6c6","study_id":"606233c0e42b980319b6a18e","session_id":"60883486027e07bcdb12c159","correct":true},{"rt":806.9050000003481,"stimulus":"\n      <p>How sure are you?</p>\n      <p>Rate your confidence in your answer from 1 (pure guess) to 5 (very sure) by pressing the corresponding button.</p>\n     ","response":4,"image":"img/plane.jpg","task":"confidence","old_or_new":"old","trial_type":"html-button-response","trial_index":38,"time_elapsed":163824,"internal_node_id":"0.0-3.0-1.17","subject_id":"5fc6217d11f15f1e4733d6c6","study_id":"606233c0e42b980319b6a18e","session_id":"60883486027e07bcdb12c159"},{"rt":867.2750000000524,"stimulus":"img/pizza_alternate.jpg","response":"n","image":"img/pizza_alternate.jpg","old_or_new":"new","task":"recognition","trial_type":"image-keyboard-response","trial_index":39,"time_elapsed":165193,"internal_node_id":"0.0-3.0-0.18","subject_id":"5fc6217d11f15f1e4733d6c6","study_id":"606233c0e42b980319b6a18e","session_id":"60883486027e07bcdb12c159","correct":true},{"rt":1346.2500000000582,"stimulus":"\n      <p>How sure are you?</p>\n      <p>Rate your confidence in your answer from 1 (pure guess) to 5 (very sure) by pressing the corresponding button.</p>\n     ","response":4,"image":"img/pizza_alternate.jpg","task":"confidence","old_or_new":"new","trial_type":"html-button-response","trial_index":40,"time_elapsed":166541,"internal_node_id":"0.0-3.0-1.18","subject_id":"5fc6217d11f15f1e4733d6c6","study_id":"606233c0e42b980319b6a18e","session_id":"60883486027e07bcdb12c159"},{"rt":1132.7949999999837,"stimulus":"img/shoe_alternate.jpg","response":"n","image":"img/shoe_alternate.jpg","old_or_new":"new","task":"recognition","trial_type":"image-keyboard-response","trial_index":41,"time_elapsed":168177,"internal_node_id":"0.0-3.0-0.19","subject_id":"5fc6217d11f15f1e4733d6c6","study_id":"606233c0e42b980319b6a18e","session_id":"60883486027e07bcdb12c159","correct":true},{"rt":774.1649999998335,"stimulus":"\n      <p>How sure are you?</p>\n      <p>Rate your confidence in your answer from 1 (pure guess) to 5 (very sure) by pressing the corresponding button.</p>\n     ","response":4,"image":"img/shoe_alternate.jpg","task":"confidence","old_or_new":"new","trial_type":"html-button-response","trial_index":42,"time_elapsed":168953,"internal_node_id":"0.0-3.0-1.19","subject_id":"5fc6217d11f15f1e4733d6c6","study_id":"606233c0e42b980319b6a18e","session_id":"60883486027e07bcdb12c159"},{"rt":1294.7800000001735,"stimulus":"img/toothbrush_alternate.jpg","response":"n","image":"img/toothbrush_alternate.jpg","old_or_new":"new","task":"recognition","trial_type":"image-keyboard-response","trial_index":43,"time_elapsed":170751,"internal_node_id":"0.0-3.0-0.20","subject_id":"5fc6217d11f15f1e4733d6c6","study_id":"606233c0e42b980319b6a18e","session_id":"60883486027e07bcdb12c159","correct":true},{"rt":634.1900000002352,"stimulus":"\n      <p>How sure are you?</p>\n      <p>Rate your confidence in your answer from 1 (pure guess) to 5 (very sure) by pressing the corresponding button.</p>\n     ","response":4,"image":"img/toothbrush_alternate.jpg","task":"confidence","old_or_new":"new","trial_type":"html-button-response","trial_index":44,"time_elapsed":171387,"internal_node_id":"0.0-3.0-1.20","subject_id":"5fc6217d11f15f1e4733d6c6","study_id":"606233c0e42b980319b6a18e","session_id":"60883486027e07bcdb12c159"},{"rt":1045.634999999951,"stimulus":"img/yarn_alternate.jpg","response":"n","image":"img/yarn_alternate.jpg","old_or_new":"new","task":"recognition","trial_type":"image-keyboard-response","trial_index":45,"time_elapsed":172936,"internal_node_id":"0.0-3.0-0.21","subject_id":"5fc6217d11f15f1e4733d6c6","study_id":"606233c0e42b980319b6a18e","session_id":"60883486027e07bcdb12c159","correct":true},{"rt":506.22999999995227,"stimulus":"\n      <p>How sure are you?</p>\n      <p>Rate your confidence in your answer from 1 (pure guess) to 5 (very sure) by pressing the corresponding button.</p>\n     ","response":4,"image":"img/yarn_alternate.jpg","task":"confidence","old_or_new":"new","trial_type":"html-button-response","trial_index":46,"time_elapsed":173444,"internal_node_id":"0.0-3.0-1.21","subject_id":"5fc6217d11f15f1e4733d6c6","study_id":"606233c0e42b980319b6a18e","session_id":"60883486027e07bcdb12c159"},{"rt":982.9249999997846,"stimulus":"img/watch_alternate.jpg","response":"n","image":"img/watch_alternate.jpg","old_or_new":"new","task":"recognition","trial_type":"image-keyboard-response","trial_index":47,"time_elapsed":174932,"internal_node_id":"0.0-3.0-0.22","subject_id":"5fc6217d11f15f1e4733d6c6","study_id":"606233c0e42b980319b6a18e","session_id":"60883486027e07bcdb12c159","correct":true},{"rt":1477.1599999999162,"stimulus":"\n      <p>How sure are you?</p>\n      <p>Rate your confidence in your answer from 1 (pure guess) to 5 (very sure) by pressing the corresponding button.</p>\n     ","response":3,"image":"img/watch_alternate.jpg","task":"confidence","old_or_new":"new","trial_type":"html-button-response","trial_index":48,"time_elapsed":176411,"internal_node_id":"0.0-3.0-1.22","subject_id":"5fc6217d11f15f1e4733d6c6","study_id":"606233c0e42b980319b6a18e","session_id":"60883486027e07bcdb12c159"},{"rt":931.1000000002387,"stimulus":"img/toothbrush.jpg","response":"n","image":"img/toothbrush.jpg","old_or_new":"old","task":"recognition","trial_type":"image-keyboard-response","trial_index":49,"time_elapsed":177845,"internal_node_id":"0.0-3.0-0.23","subject_id":"5fc6217d11f15f1e4733d6c6","study_id":"606233c0e42b980319b6a18e","session_id":"60883486027e07bcdb12c159","correct":false},{"rt":1309.8300000001618,"stimulus":"\n      <p>How sure are you?</p>\n      <p>Rate your confidence in your answer from 1 (pure guess) to 5 (very sure) by pressing the corresponding button.</p>\n     ","response":3,"image":"img/toothbrush.jpg","task":"confidence","old_or_new":"old","trial_type":"html-button-response","trial_index":50,"time_elapsed":179189,"internal_node_id":"0.0-3.0-1.23","subject_id":"5fc6217d11f15f1e4733d6c6","study_id":"606233c0e42b980319b6a18e","session_id":"60883486027e07bcdb12c159"},{"rt":2654.04499999978,"stimulus":"img/tv_alternate.jpg","response":"y","image":"img/tv_alternate.jpg","old_or_new":"new","task":"recognition","trial_type":"image-keyboard-response","trial_index":51,"time_elapsed":182347,"internal_node_id":"0.0-3.0-0.24","subject_id":"5fc6217d11f15f1e4733d6c6","study_id":"606233c0e42b980319b6a18e","session_id":"60883486027e07bcdb12c159","correct":false},{"rt":1482.840000000113,"stimulus":"\n      <p>How sure are you?</p>\n      <p>Rate your confidence in your answer from 1 (pure guess) to 5 (very sure) by pressing the corresponding button.</p>\n     ","response":3,"image":"img/tv_alternate.jpg","task":"confidence","old_or_new":"new","trial_type":"html-button-response","trial_index":52,"time_elapsed":183832,"internal_node_id":"0.0-3.0-1.24","subject_id":"5fc6217d11f15f1e4733d6c6","study_id":"606233c0e42b980319b6a18e","session_id":"60883486027e07bcdb12c159"},{"rt":883.4349999997357,"stimulus":"img/plate_alternate.jpg","response":"n","image":"img/plate_alternate.jpg","old_or_new":"new","task":"recognition","trial_type":"image-keyboard-response","trial_index":53,"time_elapsed":185218,"internal_node_id":"0.0-3.0-0.25","subject_id":"5fc6217d11f15f1e4733d6c6","study_id":"606233c0e42b980319b6a18e","session_id":"60883486027e07bcdb12c159","correct":true},{"rt":1438.1199999997916,"stimulus":"\n      <p>How sure are you?</p>\n      <p>Rate your confidence in your answer from 1 (pure guess) to 5 (very sure) by pressing the corresponding button.</p>\n     ","response":2,"image":"img/plate_alternate.jpg","task":"confidence","old_or_new":"new","trial_type":"html-button-response","trial_index":54,"time_elapsed":186659,"internal_node_id":"0.0-3.0-1.25","subject_id":"5fc6217d11f15f1e4733d6c6","study_id":"606233c0e42b980319b6a18e","session_id":"60883486027e07bcdb12c159"},{"rt":1299.2199999998847,"stimulus":"img/plane_alternate.jpg","response":"n","image":"img/plane_alternate.jpg","old_or_new":"new","task":"recognition","trial_type":"image-keyboard-response","trial_index":55,"time_elapsed":188461,"internal_node_id":"0.0-3.0-0.26","subject_id":"5fc6217d11f15f1e4733d6c6","study_id":"606233c0e42b980319b6a18e","session_id":"60883486027e07bcdb12c159","correct":true},{"rt":1984.0399999998335,"stimulus":"\n      <p>How sure are you?</p>\n      <p>Rate your confidence in your answer from 1 (pure guess) to 5 (very sure) by pressing the corresponding button.</p>\n     ","response":4,"image":"img/plane_alternate.jpg","task":"confidence","old_or_new":"new","trial_type":"html-button-response","trial_index":56,"time_elapsed":190447,"internal_node_id":"0.0-3.0-1.26","subject_id":"5fc6217d11f15f1e4733d6c6","study_id":"606233c0e42b980319b6a18e","session_id":"60883486027e07bcdb12c159"},{"rt":1883.280000000028,"stimulus":"img/shovel_alternate.jpg","response":"n","image":"img/shovel_alternate.jpg","old_or_new":"new","task":"recognition","trial_type":"image-keyboard-response","trial_index":57,"time_elapsed":192833,"internal_node_id":"0.0-3.0-0.27","subject_id":"5fc6217d11f15f1e4733d6c6","study_id":"606233c0e42b980319b6a18e","session_id":"60883486027e07bcdb12c159","correct":true},{"rt":1832.1049999999523,"stimulus":"\n      <p>How sure are you?</p>\n      <p>Rate your confidence in your answer from 1 (pure guess) to 5 (very sure) by pressing the corresponding button.</p>\n     ","response":2,"image":"img/shovel_alternate.jpg","task":"confidence","old_or_new":"new","trial_type":"html-button-response","trial_index":58,"time_elapsed":194668,"internal_node_id":"0.0-3.0-1.27","subject_id":"5fc6217d11f15f1e4733d6c6","study_id":"606233c0e42b980319b6a18e","session_id":"60883486027e07bcdb12c159"},{"rt":1173.9699999998265,"stimulus":"img/pencil_sharpener.jpg","response":"y","image":"img/pencil_sharpener.jpg","old_or_new":"old","task":"recognition","trial_type":"image-keyboard-response","trial_index":59,"time_elapsed":196344,"internal_node_id":"0.0-3.0-0.28","subject_id":"5fc6217d11f15f1e4733d6c6","study_id":"606233c0e42b980319b6a18e","session_id":"60883486027e07bcdb12c159","correct":true},{"rt":4109.06500000009,"stimulus":"\n      <p>How sure are you?</p>\n      <p>Rate your confidence in your answer from 1 (pure guess) to 5 (very sure) by pressing the corresponding button.</p>\n     ","response":4,"image":"img/pencil_sharpener.jpg","task":"confidence","old_or_new":"old","trial_type":"html-button-response","trial_index":60,"time_elapsed":200456,"internal_node_id":"0.0-3.0-1.28","subject_id":"5fc6217d11f15f1e4733d6c6","study_id":"606233c0e42b980319b6a18e","session_id":"60883486027e07bcdb12c159"},{"rt":1760.3850000000384,"stimulus":"img/tv.jpg","response":"n","image":"img/tv.jpg","old_or_new":"old","task":"recognition","trial_type":"image-keyboard-response","trial_index":61,"time_elapsed":202720,"internal_node_id":"0.0-3.0-0.29","subject_id":"5fc6217d11f15f1e4733d6c6","study_id":"606233c0e42b980319b6a18e","session_id":"60883486027e07bcdb12c159","correct":false},{"rt":1485.549999999872,"stimulus":"\n      <p>How sure are you?</p>\n      <p>Rate your confidence in your answer from 1 (pure guess) to 5 (very sure) by pressing the corresponding button.</p>\n     ","response":3,"image":"img/tv.jpg","task":"confidence","old_or_new":"old","trial_type":"html-button-response","trial_index":62,"time_elapsed":204208,"internal_node_id":"0.0-3.0-1.29","subject_id":"5fc6217d11f15f1e4733d6c6","study_id":"606233c0e42b980319b6a18e","session_id":"60883486027e07bcdb12c159"},{"rt":1043.7799999999697,"stimulus":"img/toaster_alternate.jpg","response":"n","image":"img/toaster_alternate.jpg","old_or_new":"new","task":"recognition","trial_type":"image-keyboard-response","trial_index":63,"time_elapsed":205755,"internal_node_id":"0.0-3.0-0.30","subject_id":"5fc6217d11f15f1e4733d6c6","study_id":"606233c0e42b980319b6a18e","session_id":"60883486027e07bcdb12c159","correct":true},{"rt":1552.2150000001711,"stimulus":"\n      <p>How sure are you?</p>\n      <p>Rate your confidence in your answer from 1 (pure guess) to 5 (very sure) by pressing the corresponding button.</p>\n     ","response":4,"image":"img/toaster_alternate.jpg","task":"confidence","old_or_new":"new","trial_type":"html-button-response","trial_index":64,"time_elapsed":207309,"internal_node_id":"0.0-3.0-1.30","subject_id":"5fc6217d11f15f1e4733d6c6","study_id":"606233c0e42b980319b6a18e","session_id":"60883486027e07bcdb12c159"},{"rt":1988.5399999998335,"stimulus":"img/sink.jpg","response":"y","image":"img/sink.jpg","old_or_new":"old","task":"recognition","trial_type":"image-keyboard-response","trial_index":65,"time_elapsed":209801,"internal_node_id":"0.0-3.0-0.31","subject_id":"5fc6217d11f15f1e4733d6c6","study_id":"606233c0e42b980319b6a18e","session_id":"60883486027e07bcdb12c159","correct":true},{"rt":1608.9550000001618,"stimulus":"\n      <p>How sure are you?</p>\n      <p>Rate your confidence in your answer from 1 (pure guess) to 5 (very sure) by pressing the corresponding button.</p>\n     ","response":2,"image":"img/sink.jpg","task":"confidence","old_or_new":"old","trial_type":"html-button-response","trial_index":66,"time_elapsed":211412,"internal_node_id":"0.0-3.0-1.31","subject_id":"5fc6217d11f15f1e4733d6c6","study_id":"606233c0e42b980319b6a18e","session_id":"60883486027e07bcdb12c159"},{"rt":866.2399999998452,"stimulus":"img/wheel_barrow.jpg","response":"y","image":"img/wheel_barrow.jpg","old_or_new":"old","task":"recognition","trial_type":"image-keyboard-response","trial_index":67,"time_elapsed":212781,"internal_node_id":"0.0-3.0-0.32","subject_id":"5fc6217d11f15f1e4733d6c6","study_id":"606233c0e42b980319b6a18e","session_id":"60883486027e07bcdb12c159","correct":true},{"rt":2152.1000000002387,"stimulus":"\n      <p>How sure are you?</p>\n      <p>Rate your confidence in your answer from 1 (pure guess) to 5 (very sure) by pressing the corresponding button.</p>\n     ","response":4,"image":"img/wheel_barrow.jpg","task":"confidence","old_or_new":"old","trial_type":"html-button-response","trial_index":68,"time_elapsed":214935,"internal_node_id":"0.0-3.0-1.32","subject_id":"5fc6217d11f15f1e4733d6c6","study_id":"606233c0e42b980319b6a18e","session_id":"60883486027e07bcdb12c159"},{"rt":866.4199999998091,"stimulus":"img/yarn.jpg","response":"n","image":"img/yarn.jpg","old_or_new":"old","task":"recognition","trial_type":"image-keyboard-response","trial_index":69,"time_elapsed":216306,"internal_node_id":"0.0-3.0-0.33","subject_id":"5fc6217d11f15f1e4733d6c6","study_id":"606233c0e42b980319b6a18e","session_id":"60883486027e07bcdb12c159","correct":false},{"rt":2956.329999999987,"stimulus":"\n      <p>How sure are you?</p>\n      <p>Rate your confidence in your answer from 1 (pure guess) to 5 (very sure) by pressing the corresponding button.</p>\n     ","response":0,"image":"img/yarn.jpg","task":"confidence","old_or_new":"old","trial_type":"html-button-response","trial_index":70,"time_elapsed":219264,"internal_node_id":"0.0-3.0-1.33","subject_id":"5fc6217d11f15f1e4733d6c6","study_id":"606233c0e42b980319b6a18e","session_id":"60883486027e07bcdb12c159"},{"rt":1088.4500000001863,"stimulus":"img/trophy_alternate.jpg","response":"n","image":"img/trophy_alternate.jpg","old_or_new":"new","task":"recognition","trial_type":"image-keyboard-response","trial_index":71,"time_elapsed":220856,"internal_node_id":"0.0-3.0-0.34","subject_id":"5fc6217d11f15f1e4733d6c6","study_id":"606233c0e42b980319b6a18e","session_id":"60883486027e07bcdb12c159","correct":true},{"rt":2556.1450000000186,"stimulus":"\n      <p>How sure are you?</p>\n      <p>Rate your confidence in your answer from 1 (pure guess) to 5 (very sure) by pressing the corresponding button.</p>\n     ","response":4,"image":"img/trophy_alternate.jpg","task":"confidence","old_or_new":"new","trial_type":"html-button-response","trial_index":72,"time_elapsed":223415,"internal_node_id":"0.0-3.0-1.34","subject_id":"5fc6217d11f15f1e4733d6c6","study_id":"606233c0e42b980319b6a18e","session_id":"60883486027e07bcdb12c159"},{"rt":1211.2600000000384,"stimulus":"img/parfait_alternate.jpg","response":"n","image":"img/parfait_alternate.jpg","old_or_new":"new","task":"recognition","trial_type":"image-keyboard-response","trial_index":73,"time_elapsed":225130,"internal_node_id":"0.0-3.0-0.35","subject_id":"5fc6217d11f15f1e4733d6c6","study_id":"606233c0e42b980319b6a18e","session_id":"60883486027e07bcdb12c159","correct":true},{"rt":879.6150000002817,"stimulus":"\n      <p>How sure are you?</p>\n      <p>Rate your confidence in your answer from 1 (pure guess) to 5 (very sure) by pressing the corresponding button.</p>\n     ","response":4,"image":"img/parfait_alternate.jpg","task":"confidence","old_or_new":"new","trial_type":"html-button-response","trial_index":74,"time_elapsed":226012,"internal_node_id":"0.0-3.0-1.35","subject_id":"5fc6217d11f15f1e4733d6c6","study_id":"606233c0e42b980319b6a18e","session_id":"60883486027e07bcdb12c159"},{"rt":1099.490000000049,"stimulus":"img/spoon_alternate.jpg","response":"n","image":"img/spoon_alternate.jpg","old_or_new":"new","task":"recognition","trial_type":"image-keyboard-response","trial_index":75,"time_elapsed":227615,"internal_node_id":"0.0-3.0-0.36","subject_id":"5fc6217d11f15f1e4733d6c6","study_id":"606233c0e42b980319b6a18e","session_id":"60883486027e07bcdb12c159","correct":true},{"rt":986.3900000000431,"stimulus":"\n      <p>How sure are you?</p>\n      <p>Rate your confidence in your answer from 1 (pure guess) to 5 (very sure) by pressing the corresponding button.</p>\n     ","response":4,"image":"img/spoon_alternate.jpg","task":"confidence","old_or_new":"new","trial_type":"html-button-response","trial_index":76,"time_elapsed":228603,"internal_node_id":"0.0-3.0-1.36","subject_id":"5fc6217d11f15f1e4733d6c6","study_id":"606233c0e42b980319b6a18e","session_id":"60883486027e07bcdb12c159"},{"rt":1273.0200000000768,"stimulus":"img/umbrella.jpg","response":"y","image":"img/umbrella.jpg","old_or_new":"old","task":"recognition","trial_type":"image-keyboard-response","trial_index":77,"time_elapsed":230379,"internal_node_id":"0.0-3.0-0.37","subject_id":"5fc6217d11f15f1e4733d6c6","study_id":"606233c0e42b980319b6a18e","session_id":"60883486027e07bcdb12c159","correct":true},{"rt":1742.6399999999267,"stimulus":"\n      <p>How sure are you?</p>\n      <p>Rate your confidence in your answer from 1 (pure guess) to 5 (very sure) by pressing the corresponding button.</p>\n     ","response":3,"image":"img/umbrella.jpg","task":"confidence","old_or_new":"old","trial_type":"html-button-response","trial_index":78,"time_elapsed":232124,"internal_node_id":"0.0-3.0-1.37","subject_id":"5fc6217d11f15f1e4733d6c6","study_id":"606233c0e42b980319b6a18e","session_id":"60883486027e07bcdb12c159"},{"rt":1251.1800000001967,"stimulus":"img/scissors_alternate.jpg","response":"n","image":"img/scissors_alternate.jpg","old_or_new":"new","task":"recognition","trial_type":"image-keyboard-response","trial_index":79,"time_elapsed":233879,"internal_node_id":"0.0-3.0-0.38","subject_id":"5fc6217d11f15f1e4733d6c6","study_id":"606233c0e42b980319b6a18e","session_id":"60883486027e07bcdb12c159","correct":true},{"rt":1579.7950000001001,"stimulus":"\n      <p>How sure are you?</p>\n      <p>Rate your confidence in your answer from 1 (pure guess) to 5 (very sure) by pressing the corresponding button.</p>\n     ","response":4,"image":"img/scissors_alternate.jpg","task":"confidence","old_or_new":"new","trial_type":"html-button-response","trial_index":80,"time_elapsed":235460,"internal_node_id":"0.0-3.0-1.38","subject_id":"5fc6217d11f15f1e4733d6c6","study_id":"606233c0e42b980319b6a18e","session_id":"60883486027e07bcdb12c159"},{"rt":1548.8649999997579,"stimulus":"img/watch.jpg","response":"n","image":"img/watch.jpg","old_or_new":"old","task":"recognition","trial_type":"image-keyboard-response","trial_index":81,"time_elapsed":237517,"internal_node_id":"0.0-3.0-0.39","subject_id":"5fc6217d11f15f1e4733d6c6","study_id":"606233c0e42b980319b6a18e","session_id":"60883486027e07bcdb12c159","correct":false},{"rt":509.7749999999942,"stimulus":"\n      <p>How sure are you?</p>\n      <p>Rate your confidence in your answer from 1 (pure guess) to 5 (very sure) by pressing the corresponding button.</p>\n     ","response":4,"image":"img/watch.jpg","task":"confidence","old_or_new":"old","trial_type":"html-button-response","trial_index":82,"time_elapsed":238029,"internal_node_id":"0.0-3.0-1.39","subject_id":"5fc6217d11f15f1e4733d6c6","study_id":"606233c0e42b980319b6a18e","session_id":"60883486027e07bcdb12c159"},{"rt":791.0499999998137,"stimulus":"img/shirt_alternate.jpg","response":"n","image":"img/shirt_alternate.jpg","old_or_new":"new","task":"recognition","trial_type":"image-keyboard-response","trial_index":83,"time_elapsed":239323,"internal_node_id":"0.0-3.0-0.40","subject_id":"5fc6217d11f15f1e4733d6c6","study_id":"606233c0e42b980319b6a18e","session_id":"60883486027e07bcdb12c159","correct":true},{"rt":519.0250000000524,"stimulus":"\n      <p>How sure are you?</p>\n      <p>Rate your confidence in your answer from 1 (pure guess) to 5 (very sure) by pressing the corresponding button.</p>\n     ","response":4,"image":"img/shirt_alternate.jpg","task":"confidence","old_or_new":"new","trial_type":"html-button-response","trial_index":84,"time_elapsed":239844,"internal_node_id":"0.0-3.0-1.40","subject_id":"5fc6217d11f15f1e4733d6c6","study_id":"606233c0e42b980319b6a18e","session_id":"60883486027e07bcdb12c159"},{"rt":934.8749999999418,"stimulus":"img/spoon.jpg","response":"y","image":"img/spoon.jpg","old_or_new":"old","task":"recognition","trial_type":"image-keyboard-response","trial_index":85,"time_elapsed":241282,"internal_node_id":"0.0-3.0-0.41","subject_id":"5fc6217d11f15f1e4733d6c6","study_id":"606233c0e42b980319b6a18e","session_id":"60883486027e07bcdb12c159","correct":true},{"rt":773.0250000004307,"stimulus":"\n      <p>How sure are you?</p>\n      <p>Rate your confidence in your answer from 1 (pure guess) to 5 (very sure) by pressing the corresponding button.</p>\n     ","response":4,"image":"img/spoon.jpg","task":"confidence","old_or_new":"old","trial_type":"html-button-response","trial_index":86,"time_elapsed":242057,"internal_node_id":"0.0-3.0-1.41","subject_id":"5fc6217d11f15f1e4733d6c6","study_id":"606233c0e42b980319b6a18e","session_id":"60883486027e07bcdb12c159"},{"rt":1046.0499999999302,"stimulus":"img/knife.jpg","response":"y","image":"img/knife.jpg","old_or_new":"old","task":"recognition","trial_type":"image-keyboard-response","trial_index":87,"time_elapsed":243606,"internal_node_id":"0.0-3.0-0.42","subject_id":"5fc6217d11f15f1e4733d6c6","study_id":"606233c0e42b980319b6a18e","session_id":"60883486027e07bcdb12c159","correct":true},{"rt":706.0849999998172,"stimulus":"\n      <p>How sure are you?</p>\n      <p>Rate your confidence in your answer from 1 (pure guess) to 5 (very sure) by pressing the corresponding button.</p>\n     ","response":4,"image":"img/knife.jpg","task":"confidence","old_or_new":"old","trial_type":"html-button-response","trial_index":88,"time_elapsed":244314,"internal_node_id":"0.0-3.0-1.42","subject_id":"5fc6217d11f15f1e4733d6c6","study_id":"606233c0e42b980319b6a18e","session_id":"60883486027e07bcdb12c159"},{"rt":961.464999999851,"stimulus":"img/scissors.jpg","response":"n","image":"img/scissors.jpg","old_or_new":"old","task":"recognition","trial_type":"image-keyboard-response","trial_index":89,"time_elapsed":245778,"internal_node_id":"0.0-3.0-0.43","subject_id":"5fc6217d11f15f1e4733d6c6","study_id":"606233c0e42b980319b6a18e","session_id":"60883486027e07bcdb12c159","correct":false},{"rt":500.66500000003725,"stimulus":"\n      <p>How sure are you?</p>\n      <p>Rate your confidence in your answer from 1 (pure guess) to 5 (very sure) by pressing the corresponding button.</p>\n     ","response":4,"image":"img/scissors.jpg","task":"confidence","old_or_new":"old","trial_type":"html-button-response","trial_index":90,"time_elapsed":246281,"internal_node_id":"0.0-3.0-1.43","subject_id":"5fc6217d11f15f1e4733d6c6","study_id":"606233c0e42b980319b6a18e","session_id":"60883486027e07bcdb12c159"},{"rt":3591.6050000000687,"stimulus":"img/pencil_sharpener_alternate.jpg","response":"y","image":"img/pencil_sharpener_alternate.jpg","old_or_new":"new","task":"recognition","trial_type":"image-keyboard-response","trial_index":91,"time_elapsed":250376,"internal_node_id":"0.0-3.0-0.44","subject_id":"5fc6217d11f15f1e4733d6c6","study_id":"606233c0e42b980319b6a18e","session_id":"60883486027e07bcdb12c159","correct":false},{"rt":2013.849999999802,"stimulus":"\n      <p>How sure are you?</p>\n      <p>Rate your confidence in your answer from 1 (pure guess) to 5 (very sure) by pressing the corresponding button.</p>\n     ","response":2,"image":"img/pencil_sharpener_alternate.jpg","task":"confidence","old_or_new":"new","trial_type":"html-button-response","trial_index":92,"time_elapsed":252392,"internal_node_id":"0.0-3.0-1.44","subject_id":"5fc6217d11f15f1e4733d6c6","study_id":"606233c0e42b980319b6a18e","session_id":"60883486027e07bcdb12c159"},{"rt":880.9950000004319,"stimulus":"img/trophy.jpg","response":"n","image":"img/trophy.jpg","old_or_new":"old","task":"recognition","trial_type":"image-keyboard-response","trial_index":93,"time_elapsed":253776,"internal_node_id":"0.0-3.0-0.45","subject_id":"5fc6217d11f15f1e4733d6c6","study_id":"606233c0e42b980319b6a18e","session_id":"60883486027e07bcdb12c159","correct":false},{"rt":2050.0950000000594,"stimulus":"\n      <p>How sure are you?</p>\n      <p>Rate your confidence in your answer from 1 (pure guess) to 5 (very sure) by pressing the corresponding button.</p>\n     ","response":3,"image":"img/trophy.jpg","task":"confidence","old_or_new":"old","trial_type":"html-button-response","trial_index":94,"time_elapsed":255828,"internal_node_id":"0.0-3.0-1.45","subject_id":"5fc6217d11f15f1e4733d6c6","study_id":"606233c0e42b980319b6a18e","session_id":"60883486027e07bcdb12c159"},{"rt":1403.2449999999662,"stimulus":"img/shovel.jpg","response":"n","image":"img/shovel.jpg","old_or_new":"old","task":"recognition","trial_type":"image-keyboard-response","trial_index":95,"time_elapsed":257736,"internal_node_id":"0.0-3.0-0.46","subject_id":"5fc6217d11f15f1e4733d6c6","study_id":"606233c0e42b980319b6a18e","session_id":"60883486027e07bcdb12c159","correct":false},{"rt":1613.5349999999744,"stimulus":"\n      <p>How sure are you?</p>\n      <p>Rate your confidence in your answer from 1 (pure guess) to 5 (very sure) by pressing the corresponding button.</p>\n     ","response":2,"image":"img/shovel.jpg","task":"confidence","old_or_new":"old","trial_type":"html-button-response","trial_index":96,"time_elapsed":259351,"internal_node_id":"0.0-3.0-1.46","subject_id":"5fc6217d11f15f1e4733d6c6","study_id":"606233c0e42b980319b6a18e","session_id":"60883486027e07bcdb12c159"},{"rt":923.8150000001187,"stimulus":"img/plate.jpg","response":"n","image":"img/plate.jpg","old_or_new":"old","task":"recognition","trial_type":"image-keyboard-response","trial_index":97,"time_elapsed":260778,"internal_node_id":"0.0-3.0-0.47","subject_id":"5fc6217d11f15f1e4733d6c6","study_id":"606233c0e42b980319b6a18e","session_id":"60883486027e07bcdb12c159","correct":false},{"rt":2073.685000000347,"stimulus":"\n      <p>How sure are you?</p>\n      <p>Rate your confidence in your answer from 1 (pure guess) to 5 (very sure) by pressing the corresponding button.</p>\n     ","response":2,"image":"img/plate.jpg","task":"confidence","old_or_new":"old","trial_type":"html-button-response","trial_index":98,"time_elapsed":262854,"internal_node_id":"0.0-3.0-1.47","subject_id":"5fc6217d11f15f1e4733d6c6","study_id":"606233c0e42b980319b6a18e","session_id":"60883486027e07bcdb12c159"}]