[{"success":true,"timeout":false,"failed_images":[],"failed_audio":[],"failed_video":[],"trial_type":"preload","trial_index":0,"time_elapsed":11187,"internal_node_id":"0.0-0.0","subject_id":"5f945142d5b73925effe74e0","study_id":"607de2837874a824e2e8c6ec","session_id":"60885051e0ab825ead5003a0"},{"rt":19649.089999496937,"stimulus":"\n      <div style=\"width:800px; text-align: left;\">\n        <p>Welcome to day 2 of the experiment! Thanks for coming back.</p>\n        <p>You will be presented with a series of images. Images will appear one at a time.</p>\n        <p>Each image will remain on the screen until you press either <span style=\"font-weight: bold;\">\"y\" to indicate you have seen the \n        exact same photo the day before or \"n\" to indicate you have not seen the exact same photo the day before.</span></p>\n        <p>After you answer yes (\"y\") or no (\"n\"), you will then be prompted to rate your certainty on a scale of\n        1 (pure guess) to 5 (very sure).</p>\n      </div>\n    ","response":0,"trial_type":"html-button-response","trial_index":1,"time_elapsed":30837,"internal_node_id":"0.0-1.0","subject_id":"5f945142d5b73925effe74e0","study_id":"607de2837874a824e2e8c6ec","session_id":"60885051e0ab825ead5003a0"},{"success":true,"trial_type":"fullscreen","trial_index":2,"time_elapsed":33297,"internal_node_id":"0.0-2.0","subject_id":"5f945142d5b73925effe74e0","study_id":"607de2837874a824e2e8c6ec","session_id":"60885051e0ab825ead5003a0"},{"rt":2138.0600007250905,"stimulus":"img/apple_alternate.jpg","response":"n","image":"img/apple_alternate.jpg","old_or_new":"new","task":"recognition","trial_type":"image-keyboard-response","trial_index":3,"time_elapsed":35449,"internal_node_id":"0.0-3.0-0.0","subject_id":"5f945142d5b73925effe74e0","study_id":"607de2837874a824e2e8c6ec","session_id":"60885051e0ab825ead5003a0","correct":true},{"rt":1603.570000268519,"stimulus":"\n      <p>How sure are you?</p>\n      <p>Rate your confidence in your answer from 1 (pure guess) to 5 (very sure) by pressing the corresponding button.</p>\n     ","response":4,"image":"img/apple_alternate.jpg","task":"confidence","old_or_new":"new","trial_type":"html-button-response","trial_index":4,"time_elapsed":37053,"internal_node_id":"0.0-3.0-1.0","subject_id":"5f945142d5b73925effe74e0","study_id":"607de2837874a824e2e8c6ec","session_id":"60885051e0ab825ead5003a0"},{"rt":1490.879999473691,"stimulus":"img/backpack_alternate.jpg","response":"n","image":"img/backpack_alternate.jpg","old_or_new":"new","task":"recognition","trial_type":"image-keyboard-response","trial_index":5,"time_elapsed":39045,"internal_node_id":"0.0-3.0-0.1","subject_id":"5f945142d5b73925effe74e0","study_id":"607de2837874a824e2e8c6ec","session_id":"60885051e0ab825ead5003a0","correct":true},{"rt":776.9050002098083,"stimulus":"\n      <p>How sure are you?</p>\n      <p>Rate your confidence in your answer from 1 (pure guess) to 5 (very sure) by pressing the corresponding button.</p>\n     ","response":4,"image":"img/backpack_alternate.jpg","task":"confidence","old_or_new":"new","trial_type":"html-button-response","trial_index":6,"time_elapsed":39824,"internal_node_id":"0.0-3.0-1.1","subject_id":"5f945142d5b73925effe74e0","study_id":"607de2837874a824e2e8c6ec","session_id":"60885051e0ab825ead5003a0"},{"rt":1621.590000577271,"stimulus":"img/camera.jpg","response":"y","image":"img/camera.jpg","old_or_new":"old","task":"recognition","trial_type":"image-keyboard-response","trial_index":7,"time_elapsed":41947,"internal_node_id":"0.0-3.0-0.2","subject_id":"5f945142d5b73925effe74e0","study_id":"607de2837874a824e2e8c6ec","session_id":"60885051e0ab825ead5003a0","correct":true},{"rt":1512.1550001204014,"stimulus":"\n      <p>How sure are you?</p>\n      <p>Rate your confidence in your answer from 1 (pure guess) to 5 (very sure) by pressing the corresponding button.</p>\n     ","response":4,"image":"img/camera.jpg","task":"confidence","old_or_new":"old","trial_type":"html-button-response","trial_index":8,"time_elapsed":43459,"internal_node_id":"0.0-3.0-1.2","subject_id":"5f945142d5b73925effe74e0","study_id":"607de2837874a824e2e8c6ec","session_id":"60885051e0ab825ead5003a0"},{"rt":1203.71999964118,"stimulus":"img/key.jpg","response":"y","image":"img/key.jpg","old_or_new":"old","task":"recognition","trial_type":"image-keyboard-response","trial_index":9,"time_elapsed":45165,"internal_node_id":"0.0-3.0-0.3","subject_id":"5f945142d5b73925effe74e0","study_id":"607de2837874a824e2e8c6ec","session_id":"60885051e0ab825ead5003a0","correct":true},{"rt":1489.7250002250075,"stimulus":"\n      <p>How sure are you?</p>\n      <p>Rate your confidence in your answer from 1 (pure guess) to 5 (very sure) by pressing the corresponding button.</p>\n     ","response":4,"image":"img/key.jpg","task":"confidence","old_or_new":"old","trial_type":"html-button-response","trial_index":10,"time_elapsed":46655,"internal_node_id":"0.0-3.0-1.3","subject_id":"5f945142d5b73925effe74e0","study_id":"607de2837874a824e2e8c6ec","session_id":"60885051e0ab825ead5003a0"},{"rt":1323.8049997016788,"stimulus":"img/hair_tie.jpg","response":"y","image":"img/hair_tie.jpg","old_or_new":"old","task":"recognition","trial_type":"image-keyboard-response","trial_index":11,"time_elapsed":48481,"internal_node_id":"0.0-3.0-0.4","subject_id":"5f945142d5b73925effe74e0","study_id":"607de2837874a824e2e8c6ec","session_id":"60885051e0ab825ead5003a0","correct":true},{"rt":1032.8949997201562,"stimulus":"\n      <p>How sure are you?</p>\n      <p>Rate your confidence in your answer from 1 (pure guess) to 5 (very sure) by pressing the corresponding button.</p>\n     ","response":4,"image":"img/hair_tie.jpg","task":"confidence","old_or_new":"old","trial_type":"html-button-response","trial_index":12,"time_elapsed":49515,"internal_node_id":"0.0-3.0-1.4","subject_id":"5f945142d5b73925effe74e0","study_id":"607de2837874a824e2e8c6ec","session_id":"60885051e0ab825ead5003a0"},{"rt":1270.2100006863475,"stimulus":"img/bowl_alternate.jpg","response":"n","image":"img/bowl_alternate.jpg","old_or_new":"new","task":"recognition","trial_type":"image-keyboard-response","trial_index":13,"time_elapsed":51288,"internal_node_id":"0.0-3.0-0.5","subject_id":"5f945142d5b73925effe74e0","study_id":"607de2837874a824e2e8c6ec","session_id":"60885051e0ab825ead5003a0","correct":true},{"rt":1152.724999934435,"stimulus":"\n      <p>How sure are you?</p>\n      <p>Rate your confidence in your answer from 1 (pure guess) to 5 (very sure) by pressing the corresponding button.</p>\n     ","response":4,"image":"img/bowl_alternate.jpg","task":"confidence","old_or_new":"new","trial_type":"html-button-response","trial_index":14,"time_elapsed":52442,"internal_node_id":"0.0-3.0-1.5","subject_id":"5f945142d5b73925effe74e0","study_id":"607de2837874a824e2e8c6ec","session_id":"60885051e0ab825ead5003a0"},{"rt":1678.175000473857,"stimulus":"img/fan.jpg","response":"y","image":"img/fan.jpg","old_or_new":"old","task":"recognition","trial_type":"image-keyboard-response","trial_index":15,"time_elapsed":54622,"internal_node_id":"0.0-3.0-0.6","subject_id":"5f945142d5b73925effe74e0","study_id":"607de2837874a824e2e8c6ec","session_id":"60885051e0ab825ead5003a0","correct":true},{"rt":922.1649998798966,"stimulus":"\n      <p>How sure are you?</p>\n      <p>Rate your confidence in your answer from 1 (pure guess) to 5 (very sure) by pressing the corresponding button.</p>\n     ","response":4,"image":"img/fan.jpg","task":"confidence","old_or_new":"old","trial_type":"html-button-response","trial_index":16,"time_elapsed":55545,"internal_node_id":"0.0-3.0-1.6","subject_id":"5f945142d5b73925effe74e0","study_id":"607de2837874a824e2e8c6ec","session_id":"60885051e0ab825ead5003a0"},{"rt":2382.3800003156066,"stimulus":"img/hat_alternate.jpg","response":"n","image":"img/hat_alternate.jpg","old_or_new":"new","task":"recognition","trial_type":"image-keyboard-response","trial_index":17,"time_elapsed":58430,"internal_node_id":"0.0-3.0-0.7","subject_id":"5f945142d5b73925effe74e0","study_id":"607de2837874a824e2e8c6ec","session_id":"60885051e0ab825ead5003a0","correct":true},{"rt":1896.7199996113777,"stimulus":"\n      <p>How sure are you?</p>\n      <p>Rate your confidence in your answer from 1 (pure guess) to 5 (very sure) by pressing the corresponding button.</p>\n     ","response":1,"image":"img/hat_alternate.jpg","task":"confidence","old_or_new":"new","trial_type":"html-button-response","trial_index":18,"time_elapsed":60329,"internal_node_id":"0.0-3.0-1.7","subject_id":"5f945142d5b73925effe74e0","study_id":"607de2837874a824e2e8c6ec","session_id":"60885051e0ab825ead5003a0"},{"rt":4027.2450000047684,"stimulus":"img/calculator_alternate.jpg","response":"n","image":"img/calculator_alternate.jpg","old_or_new":"new","task":"recognition","trial_type":"image-keyboard-response","trial_index":19,"time_elapsed":64858,"internal_node_id":"0.0-3.0-0.8","subject_id":"5f945142d5b73925effe74e0","study_id":"607de2837874a824e2e8c6ec","session_id":"60885051e0ab825ead5003a0","correct":true},{"rt":1219.9999997392297,"stimulus":"\n      <p>How sure are you?</p>\n      <p>Rate your confidence in your answer from 1 (pure guess) to 5 (very sure) by pressing the corresponding button.</p>\n     ","response":4,"image":"img/calculator_alternate.jpg","task":"confidence","old_or_new":"new","trial_type":"html-button-response","trial_index":20,"time_elapsed":66079,"internal_node_id":"0.0-3.0-1.8","subject_id":"5f945142d5b73925effe74e0","study_id":"607de2837874a824e2e8c6ec","session_id":"60885051e0ab825ead5003a0"},{"rt":1430.4950004443526,"stimulus":"img/fan_alternate.jpg","response":"n","image":"img/fan_alternate.jpg","old_or_new":"new","task":"recognition","trial_type":"image-keyboard-response","trial_index":21,"time_elapsed":68012,"internal_node_id":"0.0-3.0-0.9","subject_id":"5f945142d5b73925effe74e0","study_id":"607de2837874a824e2e8c6ec","session_id":"60885051e0ab825ead5003a0","correct":true},{"rt":1104.9799993634224,"stimulus":"\n      <p>How sure are you?</p>\n      <p>Rate your confidence in your answer from 1 (pure guess) to 5 (very sure) by pressing the corresponding button.</p>\n     ","response":3,"image":"img/fan_alternate.jpg","task":"confidence","old_or_new":"new","trial_type":"html-button-response","trial_index":22,"time_elapsed":69118,"internal_node_id":"0.0-3.0-1.9","subject_id":"5f945142d5b73925effe74e0","study_id":"607de2837874a824e2e8c6ec","session_id":"60885051e0ab825ead5003a0"},{"rt":4383.3349999040365,"stimulus":"img/lightbulb_alternate.jpg","response":"n","image":"img/lightbulb_alternate.jpg","old_or_new":"new","task":"recognition","trial_type":"image-keyboard-response","trial_index":23,"time_elapsed":74003,"internal_node_id":"0.0-3.0-0.10","subject_id":"5f945142d5b73925effe74e0","study_id":"607de2837874a824e2e8c6ec","session_id":"60885051e0ab825ead5003a0","correct":true},{"rt":851.3899995014071,"stimulus":"\n      <p>How sure are you?</p>\n      <p>Rate your confidence in your answer from 1 (pure guess) to 5 (very sure) by pressing the corresponding button.</p>\n     ","response":3,"image":"img/lightbulb_alternate.jpg","task":"confidence","old_or_new":"new","trial_type":"html-button-response","trial_index":24,"time_elapsed":74856,"internal_node_id":"0.0-3.0-1.10","subject_id":"5f945142d5b73925effe74e0","study_id":"607de2837874a824e2e8c6ec","session_id":"60885051e0ab825ead5003a0"},{"rt":1596.0100004449487,"stimulus":"img/hourglass.jpg","response":"y","image":"img/hourglass.jpg","old_or_new":"old","task":"recognition","trial_type":"image-keyboard-response","trial_index":25,"time_elapsed":76954,"internal_node_id":"0.0-3.0-0.11","subject_id":"5f945142d5b73925effe74e0","study_id":"607de2837874a824e2e8c6ec","session_id":"60885051e0ab825ead5003a0","correct":true},{"rt":1145.0150003656745,"stimulus":"\n      <p>How sure are you?</p>\n      <p>Rate your confidence in your answer from 1 (pure guess) to 5 (very sure) by pressing the corresponding button.</p>\n     ","response":4,"image":"img/hourglass.jpg","task":"confidence","old_or_new":"old","trial_type":"html-button-response","trial_index":26,"time_elapsed":78100,"internal_node_id":"0.0-3.0-1.11","subject_id":"5f945142d5b73925effe74e0","study_id":"607de2837874a824e2e8c6ec","session_id":"60885051e0ab825ead5003a0"},{"rt":1064.4849995151162,"stimulus":"img/globe.jpg","response":"y","image":"img/globe.jpg","old_or_new":"old","task":"recognition","trial_type":"image-keyboard-response","trial_index":27,"time_elapsed":79666,"internal_node_id":"0.0-3.0-0.12","subject_id":"5f945142d5b73925effe74e0","study_id":"607de2837874a824e2e8c6ec","session_id":"60885051e0ab825ead5003a0","correct":true},{"rt":762.0800007134676,"stimulus":"\n      <p>How sure are you?</p>\n      <p>Rate your confidence in your answer from 1 (pure guess) to 5 (very sure) by pressing the corresponding button.</p>\n     ","response":4,"image":"img/globe.jpg","task":"confidence","old_or_new":"old","trial_type":"html-button-response","trial_index":28,"time_elapsed":80430,"internal_node_id":"0.0-3.0-1.12","subject_id":"5f945142d5b73925effe74e0","study_id":"607de2837874a824e2e8c6ec","session_id":"60885051e0ab825ead5003a0"},{"rt":1048.0050006881356,"stimulus":"img/lightbulb.jpg","response":"y","image":"img/lightbulb.jpg","old_or_new":"old","task":"recognition","trial_type":"image-keyboard-response","trial_index":29,"time_elapsed":81982,"internal_node_id":"0.0-3.0-0.13","subject_id":"5f945142d5b73925effe74e0","study_id":"607de2837874a824e2e8c6ec","session_id":"60885051e0ab825ead5003a0","correct":true},{"rt":712.7900002524257,"stimulus":"\n      <p>How sure are you?</p>\n      <p>Rate your confidence in your answer from 1 (pure guess) to 5 (very sure) by pressing the corresponding button.</p>\n     ","response":4,"image":"img/lightbulb.jpg","task":"confidence","old_or_new":"old","trial_type":"html-button-response","trial_index":30,"time_elapsed":82695,"internal_node_id":"0.0-3.0-1.13","subject_id":"5f945142d5b73925effe74e0","study_id":"607de2837874a824e2e8c6ec","session_id":"60885051e0ab825ead5003a0"},{"rt":1045.490000396967,"stimulus":"img/hairbrush_alternate.jpg","response":"n","image":"img/hairbrush_alternate.jpg","old_or_new":"new","task":"recognition","trial_type":"image-keyboard-response","trial_index":31,"time_elapsed":84243,"internal_node_id":"0.0-3.0-0.14","subject_id":"5f945142d5b73925effe74e0","study_id":"607de2837874a824e2e8c6ec","session_id":"60885051e0ab825ead5003a0","correct":true},{"rt":1033.7399998679757,"stimulus":"\n      <p>How sure are you?</p>\n      <p>Rate your confidence in your answer from 1 (pure guess) to 5 (very sure) by pressing the corresponding button.</p>\n     ","response":1,"image":"img/hairbrush_alternate.jpg","task":"confidence","old_or_new":"new","trial_type":"html-button-response","trial_index":32,"time_elapsed":85278,"internal_node_id":"0.0-3.0-1.14","subject_id":"5f945142d5b73925effe74e0","study_id":"607de2837874a824e2e8c6ec","session_id":"60885051e0ab825ead5003a0"},{"rt":1221.3550005108118,"stimulus":"img/ladder.jpg","response":"y","image":"img/ladder.jpg","old_or_new":"old","task":"recognition","trial_type":"image-keyboard-response","trial_index":33,"time_elapsed":87003,"internal_node_id":"0.0-3.0-0.15","subject_id":"5f945142d5b73925effe74e0","study_id":"607de2837874a824e2e8c6ec","session_id":"60885051e0ab825ead5003a0","correct":true},{"rt":1102.000000886619,"stimulus":"\n      <p>How sure are you?</p>\n      <p>Rate your confidence in your answer from 1 (pure guess) to 5 (very sure) by pressing the corresponding button.</p>\n     ","response":4,"image":"img/ladder.jpg","task":"confidence","old_or_new":"old","trial_type":"html-button-response","trial_index":34,"time_elapsed":88105,"internal_node_id":"0.0-3.0-1.15","subject_id":"5f945142d5b73925effe74e0","study_id":"607de2837874a824e2e8c6ec","session_id":"60885051e0ab825ead5003a0"},{"rt":2320.5350004136562,"stimulus":"img/helmet_alternate.jpg","response":"n","image":"img/helmet_alternate.jpg","old_or_new":"new","task":"recognition","trial_type":"image-keyboard-response","trial_index":35,"time_elapsed":90928,"internal_node_id":"0.0-3.0-0.16","subject_id":"5f945142d5b73925effe74e0","study_id":"607de2837874a824e2e8c6ec","session_id":"60885051e0ab825ead5003a0","correct":true},{"rt":688.8399999588728,"stimulus":"\n      <p>How sure are you?</p>\n      <p>Rate your confidence in your answer from 1 (pure guess) to 5 (very sure) by pressing the corresponding button.</p>\n     ","response":4,"image":"img/helmet_alternate.jpg","task":"confidence","old_or_new":"new","trial_type":"html-button-response","trial_index":36,"time_elapsed":91618,"internal_node_id":"0.0-3.0-1.16","subject_id":"5f945142d5b73925effe74e0","study_id":"607de2837874a824e2e8c6ec","session_id":"60885051e0ab825ead5003a0"},{"rt":2140.5100002884865,"stimulus":"img/drum_alternate.jpg","response":"n","image":"img/drum_alternate.jpg","old_or_new":"new","task":"recognition","trial_type":"image-keyboard-response","trial_index":37,"time_elapsed":94260,"internal_node_id":"0.0-3.0-0.17","subject_id":"5f945142d5b73925effe74e0","study_id":"607de2837874a824e2e8c6ec","session_id":"60885051e0ab825ead5003a0","correct":true},{"rt":996.369999833405,"stimulus":"\n      <p>How sure are you?</p>\n      <p>Rate your confidence in your answer from 1 (pure guess) to 5 (very sure) by pressing the corresponding button.</p>\n     ","response":2,"image":"img/drum_alternate.jpg","task":"confidence","old_or_new":"new","trial_type":"html-button-response","trial_index":38,"time_elapsed":95257,"internal_node_id":"0.0-3.0-1.17","subject_id":"5f945142d5b73925effe74e0","study_id":"607de2837874a824e2e8c6ec","session_id":"60885051e0ab825ead5003a0"},{"rt":1155.6599996984005,"stimulus":"img/hair_tie_alternate.jpg","response":"n","image":"img/hair_tie_alternate.jpg","old_or_new":"new","task":"recognition","trial_type":"image-keyboard-response","trial_index":39,"time_elapsed":96915,"internal_node_id":"0.0-3.0-0.18","subject_id":"5f945142d5b73925effe74e0","study_id":"607de2837874a824e2e8c6ec","session_id":"60885051e0ab825ead5003a0","correct":true},{"rt":1040.8250000327826,"stimulus":"\n      <p>How sure are you?</p>\n      <p>Rate your confidence in your answer from 1 (pure guess) to 5 (very sure) by pressing the corresponding button.</p>\n     ","response":4,"image":"img/hair_tie_alternate.jpg","task":"confidence","old_or_new":"new","trial_type":"html-button-response","trial_index":40,"time_elapsed":97957,"internal_node_id":"0.0-3.0-1.18","subject_id":"5f945142d5b73925effe74e0","study_id":"607de2837874a824e2e8c6ec","session_id":"60885051e0ab825ead5003a0"},{"rt":1025.334999896586,"stimulus":"img/hairbrush.jpg","response":"y","image":"img/hairbrush.jpg","old_or_new":"old","task":"recognition","trial_type":"image-keyboard-response","trial_index":41,"time_elapsed":99485,"internal_node_id":"0.0-3.0-0.19","subject_id":"5f945142d5b73925effe74e0","study_id":"607de2837874a824e2e8c6ec","session_id":"60885051e0ab825ead5003a0","correct":true},{"rt":1204.979999922216,"stimulus":"\n      <p>How sure are you?</p>\n      <p>Rate your confidence in your answer from 1 (pure guess) to 5 (very sure) by pressing the corresponding button.</p>\n     ","response":4,"image":"img/hairbrush.jpg","task":"confidence","old_or_new":"old","trial_type":"html-button-response","trial_index":42,"time_elapsed":100691,"internal_node_id":"0.0-3.0-1.19","subject_id":"5f945142d5b73925effe74e0","study_id":"607de2837874a824e2e8c6ec","session_id":"60885051e0ab825ead5003a0"},{"rt":890.3299998492002,"stimulus":"img/leaf_alternate.jpg","response":"n","image":"img/leaf_alternate.jpg","old_or_new":"new","task":"recognition","trial_type":"image-keyboard-response","trial_index":43,"time_elapsed":102083,"internal_node_id":"0.0-3.0-0.20","subject_id":"5f945142d5b73925effe74e0","study_id":"607de2837874a824e2e8c6ec","session_id":"60885051e0ab825ead5003a0","correct":true},{"rt":1148.5299998894334,"stimulus":"\n      <p>How sure are you?</p>\n      <p>Rate your confidence in your answer from 1 (pure guess) to 5 (very sure) by pressing the corresponding button.</p>\n     ","response":4,"image":"img/leaf_alternate.jpg","task":"confidence","old_or_new":"new","trial_type":"html-button-response","trial_index":44,"time_elapsed":103233,"internal_node_id":"0.0-3.0-1.20","subject_id":"5f945142d5b73925effe74e0","study_id":"607de2837874a824e2e8c6ec","session_id":"60885051e0ab825ead5003a0"},{"rt":921.1649997159839,"stimulus":"img/helmet.jpg","response":"y","image":"img/helmet.jpg","old_or_new":"old","task":"recognition","trial_type":"image-keyboard-response","trial_index":45,"time_elapsed":104657,"internal_node_id":"0.0-3.0-0.21","subject_id":"5f945142d5b73925effe74e0","study_id":"607de2837874a824e2e8c6ec","session_id":"60885051e0ab825ead5003a0","correct":true},{"rt":1074.9049996957183,"stimulus":"\n      <p>How sure are you?</p>\n      <p>Rate your confidence in your answer from 1 (pure guess) to 5 (very sure) by pressing the corresponding button.</p>\n     ","response":4,"image":"img/helmet.jpg","task":"confidence","old_or_new":"old","trial_type":"html-button-response","trial_index":46,"time_elapsed":105733,"internal_node_id":"0.0-3.0-1.21","subject_id":"5f945142d5b73925effe74e0","study_id":"607de2837874a824e2e8c6ec","session_id":"60885051e0ab825ead5003a0"},{"rt":1074.4300000369549,"stimulus":"img/backpack.jpg","response":"y","image":"img/backpack.jpg","old_or_new":"old","task":"recognition","trial_type":"image-keyboard-response","trial_index":47,"time_elapsed":107310,"internal_node_id":"0.0-3.0-0.22","subject_id":"5f945142d5b73925effe74e0","study_id":"607de2837874a824e2e8c6ec","session_id":"60885051e0ab825ead5003a0","correct":true},{"rt":754.3899994343519,"stimulus":"\n      <p>How sure are you?</p>\n      <p>Rate your confidence in your answer from 1 (pure guess) to 5 (very sure) by pressing the corresponding button.</p>\n     ","response":4,"image":"img/backpack.jpg","task":"confidence","old_or_new":"old","trial_type":"html-button-response","trial_index":48,"time_elapsed":108066,"internal_node_id":"0.0-3.0-1.22","subject_id":"5f945142d5b73925effe74e0","study_id":"607de2837874a824e2e8c6ec","session_id":"60885051e0ab825ead5003a0"},{"rt":945.9699997678399,"stimulus":"img/coin.jpg","response":"y","image":"img/coin.jpg","old_or_new":"old","task":"recognition","trial_type":"image-keyboard-response","trial_index":49,"time_elapsed":109520,"internal_node_id":"0.0-3.0-0.23","subject_id":"5f945142d5b73925effe74e0","study_id":"607de2837874a824e2e8c6ec","session_id":"60885051e0ab825ead5003a0","correct":true},{"rt":680.4749993607402,"stimulus":"\n      <p>How sure are you?</p>\n      <p>Rate your confidence in your answer from 1 (pure guess) to 5 (very sure) by pressing the corresponding button.</p>\n     ","response":4,"image":"img/coin.jpg","task":"confidence","old_or_new":"old","trial_type":"html-button-response","trial_index":50,"time_elapsed":110220,"internal_node_id":"0.0-3.0-1.23","subject_id":"5f945142d5b73925effe74e0","study_id":"607de2837874a824e2e8c6ec","session_id":"60885051e0ab825ead5003a0"},{"rt":1096.4299999177456,"stimulus":"img/folder.jpg","response":"y","image":"img/folder.jpg","old_or_new":"old","task":"recognition","trial_type":"image-keyboard-response","trial_index":51,"time_elapsed":111819,"internal_node_id":"0.0-3.0-0.24","subject_id":"5f945142d5b73925effe74e0","study_id":"607de2837874a824e2e8c6ec","session_id":"60885051e0ab825ead5003a0","correct":true},{"rt":758.984999731183,"stimulus":"\n      <p>How sure are you?</p>\n      <p>Rate your confidence in your answer from 1 (pure guess) to 5 (very sure) by pressing the corresponding button.</p>\n     ","response":4,"image":"img/folder.jpg","task":"confidence","old_or_new":"old","trial_type":"html-button-response","trial_index":52,"time_elapsed":112579,"internal_node_id":"0.0-3.0-1.24","subject_id":"5f945142d5b73925effe74e0","study_id":"607de2837874a824e2e8c6ec","session_id":"60885051e0ab825ead5003a0"},{"rt":2724.7850000858307,"stimulus":"img/bowl.jpg","response":"y","image":"img/bowl.jpg","old_or_new":"old","task":"recognition","trial_type":"image-keyboard-response","trial_index":53,"time_elapsed":115806,"internal_node_id":"0.0-3.0-0.25","subject_id":"5f945142d5b73925effe74e0","study_id":"607de2837874a824e2e8c6ec","session_id":"60885051e0ab825ead5003a0","correct":true},{"rt":1284.1449994593859,"stimulus":"\n      <p>How sure are you?</p>\n      <p>Rate your confidence in your answer from 1 (pure guess) to 5 (very sure) by pressing the corresponding button.</p>\n     ","response":3,"image":"img/bowl.jpg","task":"confidence","old_or_new":"old","trial_type":"html-button-response","trial_index":54,"time_elapsed":117092,"internal_node_id":"0.0-3.0-1.25","subject_id":"5f945142d5b73925effe74e0","study_id":"607de2837874a824e2e8c6ec","session_id":"60885051e0ab825ead5003a0"},{"rt":1837.8550000488758,"stimulus":"img/calculator.jpg","response":"y","image":"img/calculator.jpg","old_or_new":"old","task":"recognition","trial_type":"image-keyboard-response","trial_index":55,"time_elapsed":119434,"internal_node_id":"0.0-3.0-0.26","subject_id":"5f945142d5b73925effe74e0","study_id":"607de2837874a824e2e8c6ec","session_id":"60885051e0ab825ead5003a0","correct":true},{"rt":861.1650001257658,"stimulus":"\n      <p>How sure are you?</p>\n      <p>Rate your confidence in your answer from 1 (pure guess) to 5 (very sure) by pressing the corresponding button.</p>\n     ","response":4,"image":"img/calculator.jpg","task":"confidence","old_or_new":"old","trial_type":"html-button-response","trial_index":56,"time_elapsed":120301,"internal_node_id":"0.0-3.0-1.26","subject_id":"5f945142d5b73925effe74e0","study_id":"607de2837874a824e2e8c6ec","session_id":"60885051e0ab825ead5003a0"},{"rt":1128.3399993553758,"stimulus":"img/coin_alternate.jpg","response":"n","image":"img/coin_alternate.jpg","old_or_new":"new","task":"recognition","trial_type":"image-keyboard-response","trial_index":57,"time_elapsed":121932,"internal_node_id":"0.0-3.0-0.27","subject_id":"5f945142d5b73925effe74e0","study_id":"607de2837874a824e2e8c6ec","session_id":"60885051e0ab825ead5003a0","correct":true},{"rt":924.5699997991323,"stimulus":"\n      <p>How sure are you?</p>\n      <p>Rate your confidence in your answer from 1 (pure guess) to 5 (very sure) by pressing the corresponding button.</p>\n     ","response":4,"image":"img/coin_alternate.jpg","task":"confidence","old_or_new":"new","trial_type":"html-button-response","trial_index":58,"time_elapsed":122858,"internal_node_id":"0.0-3.0-1.27","subject_id":"5f945142d5b73925effe74e0","study_id":"607de2837874a824e2e8c6ec","session_id":"60885051e0ab825ead5003a0"},{"rt":1049.7399996966124,"stimulus":"img/glasses_alternate.jpg","response":"y","image":"img/glasses_alternate.jpg","old_or_new":"new","task":"recognition","trial_type":"image-keyboard-response","trial_index":59,"time_elapsed":124410,"internal_node_id":"0.0-3.0-0.28","subject_id":"5f945142d5b73925effe74e0","study_id":"607de2837874a824e2e8c6ec","session_id":"60885051e0ab825ead5003a0","correct":false},{"rt":726.5950003638864,"stimulus":"\n      <p>How sure are you?</p>\n      <p>Rate your confidence in your answer from 1 (pure guess) to 5 (very sure) by pressing the corresponding button.</p>\n     ","response":4,"image":"img/glasses_alternate.jpg","task":"confidence","old_or_new":"new","trial_type":"html-button-response","trial_index":60,"time_elapsed":125137,"internal_node_id":"0.0-3.0-1.28","subject_id":"5f945142d5b73925effe74e0","study_id":"607de2837874a824e2e8c6ec","session_id":"60885051e0ab825ead5003a0"},{"rt":946.9499997794628,"stimulus":"img/ladder_alternate.jpg","response":"n","image":"img/ladder_alternate.jpg","old_or_new":"new","task":"recognition","trial_type":"image-keyboard-response","trial_index":61,"time_elapsed":126587,"internal_node_id":"0.0-3.0-0.29","subject_id":"5f945142d5b73925effe74e0","study_id":"607de2837874a824e2e8c6ec","session_id":"60885051e0ab825ead5003a0","correct":true},{"rt":603.2050000503659,"stimulus":"\n      <p>How sure are you?</p>\n      <p>Rate your confidence in your answer from 1 (pure guess) to 5 (very sure) by pressing the corresponding button.</p>\n     ","response":4,"image":"img/ladder_alternate.jpg","task":"confidence","old_or_new":"new","trial_type":"html-button-response","trial_index":62,"time_elapsed":127191,"internal_node_id":"0.0-3.0-1.29","subject_id":"5f945142d5b73925effe74e0","study_id":"607de2837874a824e2e8c6ec","session_id":"60885051e0ab825ead5003a0"},{"rt":1622.2850000485778,"stimulus":"img/glasses.jpg","response":"y","image":"img/glasses.jpg","old_or_new":"old","task":"recognition","trial_type":"image-keyboard-response","trial_index":63,"time_elapsed":129316,"internal_node_id":"0.0-3.0-0.30","subject_id":"5f945142d5b73925effe74e0","study_id":"607de2837874a824e2e8c6ec","session_id":"60885051e0ab825ead5003a0","correct":true},{"rt":2050.034999847412,"stimulus":"\n      <p>How sure are you?</p>\n      <p>Rate your confidence in your answer from 1 (pure guess) to 5 (very sure) by pressing the corresponding button.</p>\n     ","response":3,"image":"img/glasses.jpg","task":"confidence","old_or_new":"old","trial_type":"html-button-response","trial_index":64,"time_elapsed":131368,"internal_node_id":"0.0-3.0-1.30","subject_id":"5f945142d5b73925effe74e0","study_id":"607de2837874a824e2e8c6ec","session_id":"60885051e0ab825ead5003a0"},{"rt":1640.0750000029802,"stimulus":"img/leaf.jpg","response":"y","image":"img/leaf.jpg","old_or_new":"old","task":"recognition","trial_type":"image-keyboard-response","trial_index":65,"time_elapsed":133510,"internal_node_id":"0.0-3.0-0.31","subject_id":"5f945142d5b73925effe74e0","study_id":"607de2837874a824e2e8c6ec","session_id":"60885051e0ab825ead5003a0","correct":true},{"rt":1076.5800001099706,"stimulus":"\n      <p>How sure are you?</p>\n      <p>Rate your confidence in your answer from 1 (pure guess) to 5 (very sure) by pressing the corresponding button.</p>\n     ","response":4,"image":"img/leaf.jpg","task":"confidence","old_or_new":"old","trial_type":"html-button-response","trial_index":66,"time_elapsed":134588,"internal_node_id":"0.0-3.0-1.31","subject_id":"5f945142d5b73925effe74e0","study_id":"607de2837874a824e2e8c6ec","session_id":"60885051e0ab825ead5003a0"},{"rt":997.7150000631809,"stimulus":"img/apple.jpg","response":"y","image":"img/apple.jpg","old_or_new":"old","task":"recognition","trial_type":"image-keyboard-response","trial_index":67,"time_elapsed":136089,"internal_node_id":"0.0-3.0-0.32","subject_id":"5f945142d5b73925effe74e0","study_id":"607de2837874a824e2e8c6ec","session_id":"60885051e0ab825ead5003a0","correct":true},{"rt":507.80999939888716,"stimulus":"\n      <p>How sure are you?</p>\n      <p>Rate your confidence in your answer from 1 (pure guess) to 5 (very sure) by pressing the corresponding button.</p>\n     ","response":4,"image":"img/apple.jpg","task":"confidence","old_or_new":"old","trial_type":"html-button-response","trial_index":68,"time_elapsed":136598,"internal_node_id":"0.0-3.0-1.32","subject_id":"5f945142d5b73925effe74e0","study_id":"607de2837874a824e2e8c6ec","session_id":"60885051e0ab825ead5003a0"},{"rt":2816.7799999937415,"stimulus":"img/basket_alternate.jpg","response":"y","image":"img/basket_alternate.jpg","old_or_new":"new","task":"recognition","trial_type":"image-keyboard-response","trial_index":69,"time_elapsed":139918,"internal_node_id":"0.0-3.0-0.33","subject_id":"5f945142d5b73925effe74e0","study_id":"607de2837874a824e2e8c6ec","session_id":"60885051e0ab825ead5003a0","correct":false},{"rt":1121.1850000545382,"stimulus":"\n      <p>How sure are you?</p>\n      <p>Rate your confidence in your answer from 1 (pure guess) to 5 (very sure) by pressing the corresponding button.</p>\n     ","response":2,"image":"img/basket_alternate.jpg","task":"confidence","old_or_new":"new","trial_type":"html-button-response","trial_index":70,"time_elapsed":141040,"internal_node_id":"0.0-3.0-1.33","subject_id":"5f945142d5b73925effe74e0","study_id":"607de2837874a824e2e8c6ec","session_id":"60885051e0ab825ead5003a0"},{"rt":1237.2549995779991,"stimulus":"img/chair.jpg","response":"y","image":"img/chair.jpg","old_or_new":"old","task":"recognition","trial_type":"image-keyboard-response","trial_index":71,"time_elapsed":142780,"internal_node_id":"0.0-3.0-0.34","subject_id":"5f945142d5b73925effe74e0","study_id":"607de2837874a824e2e8c6ec","session_id":"60885051e0ab825ead5003a0","correct":true},{"rt":933.2449994981289,"stimulus":"\n      <p>How sure are you?</p>\n      <p>Rate your confidence in your answer from 1 (pure guess) to 5 (very sure) by pressing the corresponding button.</p>\n     ","response":4,"image":"img/chair.jpg","task":"confidence","old_or_new":"old","trial_type":"html-button-response","trial_index":72,"time_elapsed":143714,"internal_node_id":"0.0-3.0-1.34","subject_id":"5f945142d5b73925effe74e0","study_id":"607de2837874a824e2e8c6ec","session_id":"60885051e0ab825ead5003a0"},{"rt":2540.350000374019,"stimulus":"img/key_alternate.jpg","response":"n","image":"img/key_alternate.jpg","old_or_new":"new","task":"recognition","trial_type":"image-keyboard-response","trial_index":73,"time_elapsed":146755,"internal_node_id":"0.0-3.0-0.35","subject_id":"5f945142d5b73925effe74e0","study_id":"607de2837874a824e2e8c6ec","session_id":"60885051e0ab825ead5003a0","correct":true},{"rt":1502.1750004962087,"stimulus":"\n      <p>How sure are you?</p>\n      <p>Rate your confidence in your answer from 1 (pure guess) to 5 (very sure) by pressing the corresponding button.</p>\n     ","response":1,"image":"img/key_alternate.jpg","task":"confidence","old_or_new":"new","trial_type":"html-button-response","trial_index":74,"time_elapsed":148258,"internal_node_id":"0.0-3.0-1.35","subject_id":"5f945142d5b73925effe74e0","study_id":"607de2837874a824e2e8c6ec","session_id":"60885051e0ab825ead5003a0"},{"rt":2185.140000656247,"stimulus":"img/folder_alternate.jpg","response":"n","image":"img/folder_alternate.jpg","old_or_new":"new","task":"recognition","trial_type":"image-keyboard-response","trial_index":75,"time_elapsed":150945,"internal_node_id":"0.0-3.0-0.36","subject_id":"5f945142d5b73925effe74e0","study_id":"607de2837874a824e2e8c6ec","session_id":"60885051e0ab825ead5003a0","correct":true},{"rt":994.4350002333522,"stimulus":"\n      <p>How sure are you?</p>\n      <p>Rate your confidence in your answer from 1 (pure guess) to 5 (very sure) by pressing the corresponding button.</p>\n     ","response":4,"image":"img/folder_alternate.jpg","task":"confidence","old_or_new":"new","trial_type":"html-button-response","trial_index":76,"time_elapsed":151940,"internal_node_id":"0.0-3.0-1.36","subject_id":"5f945142d5b73925effe74e0","study_id":"607de2837874a824e2e8c6ec","session_id":"60885051e0ab825ead5003a0"},{"rt":1222.8399999439716,"stimulus":"img/drum.jpg","response":"y","image":"img/drum.jpg","old_or_new":"old","task":"recognition","trial_type":"image-keyboard-response","trial_index":77,"time_elapsed":153665,"internal_node_id":"0.0-3.0-0.37","subject_id":"5f945142d5b73925effe74e0","study_id":"607de2837874a824e2e8c6ec","session_id":"60885051e0ab825ead5003a0","correct":true},{"rt":615.8599993214011,"stimulus":"\n      <p>How sure are you?</p>\n      <p>Rate your confidence in your answer from 1 (pure guess) to 5 (very sure) by pressing the corresponding button.</p>\n     ","response":4,"image":"img/drum.jpg","task":"confidence","old_or_new":"old","trial_type":"html-button-response","trial_index":78,"time_elapsed":154282,"internal_node_id":"0.0-3.0-1.37","subject_id":"5f945142d5b73925effe74e0","study_id":"607de2837874a824e2e8c6ec","session_id":"60885051e0ab825ead5003a0"},{"rt":1201.3199999928474,"stimulus":"img/hourglass_alternate.jpg","response":"n","image":"img/hourglass_alternate.jpg","old_or_new":"new","task":"recognition","trial_type":"image-keyboard-response","trial_index":79,"time_elapsed":155984,"internal_node_id":"0.0-3.0-0.38","subject_id":"5f945142d5b73925effe74e0","study_id":"607de2837874a824e2e8c6ec","session_id":"60885051e0ab825ead5003a0","correct":true},{"rt":644.1450007259846,"stimulus":"\n      <p>How sure are you?</p>\n      <p>Rate your confidence in your answer from 1 (pure guess) to 5 (very sure) by pressing the corresponding button.</p>\n     ","response":4,"image":"img/hourglass_alternate.jpg","task":"confidence","old_or_new":"new","trial_type":"html-button-response","trial_index":80,"time_elapsed":156645,"internal_node_id":"0.0-3.0-1.38","subject_id":"5f945142d5b73925effe74e0","study_id":"607de2837874a824e2e8c6ec","session_id":"60885051e0ab825ead5003a0"},{"rt":1043.190000578761,"stimulus":"img/grapes_alternate.jpg","response":"y","image":"img/grapes_alternate.jpg","old_or_new":"new","task":"recognition","trial_type":"image-keyboard-response","trial_index":81,"time_elapsed":158191,"internal_node_id":"0.0-3.0-0.39","subject_id":"5f945142d5b73925effe74e0","study_id":"607de2837874a824e2e8c6ec","session_id":"60885051e0ab825ead5003a0","correct":false},{"rt":783.8500002399087,"stimulus":"\n      <p>How sure are you?</p>\n      <p>Rate your confidence in your answer from 1 (pure guess) to 5 (very sure) by pressing the corresponding button.</p>\n     ","response":4,"image":"img/grapes_alternate.jpg","task":"confidence","old_or_new":"new","trial_type":"html-button-response","trial_index":82,"time_elapsed":158975,"internal_node_id":"0.0-3.0-1.39","subject_id":"5f945142d5b73925effe74e0","study_id":"607de2837874a824e2e8c6ec","session_id":"60885051e0ab825ead5003a0"},{"rt":1049.5299994945526,"stimulus":"img/chair_alternate.jpg","response":"n","image":"img/chair_alternate.jpg","old_or_new":"new","task":"recognition","trial_type":"image-keyboard-response","trial_index":83,"time_elapsed":160527,"internal_node_id":"0.0-3.0-0.40","subject_id":"5f945142d5b73925effe74e0","study_id":"607de2837874a824e2e8c6ec","session_id":"60885051e0ab825ead5003a0","correct":true},{"rt":672.2250003367662,"stimulus":"\n      <p>How sure are you?</p>\n      <p>Rate your confidence in your answer from 1 (pure guess) to 5 (very sure) by pressing the corresponding button.</p>\n     ","response":4,"image":"img/chair_alternate.jpg","task":"confidence","old_or_new":"new","trial_type":"html-button-response","trial_index":84,"time_elapsed":161200,"internal_node_id":"0.0-3.0-1.40","subject_id":"5f945142d5b73925effe74e0","study_id":"607de2837874a824e2e8c6ec","session_id":"60885051e0ab825ead5003a0"},{"rt":1082.3099995031953,"stimulus":"img/camera_alternate.jpg","response":"n","image":"img/camera_alternate.jpg","old_or_new":"new","task":"recognition","trial_type":"image-keyboard-response","trial_index":85,"time_elapsed":162785,"internal_node_id":"0.0-3.0-0.41","subject_id":"5f945142d5b73925effe74e0","study_id":"607de2837874a824e2e8c6ec","session_id":"60885051e0ab825ead5003a0","correct":true},{"rt":636.9849992915988,"stimulus":"\n      <p>How sure are you?</p>\n      <p>Rate your confidence in your answer from 1 (pure guess) to 5 (very sure) by pressing the corresponding button.</p>\n     ","response":4,"image":"img/camera_alternate.jpg","task":"confidence","old_or_new":"new","trial_type":"html-button-response","trial_index":86,"time_elapsed":163423,"internal_node_id":"0.0-3.0-1.41","subject_id":"5f945142d5b73925effe74e0","study_id":"607de2837874a824e2e8c6ec","session_id":"60885051e0ab825ead5003a0"},{"rt":1237.5150006264448,"stimulus":"img/globe_alternate.jpg","response":"n","image":"img/globe_alternate.jpg","old_or_new":"new","task":"recognition","trial_type":"image-keyboard-response","trial_index":87,"time_elapsed":165162,"internal_node_id":"0.0-3.0-0.42","subject_id":"5f945142d5b73925effe74e0","study_id":"607de2837874a824e2e8c6ec","session_id":"60885051e0ab825ead5003a0","correct":true},{"rt":724.5049998164177,"stimulus":"\n      <p>How sure are you?</p>\n      <p>Rate your confidence in your answer from 1 (pure guess) to 5 (very sure) by pressing the corresponding button.</p>\n     ","response":4,"image":"img/globe_alternate.jpg","task":"confidence","old_or_new":"new","trial_type":"html-button-response","trial_index":88,"time_elapsed":165888,"internal_node_id":"0.0-3.0-1.42","subject_id":"5f945142d5b73925effe74e0","study_id":"607de2837874a824e2e8c6ec","session_id":"60885051e0ab825ead5003a0"},{"rt":1055.1699995994568,"stimulus":"img/hat.jpg","response":"y","image":"img/hat.jpg","old_or_new":"old","task":"recognition","trial_type":"image-keyboard-response","trial_index":89,"time_elapsed":167445,"internal_node_id":"0.0-3.0-0.43","subject_id":"5f945142d5b73925effe74e0","study_id":"607de2837874a824e2e8c6ec","session_id":"60885051e0ab825ead5003a0","correct":true},{"rt":686.370000243187,"stimulus":"\n      <p>How sure are you?</p>\n      <p>Rate your confidence in your answer from 1 (pure guess) to 5 (very sure) by pressing the corresponding button.</p>\n     ","response":4,"image":"img/hat.jpg","task":"confidence","old_or_new":"old","trial_type":"html-button-response","trial_index":90,"time_elapsed":168132,"internal_node_id":"0.0-3.0-1.43","subject_id":"5f945142d5b73925effe74e0","study_id":"607de2837874a824e2e8c6ec","session_id":"60885051e0ab825ead5003a0"},{"rt":1029.480000026524,"stimulus":"img/grapes.jpg","response":"y","image":"img/grapes.jpg","old_or_new":"old","task":"recognition","trial_type":"image-keyboard-response","trial_index":91,"time_elapsed":169663,"internal_node_id":"0.0-3.0-0.44","subject_id":"5f945142d5b73925effe74e0","study_id":"607de2837874a824e2e8c6ec","session_id":"60885051e0ab825ead5003a0","correct":true},{"rt":579.6800004318357,"stimulus":"\n      <p>How sure are you?</p>\n      <p>Rate your confidence in your answer from 1 (pure guess) to 5 (very sure) by pressing the corresponding button.</p>\n     ","response":4,"image":"img/grapes.jpg","task":"confidence","old_or_new":"old","trial_type":"html-button-response","trial_index":92,"time_elapsed":170243,"internal_node_id":"0.0-3.0-1.44","subject_id":"5f945142d5b73925effe74e0","study_id":"607de2837874a824e2e8c6ec","session_id":"60885051e0ab825ead5003a0"},{"rt":2224.560000002384,"stimulus":"img/basket.jpg","response":"n","image":"img/basket.jpg","old_or_new":"old","task":"recognition","trial_type":"image-keyboard-response","trial_index":93,"time_elapsed":172970,"internal_node_id":"0.0-3.0-0.45","subject_id":"5f945142d5b73925effe74e0","study_id":"607de2837874a824e2e8c6ec","session_id":"60885051e0ab825ead5003a0","correct":false},{"rt":1209.575000219047,"stimulus":"\n      <p>How sure are you?</p>\n      <p>Rate your confidence in your answer from 1 (pure guess) to 5 (very sure) by pressing the corresponding button.</p>\n     ","response":2,"image":"img/basket.jpg","task":"confidence","old_or_new":"old","trial_type":"html-button-response","trial_index":94,"time_elapsed":174185,"internal_node_id":"0.0-3.0-1.45","subject_id":"5f945142d5b73925effe74e0","study_id":"607de2837874a824e2e8c6ec","session_id":"60885051e0ab825ead5003a0"},{"rt":1449.355000630021,"stimulus":"img/dryer_alternate.jpg","response":"n","image":"img/dryer_alternate.jpg","old_or_new":"new","task":"recognition","trial_type":"image-keyboard-response","trial_index":95,"time_elapsed":176137,"internal_node_id":"0.0-3.0-0.46","subject_id":"5f945142d5b73925effe74e0","study_id":"607de2837874a824e2e8c6ec","session_id":"60885051e0ab825ead5003a0","correct":true},{"rt":4249.585000798106,"stimulus":"\n      <p>How sure are you?</p>\n      <p>Rate your confidence in your answer from 1 (pure guess) to 5 (very sure) by pressing the corresponding button.</p>\n     ","response":3,"image":"img/dryer_alternate.jpg","task":"confidence","old_or_new":"new","trial_type":"html-button-response","trial_index":96,"time_elapsed":180387,"internal_node_id":"0.0-3.0-1.46","subject_id":"5f945142d5b73925effe74e0","study_id":"607de2837874a824e2e8c6ec","session_id":"60885051e0ab825ead5003a0"},{"rt":1106.7099999636412,"stimulus":"img/dryer.jpg","response":"y","image":"img/dryer.jpg","old_or_new":"old","task":"recognition","trial_type":"image-keyboard-response","trial_index":97,"time_elapsed":181996,"internal_node_id":"0.0-3.0-0.47","subject_id":"5f945142d5b73925effe74e0","study_id":"607de2837874a824e2e8c6ec","session_id":"60885051e0ab825ead5003a0","correct":true},{"rt":857.7800001949072,"stimulus":"\n      <p>How sure are you?</p>\n      <p>Rate your confidence in your answer from 1 (pure guess) to 5 (very sure) by pressing the corresponding button.</p>\n     ","response":4,"image":"img/dryer.jpg","task":"confidence","old_or_new":"old","trial_type":"html-button-response","trial_index":98,"time_elapsed":182855,"internal_node_id":"0.0-3.0-1.47","subject_id":"5f945142d5b73925effe74e0","study_id":"607de2837874a824e2e8c6ec","session_id":"60885051e0ab825ead5003a0"}]