[{"success":true,"timeout":false,"failed_images":[],"failed_audio":[],"failed_video":[],"trial_type":"preload","trial_index":0,"time_elapsed":5015,"internal_node_id":"0.0-0.0","subject_id":"5e120c2c8dffa088ab11ce9e","study_id":"606233c0e42b980319b6a18e","session_id":"6088347409d87a5a79552b3d"},{"rt":10930.909999995492,"stimulus":"\n      <div style=\"width:800px; text-align: left;\">\n        <p>Welcome to day 2 of the experiment! Thanks for coming back.</p>\n        <p>You will be presented with a series of images. Images will appear one at a time.</p>\n        <p>Each image will remain on the screen until you press either <span style=\"font-weight: bold;\">\"y\" to indicate you have seen the \n        exact same photo the day before or \"n\" to indicate you have not seen the exact same photo the day before.</span></p>\n        <p>After you answer yes (\"y\") or no (\"n\"), you will then be prompted to rate your certainty on a scale of\n        1 (pure guess) to 5 (very sure).</p>\n      </div>\n    ","response":0,"trial_type":"html-button-response","trial_index":1,"time_elapsed":15948,"internal_node_id":"0.0-1.0","subject_id":"5e120c2c8dffa088ab11ce9e","study_id":"606233c0e42b980319b6a18e","session_id":"6088347409d87a5a79552b3d"},{"success":true,"trial_type":"fullscreen","trial_index":2,"time_elapsed":19418,"internal_node_id":"0.0-2.0","subject_id":"5e120c2c8dffa088ab11ce9e","study_id":"606233c0e42b980319b6a18e","session_id":"6088347409d87a5a79552b3d"},{"rt":2566.0449999850243,"stimulus":"img/power_cord_alternate.jpg","response":"n","image":"img/power_cord_alternate.jpg","old_or_new":"new","task":"recognition","trial_type":"image-keyboard-response","trial_index":3,"time_elapsed":21994,"internal_node_id":"0.0-3.0-0.0","subject_id":"5e120c2c8dffa088ab11ce9e","study_id":"606233c0e42b980319b6a18e","session_id":"6088347409d87a5a79552b3d","correct":true},{"rt":3241.039999993518,"stimulus":"\n      <p>How sure are you?</p>\n      <p>Rate your confidence in your answer from 1 (pure guess) to 5 (very sure) by pressing the corresponding button.</p>\n     ","response":2,"image":"img/power_cord_alternate.jpg","task":"confidence","old_or_new":"new","trial_type":"html-button-response","trial_index":4,"time_elapsed":25237,"internal_node_id":"0.0-3.0-1.0","subject_id":"5e120c2c8dffa088ab11ce9e","study_id":"606233c0e42b980319b6a18e","session_id":"6088347409d87a5a79552b3d"},{"rt":1711.234999995213,"stimulus":"img/wheel_barrow.jpg","response":"n","image":"img/wheel_barrow.jpg","old_or_new":"old","task":"recognition","trial_type":"image-keyboard-response","trial_index":5,"time_elapsed":27453,"internal_node_id":"0.0-3.0-0.1","subject_id":"5e120c2c8dffa088ab11ce9e","study_id":"606233c0e42b980319b6a18e","session_id":"6088347409d87a5a79552b3d","correct":false},{"rt":822.2700000042096,"stimulus":"\n      <p>How sure are you?</p>\n      <p>Rate your confidence in your answer from 1 (pure guess) to 5 (very sure) by pressing the corresponding button.</p>\n     ","response":1,"image":"img/wheel_barrow.jpg","task":"confidence","old_or_new":"old","trial_type":"html-button-response","trial_index":6,"time_elapsed":28277,"internal_node_id":"0.0-3.0-1.1","subject_id":"5e120c2c8dffa088ab11ce9e","study_id":"606233c0e42b980319b6a18e","session_id":"6088347409d87a5a79552b3d"},{"rt":1304.340000031516,"stimulus":"img/plane.jpg","response":"y","image":"img/plane.jpg","old_or_new":"old","task":"recognition","trial_type":"image-keyboard-response","trial_index":7,"time_elapsed":30098,"internal_node_id":"0.0-3.0-0.2","subject_id":"5e120c2c8dffa088ab11ce9e","study_id":"606233c0e42b980319b6a18e","session_id":"6088347409d87a5a79552b3d","correct":true},{"rt":966.6999999899417,"stimulus":"\n      <p>How sure are you?</p>\n      <p>Rate your confidence in your answer from 1 (pure guess) to 5 (very sure) by pressing the corresponding button.</p>\n     ","response":2,"image":"img/plane.jpg","task":"confidence","old_or_new":"old","trial_type":"html-button-response","trial_index":8,"time_elapsed":31066,"internal_node_id":"0.0-3.0-1.2","subject_id":"5e120c2c8dffa088ab11ce9e","study_id":"606233c0e42b980319b6a18e","session_id":"6088347409d87a5a79552b3d"},{"rt":832.1949999663047,"stimulus":"img/shoe_alternate.jpg","response":"n","image":"img/shoe_alternate.jpg","old_or_new":"new","task":"recognition","trial_type":"image-keyboard-response","trial_index":9,"time_elapsed":32413,"internal_node_id":"0.0-3.0-0.3","subject_id":"5e120c2c8dffa088ab11ce9e","study_id":"606233c0e42b980319b6a18e","session_id":"6088347409d87a5a79552b3d","correct":true},{"rt":1383.6850000079721,"stimulus":"\n      <p>How sure are you?</p>\n      <p>Rate your confidence in your answer from 1 (pure guess) to 5 (very sure) by pressing the corresponding button.</p>\n     ","response":1,"image":"img/shoe_alternate.jpg","task":"confidence","old_or_new":"new","trial_type":"html-button-response","trial_index":10,"time_elapsed":33798,"internal_node_id":"0.0-3.0-1.3","subject_id":"5e120c2c8dffa088ab11ce9e","study_id":"606233c0e42b980319b6a18e","session_id":"6088347409d87a5a79552b3d"},{"rt":1722.7599999750964,"stimulus":"img/toothbrush_alternate.jpg","response":"n","image":"img/toothbrush_alternate.jpg","old_or_new":"new","task":"recognition","trial_type":"image-keyboard-response","trial_index":11,"time_elapsed":36035,"internal_node_id":"0.0-3.0-0.4","subject_id":"5e120c2c8dffa088ab11ce9e","study_id":"606233c0e42b980319b6a18e","session_id":"6088347409d87a5a79552b3d","correct":true},{"rt":1476.6950000193901,"stimulus":"\n      <p>How sure are you?</p>\n      <p>Rate your confidence in your answer from 1 (pure guess) to 5 (very sure) by pressing the corresponding button.</p>\n     ","response":1,"image":"img/toothbrush_alternate.jpg","task":"confidence","old_or_new":"new","trial_type":"html-button-response","trial_index":12,"time_elapsed":37513,"internal_node_id":"0.0-3.0-1.4","subject_id":"5e120c2c8dffa088ab11ce9e","study_id":"606233c0e42b980319b6a18e","session_id":"6088347409d87a5a79552b3d"},{"rt":2050.170000002254,"stimulus":"img/toaster_alternate.jpg","response":"n","image":"img/toaster_alternate.jpg","old_or_new":"new","task":"recognition","trial_type":"image-keyboard-response","trial_index":13,"time_elapsed":40080,"internal_node_id":"0.0-3.0-0.5","subject_id":"5e120c2c8dffa088ab11ce9e","study_id":"606233c0e42b980319b6a18e","session_id":"6088347409d87a5a79552b3d","correct":true},{"rt":1143.3499999693595,"stimulus":"\n      <p>How sure are you?</p>\n      <p>Rate your confidence in your answer from 1 (pure guess) to 5 (very sure) by pressing the corresponding button.</p>\n     ","response":2,"image":"img/toaster_alternate.jpg","task":"confidence","old_or_new":"new","trial_type":"html-button-response","trial_index":14,"time_elapsed":41225,"internal_node_id":"0.0-3.0-1.5","subject_id":"5e120c2c8dffa088ab11ce9e","study_id":"606233c0e42b980319b6a18e","session_id":"6088347409d87a5a79552b3d"},{"rt":1558.019999996759,"stimulus":"img/spoon_alternate.jpg","response":"y","image":"img/spoon_alternate.jpg","old_or_new":"new","task":"recognition","trial_type":"image-keyboard-response","trial_index":15,"time_elapsed":43294,"internal_node_id":"0.0-3.0-0.6","subject_id":"5e120c2c8dffa088ab11ce9e","study_id":"606233c0e42b980319b6a18e","session_id":"6088347409d87a5a79552b3d","correct":false},{"rt":1057.9100000322796,"stimulus":"\n      <p>How sure are you?</p>\n      <p>Rate your confidence in your answer from 1 (pure guess) to 5 (very sure) by pressing the corresponding button.</p>\n     ","response":3,"image":"img/spoon_alternate.jpg","task":"confidence","old_or_new":"new","trial_type":"html-button-response","trial_index":16,"time_elapsed":44353,"internal_node_id":"0.0-3.0-1.6","subject_id":"5e120c2c8dffa088ab11ce9e","study_id":"606233c0e42b980319b6a18e","session_id":"6088347409d87a5a79552b3d"},{"rt":767.7799999946728,"stimulus":"img/umbrella.jpg","response":"y","image":"img/umbrella.jpg","old_or_new":"old","task":"recognition","trial_type":"image-keyboard-response","trial_index":17,"time_elapsed":45630,"internal_node_id":"0.0-3.0-0.7","subject_id":"5e120c2c8dffa088ab11ce9e","study_id":"606233c0e42b980319b6a18e","session_id":"6088347409d87a5a79552b3d","correct":true},{"rt":787.7449999796227,"stimulus":"\n      <p>How sure are you?</p>\n      <p>Rate your confidence in your answer from 1 (pure guess) to 5 (very sure) by pressing the corresponding button.</p>\n     ","response":2,"image":"img/umbrella.jpg","task":"confidence","old_or_new":"old","trial_type":"html-button-response","trial_index":18,"time_elapsed":46419,"internal_node_id":"0.0-3.0-1.7","subject_id":"5e120c2c8dffa088ab11ce9e","study_id":"606233c0e42b980319b6a18e","session_id":"6088347409d87a5a79552b3d"},{"rt":759.3549999874085,"stimulus":"img/plate_alternate.jpg","response":"n","image":"img/plate_alternate.jpg","old_or_new":"new","task":"recognition","trial_type":"image-keyboard-response","trial_index":19,"time_elapsed":47690,"internal_node_id":"0.0-3.0-0.8","subject_id":"5e120c2c8dffa088ab11ce9e","study_id":"606233c0e42b980319b6a18e","session_id":"6088347409d87a5a79552b3d","correct":true},{"rt":1349.660000007134,"stimulus":"\n      <p>How sure are you?</p>\n      <p>Rate your confidence in your answer from 1 (pure guess) to 5 (very sure) by pressing the corresponding button.</p>\n     ","response":2,"image":"img/plate_alternate.jpg","task":"confidence","old_or_new":"new","trial_type":"html-button-response","trial_index":20,"time_elapsed":49041,"internal_node_id":"0.0-3.0-1.8","subject_id":"5e120c2c8dffa088ab11ce9e","study_id":"606233c0e42b980319b6a18e","session_id":"6088347409d87a5a79552b3d"},{"rt":723.1850000098348,"stimulus":"img/plate.jpg","response":"y","image":"img/plate.jpg","old_or_new":"old","task":"recognition","trial_type":"image-keyboard-response","trial_index":21,"time_elapsed":50277,"internal_node_id":"0.0-3.0-0.9","subject_id":"5e120c2c8dffa088ab11ce9e","study_id":"606233c0e42b980319b6a18e","session_id":"6088347409d87a5a79552b3d","correct":true},{"rt":727.3799999966286,"stimulus":"\n      <p>How sure are you?</p>\n      <p>Rate your confidence in your answer from 1 (pure guess) to 5 (very sure) by pressing the corresponding button.</p>\n     ","response":3,"image":"img/plate.jpg","task":"confidence","old_or_new":"old","trial_type":"html-button-response","trial_index":22,"time_elapsed":51005,"internal_node_id":"0.0-3.0-1.9","subject_id":"5e120c2c8dffa088ab11ce9e","study_id":"606233c0e42b980319b6a18e","session_id":"6088347409d87a5a79552b3d"},{"rt":732.0250000339001,"stimulus":"img/trophy_alternate.jpg","response":"y","image":"img/trophy_alternate.jpg","old_or_new":"new","task":"recognition","trial_type":"image-keyboard-response","trial_index":23,"time_elapsed":52247,"internal_node_id":"0.0-3.0-0.10","subject_id":"5e120c2c8dffa088ab11ce9e","study_id":"606233c0e42b980319b6a18e","session_id":"6088347409d87a5a79552b3d","correct":false},{"rt":475.83000001031905,"stimulus":"\n      <p>How sure are you?</p>\n      <p>Rate your confidence in your answer from 1 (pure guess) to 5 (very sure) by pressing the corresponding button.</p>\n     ","response":3,"image":"img/trophy_alternate.jpg","task":"confidence","old_or_new":"new","trial_type":"html-button-response","trial_index":24,"time_elapsed":52724,"internal_node_id":"0.0-3.0-1.10","subject_id":"5e120c2c8dffa088ab11ce9e","study_id":"606233c0e42b980319b6a18e","session_id":"6088347409d87a5a79552b3d"},{"rt":799.8249999945983,"stimulus":"img/skates.jpg","response":"y","image":"img/skates.jpg","old_or_new":"old","task":"recognition","trial_type":"image-keyboard-response","trial_index":25,"time_elapsed":54030,"internal_node_id":"0.0-3.0-0.11","subject_id":"5e120c2c8dffa088ab11ce9e","study_id":"606233c0e42b980319b6a18e","session_id":"6088347409d87a5a79552b3d","correct":true},{"rt":607.8799999668263,"stimulus":"\n      <p>How sure are you?</p>\n      <p>Rate your confidence in your answer from 1 (pure guess) to 5 (very sure) by pressing the corresponding button.</p>\n     ","response":4,"image":"img/skates.jpg","task":"confidence","old_or_new":"old","trial_type":"html-button-response","trial_index":26,"time_elapsed":54640,"internal_node_id":"0.0-3.0-1.11","subject_id":"5e120c2c8dffa088ab11ce9e","study_id":"606233c0e42b980319b6a18e","session_id":"6088347409d87a5a79552b3d"},{"rt":700.6449999753386,"stimulus":"img/pencil_sharpener.jpg","response":"y","image":"img/pencil_sharpener.jpg","old_or_new":"old","task":"recognition","trial_type":"image-keyboard-response","trial_index":27,"time_elapsed":55851,"internal_node_id":"0.0-3.0-0.12","subject_id":"5e120c2c8dffa088ab11ce9e","study_id":"606233c0e42b980319b6a18e","session_id":"6088347409d87a5a79552b3d","correct":true},{"rt":408.7250000447966,"stimulus":"\n      <p>How sure are you?</p>\n      <p>Rate your confidence in your answer from 1 (pure guess) to 5 (very sure) by pressing the corresponding button.</p>\n     ","response":4,"image":"img/pencil_sharpener.jpg","task":"confidence","old_or_new":"old","trial_type":"html-button-response","trial_index":28,"time_elapsed":56261,"internal_node_id":"0.0-3.0-1.12","subject_id":"5e120c2c8dffa088ab11ce9e","study_id":"606233c0e42b980319b6a18e","session_id":"6088347409d87a5a79552b3d"},{"rt":989.194999972824,"stimulus":"img/rolling_pin_alternate.jpg","response":"n","image":"img/rolling_pin_alternate.jpg","old_or_new":"new","task":"recognition","trial_type":"image-keyboard-response","trial_index":29,"time_elapsed":57755,"internal_node_id":"0.0-3.0-0.13","subject_id":"5e120c2c8dffa088ab11ce9e","study_id":"606233c0e42b980319b6a18e","session_id":"6088347409d87a5a79552b3d","correct":true},{"rt":892.0450000441633,"stimulus":"\n      <p>How sure are you?</p>\n      <p>Rate your confidence in your answer from 1 (pure guess) to 5 (very sure) by pressing the corresponding button.</p>\n     ","response":2,"image":"img/rolling_pin_alternate.jpg","task":"confidence","old_or_new":"new","trial_type":"html-button-response","trial_index":30,"time_elapsed":58648,"internal_node_id":"0.0-3.0-1.13","subject_id":"5e120c2c8dffa088ab11ce9e","study_id":"606233c0e42b980319b6a18e","session_id":"6088347409d87a5a79552b3d"},{"rt":559.4949999940582,"stimulus":"img/shovel_alternate.jpg","response":"y","image":"img/shovel_alternate.jpg","old_or_new":"new","task":"recognition","trial_type":"image-keyboard-response","trial_index":31,"time_elapsed":59721,"internal_node_id":"0.0-3.0-0.14","subject_id":"5e120c2c8dffa088ab11ce9e","study_id":"606233c0e42b980319b6a18e","session_id":"6088347409d87a5a79552b3d","correct":false},{"rt":1754.6950000105426,"stimulus":"\n      <p>How sure are you?</p>\n      <p>Rate your confidence in your answer from 1 (pure guess) to 5 (very sure) by pressing the corresponding button.</p>\n     ","response":2,"image":"img/shovel_alternate.jpg","task":"confidence","old_or_new":"new","trial_type":"html-button-response","trial_index":32,"time_elapsed":61477,"internal_node_id":"0.0-3.0-1.14","subject_id":"5e120c2c8dffa088ab11ce9e","study_id":"606233c0e42b980319b6a18e","session_id":"6088347409d87a5a79552b3d"},{"rt":774.169999989681,"stimulus":"img/watch_alternate.jpg","response":"n","image":"img/watch_alternate.jpg","old_or_new":"new","task":"recognition","trial_type":"image-keyboard-response","trial_index":33,"time_elapsed":62759,"internal_node_id":"0.0-3.0-0.15","subject_id":"5e120c2c8dffa088ab11ce9e","study_id":"606233c0e42b980319b6a18e","session_id":"6088347409d87a5a79552b3d","correct":true},{"rt":1147.2199999843724,"stimulus":"\n      <p>How sure are you?</p>\n      <p>Rate your confidence in your answer from 1 (pure guess) to 5 (very sure) by pressing the corresponding button.</p>\n     ","response":1,"image":"img/watch_alternate.jpg","task":"confidence","old_or_new":"new","trial_type":"html-button-response","trial_index":34,"time_elapsed":63907,"internal_node_id":"0.0-3.0-1.15","subject_id":"5e120c2c8dffa088ab11ce9e","study_id":"606233c0e42b980319b6a18e","session_id":"6088347409d87a5a79552b3d"},{"rt":597.0000000088476,"stimulus":"img/toothbrush.jpg","response":"y","image":"img/toothbrush.jpg","old_or_new":"old","task":"recognition","trial_type":"image-keyboard-response","trial_index":35,"time_elapsed":65011,"internal_node_id":"0.0-3.0-0.16","subject_id":"5e120c2c8dffa088ab11ce9e","study_id":"606233c0e42b980319b6a18e","session_id":"6088347409d87a5a79552b3d","correct":true},{"rt":567.5200000405312,"stimulus":"\n      <p>How sure are you?</p>\n      <p>Rate your confidence in your answer from 1 (pure guess) to 5 (very sure) by pressing the corresponding button.</p>\n     ","response":3,"image":"img/toothbrush.jpg","task":"confidence","old_or_new":"old","trial_type":"html-button-response","trial_index":36,"time_elapsed":65580,"internal_node_id":"0.0-3.0-1.16","subject_id":"5e120c2c8dffa088ab11ce9e","study_id":"606233c0e42b980319b6a18e","session_id":"6088347409d87a5a79552b3d"},{"rt":615.5349999899045,"stimulus":"img/spoon.jpg","response":"y","image":"img/spoon.jpg","old_or_new":"old","task":"recognition","trial_type":"image-keyboard-response","trial_index":37,"time_elapsed":66713,"internal_node_id":"0.0-3.0-0.17","subject_id":"5e120c2c8dffa088ab11ce9e","study_id":"606233c0e42b980319b6a18e","session_id":"6088347409d87a5a79552b3d","correct":true},{"rt":771.660000027623,"stimulus":"\n      <p>How sure are you?</p>\n      <p>Rate your confidence in your answer from 1 (pure guess) to 5 (very sure) by pressing the corresponding button.</p>\n     ","response":4,"image":"img/spoon.jpg","task":"confidence","old_or_new":"old","trial_type":"html-button-response","trial_index":38,"time_elapsed":67486,"internal_node_id":"0.0-3.0-1.17","subject_id":"5e120c2c8dffa088ab11ce9e","study_id":"606233c0e42b980319b6a18e","session_id":"6088347409d87a5a79552b3d"},{"rt":659.0050000231713,"stimulus":"img/parfait.jpg","response":"y","image":"img/parfait.jpg","old_or_new":"old","task":"recognition","trial_type":"image-keyboard-response","trial_index":39,"time_elapsed":68657,"internal_node_id":"0.0-3.0-0.18","subject_id":"5e120c2c8dffa088ab11ce9e","study_id":"606233c0e42b980319b6a18e","session_id":"6088347409d87a5a79552b3d","correct":true},{"rt":414.7550000343472,"stimulus":"\n      <p>How sure are you?</p>\n      <p>Rate your confidence in your answer from 1 (pure guess) to 5 (very sure) by pressing the corresponding button.</p>\n     ","response":4,"image":"img/parfait.jpg","task":"confidence","old_or_new":"old","trial_type":"html-button-response","trial_index":40,"time_elapsed":69073,"internal_node_id":"0.0-3.0-1.18","subject_id":"5e120c2c8dffa088ab11ce9e","study_id":"606233c0e42b980319b6a18e","session_id":"6088347409d87a5a79552b3d"},{"rt":952.9000000329688,"stimulus":"img/rolling_pin.jpg","response":"n","image":"img/rolling_pin.jpg","old_or_new":"old","task":"recognition","trial_type":"image-keyboard-response","trial_index":41,"time_elapsed":70534,"internal_node_id":"0.0-3.0-0.19","subject_id":"5e120c2c8dffa088ab11ce9e","study_id":"606233c0e42b980319b6a18e","session_id":"6088347409d87a5a79552b3d","correct":false},{"rt":960.1750000147149,"stimulus":"\n      <p>How sure are you?</p>\n      <p>Rate your confidence in your answer from 1 (pure guess) to 5 (very sure) by pressing the corresponding button.</p>\n     ","response":2,"image":"img/rolling_pin.jpg","task":"confidence","old_or_new":"old","trial_type":"html-button-response","trial_index":42,"time_elapsed":71495,"internal_node_id":"0.0-3.0-1.19","subject_id":"5e120c2c8dffa088ab11ce9e","study_id":"606233c0e42b980319b6a18e","session_id":"6088347409d87a5a79552b3d"},{"rt":560.2649999782443,"stimulus":"img/shovel.jpg","response":"y","image":"img/shovel.jpg","old_or_new":"old","task":"recognition","trial_type":"image-keyboard-response","trial_index":43,"time_elapsed":72558,"internal_node_id":"0.0-3.0-0.20","subject_id":"5e120c2c8dffa088ab11ce9e","study_id":"606233c0e42b980319b6a18e","session_id":"6088347409d87a5a79552b3d","correct":true},{"rt":539.4150000065565,"stimulus":"\n      <p>How sure are you?</p>\n      <p>Rate your confidence in your answer from 1 (pure guess) to 5 (very sure) by pressing the corresponding button.</p>\n     ","response":4,"image":"img/shovel.jpg","task":"confidence","old_or_new":"old","trial_type":"html-button-response","trial_index":44,"time_elapsed":73099,"internal_node_id":"0.0-3.0-1.20","subject_id":"5e120c2c8dffa088ab11ce9e","study_id":"606233c0e42b980319b6a18e","session_id":"6088347409d87a5a79552b3d"},{"rt":741.7999999597669,"stimulus":"img/yarn.jpg","response":"n","image":"img/yarn.jpg","old_or_new":"old","task":"recognition","trial_type":"image-keyboard-response","trial_index":45,"time_elapsed":74354,"internal_node_id":"0.0-3.0-0.21","subject_id":"5e120c2c8dffa088ab11ce9e","study_id":"606233c0e42b980319b6a18e","session_id":"6088347409d87a5a79552b3d","correct":false},{"rt":1002.6550000184216,"stimulus":"\n      <p>How sure are you?</p>\n      <p>Rate your confidence in your answer from 1 (pure guess) to 5 (very sure) by pressing the corresponding button.</p>\n     ","response":1,"image":"img/yarn.jpg","task":"confidence","old_or_new":"old","trial_type":"html-button-response","trial_index":46,"time_elapsed":75358,"internal_node_id":"0.0-3.0-1.21","subject_id":"5e120c2c8dffa088ab11ce9e","study_id":"606233c0e42b980319b6a18e","session_id":"6088347409d87a5a79552b3d"},{"rt":935.7549999840558,"stimulus":"img/skates_alternate.jpg","response":"n","image":"img/skates_alternate.jpg","old_or_new":"new","task":"recognition","trial_type":"image-keyboard-response","trial_index":47,"time_elapsed":76800,"internal_node_id":"0.0-3.0-0.22","subject_id":"5e120c2c8dffa088ab11ce9e","study_id":"606233c0e42b980319b6a18e","session_id":"6088347409d87a5a79552b3d","correct":true},{"rt":673.6849999870174,"stimulus":"\n      <p>How sure are you?</p>\n      <p>Rate your confidence in your answer from 1 (pure guess) to 5 (very sure) by pressing the corresponding button.</p>\n     ","response":2,"image":"img/skates_alternate.jpg","task":"confidence","old_or_new":"new","trial_type":"html-button-response","trial_index":48,"time_elapsed":77475,"internal_node_id":"0.0-3.0-1.22","subject_id":"5e120c2c8dffa088ab11ce9e","study_id":"606233c0e42b980319b6a18e","session_id":"6088347409d87a5a79552b3d"},{"rt":878.8000000058673,"stimulus":"img/parfait_alternate.jpg","response":"n","image":"img/parfait_alternate.jpg","old_or_new":"new","task":"recognition","trial_type":"image-keyboard-response","trial_index":49,"time_elapsed":78863,"internal_node_id":"0.0-3.0-0.23","subject_id":"5e120c2c8dffa088ab11ce9e","study_id":"606233c0e42b980319b6a18e","session_id":"6088347409d87a5a79552b3d","correct":true},{"rt":445.84499998018146,"stimulus":"\n      <p>How sure are you?</p>\n      <p>Rate your confidence in your answer from 1 (pure guess) to 5 (very sure) by pressing the corresponding button.</p>\n     ","response":3,"image":"img/parfait_alternate.jpg","task":"confidence","old_or_new":"new","trial_type":"html-button-response","trial_index":50,"time_elapsed":79310,"internal_node_id":"0.0-3.0-1.23","subject_id":"5e120c2c8dffa088ab11ce9e","study_id":"606233c0e42b980319b6a18e","session_id":"6088347409d87a5a79552b3d"},{"rt":895.7250000094064,"stimulus":"img/pencil_sharpener_alternate.jpg","response":"n","image":"img/pencil_sharpener_alternate.jpg","old_or_new":"new","task":"recognition","trial_type":"image-keyboard-response","trial_index":51,"time_elapsed":80712,"internal_node_id":"0.0-3.0-0.24","subject_id":"5e120c2c8dffa088ab11ce9e","study_id":"606233c0e42b980319b6a18e","session_id":"6088347409d87a5a79552b3d","correct":true},{"rt":679.8999999882653,"stimulus":"\n      <p>How sure are you?</p>\n      <p>Rate your confidence in your answer from 1 (pure guess) to 5 (very sure) by pressing the corresponding button.</p>\n     ","response":3,"image":"img/pencil_sharpener_alternate.jpg","task":"confidence","old_or_new":"new","trial_type":"html-button-response","trial_index":52,"time_elapsed":81393,"internal_node_id":"0.0-3.0-1.24","subject_id":"5e120c2c8dffa088ab11ce9e","study_id":"606233c0e42b980319b6a18e","session_id":"6088347409d87a5a79552b3d"},{"rt":852.9900000430644,"stimulus":"img/knife_alternate.jpg","response":"y","image":"img/knife_alternate.jpg","old_or_new":"new","task":"recognition","trial_type":"image-keyboard-response","trial_index":53,"time_elapsed":82752,"internal_node_id":"0.0-3.0-0.25","subject_id":"5e120c2c8dffa088ab11ce9e","study_id":"606233c0e42b980319b6a18e","session_id":"6088347409d87a5a79552b3d","correct":false},{"rt":706.6500000073574,"stimulus":"\n      <p>How sure are you?</p>\n      <p>Rate your confidence in your answer from 1 (pure guess) to 5 (very sure) by pressing the corresponding button.</p>\n     ","response":4,"image":"img/knife_alternate.jpg","task":"confidence","old_or_new":"new","trial_type":"html-button-response","trial_index":54,"time_elapsed":83460,"internal_node_id":"0.0-3.0-1.25","subject_id":"5e120c2c8dffa088ab11ce9e","study_id":"606233c0e42b980319b6a18e","session_id":"6088347409d87a5a79552b3d"},{"rt":1122.8750000009313,"stimulus":"img/watch.jpg","response":"y","image":"img/watch.jpg","old_or_new":"old","task":"recognition","trial_type":"image-keyboard-response","trial_index":55,"time_elapsed":85089,"internal_node_id":"0.0-3.0-0.26","subject_id":"5e120c2c8dffa088ab11ce9e","study_id":"606233c0e42b980319b6a18e","session_id":"6088347409d87a5a79552b3d","correct":true},{"rt":391.669999982696,"stimulus":"\n      <p>How sure are you?</p>\n      <p>Rate your confidence in your answer from 1 (pure guess) to 5 (very sure) by pressing the corresponding button.</p>\n     ","response":4,"image":"img/watch.jpg","task":"confidence","old_or_new":"old","trial_type":"html-button-response","trial_index":56,"time_elapsed":85482,"internal_node_id":"0.0-3.0-1.26","subject_id":"5e120c2c8dffa088ab11ce9e","study_id":"606233c0e42b980319b6a18e","session_id":"6088347409d87a5a79552b3d"},{"rt":702.1200000308454,"stimulus":"img/tv_alternate.jpg","response":"n","image":"img/tv_alternate.jpg","old_or_new":"new","task":"recognition","trial_type":"image-keyboard-response","trial_index":57,"time_elapsed":86699,"internal_node_id":"0.0-3.0-0.27","subject_id":"5e120c2c8dffa088ab11ce9e","study_id":"606233c0e42b980319b6a18e","session_id":"6088347409d87a5a79552b3d","correct":true},{"rt":1121.7349999933504,"stimulus":"\n      <p>How sure are you?</p>\n      <p>Rate your confidence in your answer from 1 (pure guess) to 5 (very sure) by pressing the corresponding button.</p>\n     ","response":1,"image":"img/tv_alternate.jpg","task":"confidence","old_or_new":"new","trial_type":"html-button-response","trial_index":58,"time_elapsed":87822,"internal_node_id":"0.0-3.0-1.27","subject_id":"5e120c2c8dffa088ab11ce9e","study_id":"606233c0e42b980319b6a18e","session_id":"6088347409d87a5a79552b3d"},{"rt":604.7299999627285,"stimulus":"img/scissors.jpg","response":"n","image":"img/scissors.jpg","old_or_new":"old","task":"recognition","trial_type":"image-keyboard-response","trial_index":59,"time_elapsed":88933,"internal_node_id":"0.0-3.0-0.28","subject_id":"5e120c2c8dffa088ab11ce9e","study_id":"606233c0e42b980319b6a18e","session_id":"6088347409d87a5a79552b3d","correct":false},{"rt":524.474999983795,"stimulus":"\n      <p>How sure are you?</p>\n      <p>Rate your confidence in your answer from 1 (pure guess) to 5 (very sure) by pressing the corresponding button.</p>\n     ","response":3,"image":"img/scissors.jpg","task":"confidence","old_or_new":"old","trial_type":"html-button-response","trial_index":60,"time_elapsed":89458,"internal_node_id":"0.0-3.0-1.28","subject_id":"5e120c2c8dffa088ab11ce9e","study_id":"606233c0e42b980319b6a18e","session_id":"6088347409d87a5a79552b3d"},{"rt":1580.309999990277,"stimulus":"img/scissors_alternate.jpg","response":"y","image":"img/scissors_alternate.jpg","old_or_new":"new","task":"recognition","trial_type":"image-keyboard-response","trial_index":61,"time_elapsed":91549,"internal_node_id":"0.0-3.0-0.29","subject_id":"5e120c2c8dffa088ab11ce9e","study_id":"606233c0e42b980319b6a18e","session_id":"6088347409d87a5a79552b3d","correct":false},{"rt":703.7600000039674,"stimulus":"\n      <p>How sure are you?</p>\n      <p>Rate your confidence in your answer from 1 (pure guess) to 5 (very sure) by pressing the corresponding button.</p>\n     ","response":1,"image":"img/scissors_alternate.jpg","task":"confidence","old_or_new":"new","trial_type":"html-button-response","trial_index":62,"time_elapsed":92254,"internal_node_id":"0.0-3.0-1.29","subject_id":"5e120c2c8dffa088ab11ce9e","study_id":"606233c0e42b980319b6a18e","session_id":"6088347409d87a5a79552b3d"},{"rt":739.9750000331551,"stimulus":"img/tv.jpg","response":"y","image":"img/tv.jpg","old_or_new":"old","task":"recognition","trial_type":"image-keyboard-response","trial_index":63,"time_elapsed":93501,"internal_node_id":"0.0-3.0-0.30","subject_id":"5e120c2c8dffa088ab11ce9e","study_id":"606233c0e42b980319b6a18e","session_id":"6088347409d87a5a79552b3d","correct":true},{"rt":422.44499997468665,"stimulus":"\n      <p>How sure are you?</p>\n      <p>Rate your confidence in your answer from 1 (pure guess) to 5 (very sure) by pressing the corresponding button.</p>\n     ","response":3,"image":"img/tv.jpg","task":"confidence","old_or_new":"old","trial_type":"html-button-response","trial_index":64,"time_elapsed":93925,"internal_node_id":"0.0-3.0-1.30","subject_id":"5e120c2c8dffa088ab11ce9e","study_id":"606233c0e42b980319b6a18e","session_id":"6088347409d87a5a79552b3d"},{"rt":1148.5699999611825,"stimulus":"img/trophy.jpg","response":"n","image":"img/trophy.jpg","old_or_new":"old","task":"recognition","trial_type":"image-keyboard-response","trial_index":65,"time_elapsed":95577,"internal_node_id":"0.0-3.0-0.31","subject_id":"5e120c2c8dffa088ab11ce9e","study_id":"606233c0e42b980319b6a18e","session_id":"6088347409d87a5a79552b3d","correct":false},{"rt":902.2300000069663,"stimulus":"\n      <p>How sure are you?</p>\n      <p>Rate your confidence in your answer from 1 (pure guess) to 5 (very sure) by pressing the corresponding button.</p>\n     ","response":1,"image":"img/trophy.jpg","task":"confidence","old_or_new":"old","trial_type":"html-button-response","trial_index":66,"time_elapsed":96480,"internal_node_id":"0.0-3.0-1.31","subject_id":"5e120c2c8dffa088ab11ce9e","study_id":"606233c0e42b980319b6a18e","session_id":"6088347409d87a5a79552b3d"},{"rt":1374.744999979157,"stimulus":"img/knife.jpg","response":"y","image":"img/knife.jpg","old_or_new":"old","task":"recognition","trial_type":"image-keyboard-response","trial_index":67,"time_elapsed":98357,"internal_node_id":"0.0-3.0-0.32","subject_id":"5e120c2c8dffa088ab11ce9e","study_id":"606233c0e42b980319b6a18e","session_id":"6088347409d87a5a79552b3d","correct":true},{"rt":756.6700000315905,"stimulus":"\n      <p>How sure are you?</p>\n      <p>Rate your confidence in your answer from 1 (pure guess) to 5 (very sure) by pressing the corresponding button.</p>\n     ","response":4,"image":"img/knife.jpg","task":"confidence","old_or_new":"old","trial_type":"html-button-response","trial_index":68,"time_elapsed":99115,"internal_node_id":"0.0-3.0-1.32","subject_id":"5e120c2c8dffa088ab11ce9e","study_id":"606233c0e42b980319b6a18e","session_id":"6088347409d87a5a79552b3d"},{"rt":1054.660000023432,"stimulus":"img/umbrella_alternate.jpg","response":"y","image":"img/umbrella_alternate.jpg","old_or_new":"new","task":"recognition","trial_type":"image-keyboard-response","trial_index":69,"time_elapsed":100685,"internal_node_id":"0.0-3.0-0.33","subject_id":"5e120c2c8dffa088ab11ce9e","study_id":"606233c0e42b980319b6a18e","session_id":"6088347409d87a5a79552b3d","correct":false},{"rt":630.559999961406,"stimulus":"\n      <p>How sure are you?</p>\n      <p>Rate your confidence in your answer from 1 (pure guess) to 5 (very sure) by pressing the corresponding button.</p>\n     ","response":2,"image":"img/umbrella_alternate.jpg","task":"confidence","old_or_new":"new","trial_type":"html-button-response","trial_index":70,"time_elapsed":101317,"internal_node_id":"0.0-3.0-1.33","subject_id":"5e120c2c8dffa088ab11ce9e","study_id":"606233c0e42b980319b6a18e","session_id":"6088347409d87a5a79552b3d"},{"rt":986.9099999777973,"stimulus":"img/plane_alternate.jpg","response":"n","image":"img/plane_alternate.jpg","old_or_new":"new","task":"recognition","trial_type":"image-keyboard-response","trial_index":71,"time_elapsed":102809,"internal_node_id":"0.0-3.0-0.34","subject_id":"5e120c2c8dffa088ab11ce9e","study_id":"606233c0e42b980319b6a18e","session_id":"6088347409d87a5a79552b3d","correct":true},{"rt":1001.5750000020489,"stimulus":"\n      <p>How sure are you?</p>\n      <p>Rate your confidence in your answer from 1 (pure guess) to 5 (very sure) by pressing the corresponding button.</p>\n     ","response":1,"image":"img/plane_alternate.jpg","task":"confidence","old_or_new":"new","trial_type":"html-button-response","trial_index":72,"time_elapsed":103811,"internal_node_id":"0.0-3.0-1.34","subject_id":"5e120c2c8dffa088ab11ce9e","study_id":"606233c0e42b980319b6a18e","session_id":"6088347409d87a5a79552b3d"},{"rt":649.5749999885447,"stimulus":"img/seashell.jpg","response":"y","image":"img/seashell.jpg","old_or_new":"old","task":"recognition","trial_type":"image-keyboard-response","trial_index":73,"time_elapsed":104965,"internal_node_id":"0.0-3.0-0.35","subject_id":"5e120c2c8dffa088ab11ce9e","study_id":"606233c0e42b980319b6a18e","session_id":"6088347409d87a5a79552b3d","correct":true},{"rt":864.0500000328757,"stimulus":"\n      <p>How sure are you?</p>\n      <p>Rate your confidence in your answer from 1 (pure guess) to 5 (very sure) by pressing the corresponding button.</p>\n     ","response":2,"image":"img/seashell.jpg","task":"confidence","old_or_new":"old","trial_type":"html-button-response","trial_index":74,"time_elapsed":105831,"internal_node_id":"0.0-3.0-1.35","subject_id":"5e120c2c8dffa088ab11ce9e","study_id":"606233c0e42b980319b6a18e","session_id":"6088347409d87a5a79552b3d"},{"rt":1873.410000000149,"stimulus":"img/pizza_alternate.jpg","response":"n","image":"img/pizza_alternate.jpg","old_or_new":"new","task":"recognition","trial_type":"image-keyboard-response","trial_index":75,"time_elapsed":108216,"internal_node_id":"0.0-3.0-0.36","subject_id":"5e120c2c8dffa088ab11ce9e","study_id":"606233c0e42b980319b6a18e","session_id":"6088347409d87a5a79552b3d","correct":true},{"rt":491.7200000490993,"stimulus":"\n      <p>How sure are you?</p>\n      <p>Rate your confidence in your answer from 1 (pure guess) to 5 (very sure) by pressing the corresponding button.</p>\n     ","response":3,"image":"img/pizza_alternate.jpg","task":"confidence","old_or_new":"new","trial_type":"html-button-response","trial_index":76,"time_elapsed":108710,"internal_node_id":"0.0-3.0-1.36","subject_id":"5e120c2c8dffa088ab11ce9e","study_id":"606233c0e42b980319b6a18e","session_id":"6088347409d87a5a79552b3d"},{"rt":485.40000000502914,"stimulus":"img/pizza.jpg","response":"y","image":"img/pizza.jpg","old_or_new":"old","task":"recognition","trial_type":"image-keyboard-response","trial_index":77,"time_elapsed":109703,"internal_node_id":"0.0-3.0-0.37","subject_id":"5e120c2c8dffa088ab11ce9e","study_id":"606233c0e42b980319b6a18e","session_id":"6088347409d87a5a79552b3d","correct":true},{"rt":445.3100000391714,"stimulus":"\n      <p>How sure are you?</p>\n      <p>Rate your confidence in your answer from 1 (pure guess) to 5 (very sure) by pressing the corresponding button.</p>\n     ","response":4,"image":"img/pizza.jpg","task":"confidence","old_or_new":"old","trial_type":"html-button-response","trial_index":78,"time_elapsed":110149,"internal_node_id":"0.0-3.0-1.37","subject_id":"5e120c2c8dffa088ab11ce9e","study_id":"606233c0e42b980319b6a18e","session_id":"6088347409d87a5a79552b3d"},{"rt":875.0049999798648,"stimulus":"img/power_cord.jpg","response":"y","image":"img/power_cord.jpg","old_or_new":"old","task":"recognition","trial_type":"image-keyboard-response","trial_index":79,"time_elapsed":111540,"internal_node_id":"0.0-3.0-0.38","subject_id":"5e120c2c8dffa088ab11ce9e","study_id":"606233c0e42b980319b6a18e","session_id":"6088347409d87a5a79552b3d","correct":true},{"rt":393.89999996637926,"stimulus":"\n      <p>How sure are you?</p>\n      <p>Rate your confidence in your answer from 1 (pure guess) to 5 (very sure) by pressing the corresponding button.</p>\n     ","response":4,"image":"img/power_cord.jpg","task":"confidence","old_or_new":"old","trial_type":"html-button-response","trial_index":80,"time_elapsed":111936,"internal_node_id":"0.0-3.0-1.38","subject_id":"5e120c2c8dffa088ab11ce9e","study_id":"606233c0e42b980319b6a18e","session_id":"6088347409d87a5a79552b3d"},{"rt":1089.5850000088103,"stimulus":"img/sink.jpg","response":"n","image":"img/sink.jpg","old_or_new":"old","task":"recognition","trial_type":"image-keyboard-response","trial_index":81,"time_elapsed":113546,"internal_node_id":"0.0-3.0-0.39","subject_id":"5e120c2c8dffa088ab11ce9e","study_id":"606233c0e42b980319b6a18e","session_id":"6088347409d87a5a79552b3d","correct":false},{"rt":540.1399999973364,"stimulus":"\n      <p>How sure are you?</p>\n      <p>Rate your confidence in your answer from 1 (pure guess) to 5 (very sure) by pressing the corresponding button.</p>\n     ","response":2,"image":"img/sink.jpg","task":"confidence","old_or_new":"old","trial_type":"html-button-response","trial_index":82,"time_elapsed":114088,"internal_node_id":"0.0-3.0-1.39","subject_id":"5e120c2c8dffa088ab11ce9e","study_id":"606233c0e42b980319b6a18e","session_id":"6088347409d87a5a79552b3d"},{"rt":867.6600000471808,"stimulus":"img/shoe.jpg","response":"n","image":"img/shoe.jpg","old_or_new":"old","task":"recognition","trial_type":"image-keyboard-response","trial_index":83,"time_elapsed":115470,"internal_node_id":"0.0-3.0-0.40","subject_id":"5e120c2c8dffa088ab11ce9e","study_id":"606233c0e42b980319b6a18e","session_id":"6088347409d87a5a79552b3d","correct":false},{"rt":632.6550000230782,"stimulus":"\n      <p>How sure are you?</p>\n      <p>Rate your confidence in your answer from 1 (pure guess) to 5 (very sure) by pressing the corresponding button.</p>\n     ","response":1,"image":"img/shoe.jpg","task":"confidence","old_or_new":"old","trial_type":"html-button-response","trial_index":84,"time_elapsed":116104,"internal_node_id":"0.0-3.0-1.40","subject_id":"5e120c2c8dffa088ab11ce9e","study_id":"606233c0e42b980319b6a18e","session_id":"6088347409d87a5a79552b3d"},{"rt":886.4900000044145,"stimulus":"img/sink_alternate.jpg","response":"n","image":"img/sink_alternate.jpg","old_or_new":"new","task":"recognition","trial_type":"image-keyboard-response","trial_index":85,"time_elapsed":117498,"internal_node_id":"0.0-3.0-0.41","subject_id":"5e120c2c8dffa088ab11ce9e","study_id":"606233c0e42b980319b6a18e","session_id":"6088347409d87a5a79552b3d","correct":true},{"rt":492.934999987483,"stimulus":"\n      <p>How sure are you?</p>\n      <p>Rate your confidence in your answer from 1 (pure guess) to 5 (very sure) by pressing the corresponding button.</p>\n     ","response":2,"image":"img/sink_alternate.jpg","task":"confidence","old_or_new":"new","trial_type":"html-button-response","trial_index":86,"time_elapsed":117992,"internal_node_id":"0.0-3.0-1.41","subject_id":"5e120c2c8dffa088ab11ce9e","study_id":"606233c0e42b980319b6a18e","session_id":"6088347409d87a5a79552b3d"},{"rt":680.579999985639,"stimulus":"img/shirt_alternate.jpg","response":"n","image":"img/shirt_alternate.jpg","old_or_new":"new","task":"recognition","trial_type":"image-keyboard-response","trial_index":87,"time_elapsed":119179,"internal_node_id":"0.0-3.0-0.42","subject_id":"5e120c2c8dffa088ab11ce9e","study_id":"606233c0e42b980319b6a18e","session_id":"6088347409d87a5a79552b3d","correct":true},{"rt":831.5850000362843,"stimulus":"\n      <p>How sure are you?</p>\n      <p>Rate your confidence in your answer from 1 (pure guess) to 5 (very sure) by pressing the corresponding button.</p>\n     ","response":2,"image":"img/shirt_alternate.jpg","task":"confidence","old_or_new":"new","trial_type":"html-button-response","trial_index":88,"time_elapsed":120011,"internal_node_id":"0.0-3.0-1.42","subject_id":"5e120c2c8dffa088ab11ce9e","study_id":"606233c0e42b980319b6a18e","session_id":"6088347409d87a5a79552b3d"},{"rt":811.5150000085123,"stimulus":"img/toaster.jpg","response":"y","image":"img/toaster.jpg","old_or_new":"old","task":"recognition","trial_type":"image-keyboard-response","trial_index":89,"time_elapsed":121327,"internal_node_id":"0.0-3.0-0.43","subject_id":"5e120c2c8dffa088ab11ce9e","study_id":"606233c0e42b980319b6a18e","session_id":"6088347409d87a5a79552b3d","correct":true},{"rt":460.3050000150688,"stimulus":"\n      <p>How sure are you?</p>\n      <p>Rate your confidence in your answer from 1 (pure guess) to 5 (very sure) by pressing the corresponding button.</p>\n     ","response":3,"image":"img/toaster.jpg","task":"confidence","old_or_new":"old","trial_type":"html-button-response","trial_index":90,"time_elapsed":121788,"internal_node_id":"0.0-3.0-1.43","subject_id":"5e120c2c8dffa088ab11ce9e","study_id":"606233c0e42b980319b6a18e","session_id":"6088347409d87a5a79552b3d"},{"rt":729.5399999711663,"stimulus":"img/yarn_alternate.jpg","response":"n","image":"img/yarn_alternate.jpg","old_or_new":"new","task":"recognition","trial_type":"image-keyboard-response","trial_index":91,"time_elapsed":123029,"internal_node_id":"0.0-3.0-0.44","subject_id":"5e120c2c8dffa088ab11ce9e","study_id":"606233c0e42b980319b6a18e","session_id":"6088347409d87a5a79552b3d","correct":true},{"rt":844.6249999688007,"stimulus":"\n      <p>How sure are you?</p>\n      <p>Rate your confidence in your answer from 1 (pure guess) to 5 (very sure) by pressing the corresponding button.</p>\n     ","response":1,"image":"img/yarn_alternate.jpg","task":"confidence","old_or_new":"new","trial_type":"html-button-response","trial_index":92,"time_elapsed":123875,"internal_node_id":"0.0-3.0-1.44","subject_id":"5e120c2c8dffa088ab11ce9e","study_id":"606233c0e42b980319b6a18e","session_id":"6088347409d87a5a79552b3d"},{"rt":909.3250000150874,"stimulus":"img/seashell_alternate.jpg","response":"n","image":"img/seashell_alternate.jpg","old_or_new":"new","task":"recognition","trial_type":"image-keyboard-response","trial_index":93,"time_elapsed":125294,"internal_node_id":"0.0-3.0-0.45","subject_id":"5e120c2c8dffa088ab11ce9e","study_id":"606233c0e42b980319b6a18e","session_id":"6088347409d87a5a79552b3d","correct":true},{"rt":473.14499999629334,"stimulus":"\n      <p>How sure are you?</p>\n      <p>Rate your confidence in your answer from 1 (pure guess) to 5 (very sure) by pressing the corresponding button.</p>\n     ","response":1,"image":"img/seashell_alternate.jpg","task":"confidence","old_or_new":"new","trial_type":"html-button-response","trial_index":94,"time_elapsed":125769,"internal_node_id":"0.0-3.0-1.45","subject_id":"5e120c2c8dffa088ab11ce9e","study_id":"606233c0e42b980319b6a18e","session_id":"6088347409d87a5a79552b3d"},{"rt":791.9200000469573,"stimulus":"img/shirt.jpg","response":"y","image":"img/shirt.jpg","old_or_new":"old","task":"recognition","trial_type":"image-keyboard-response","trial_index":95,"time_elapsed":127073,"internal_node_id":"0.0-3.0-0.46","subject_id":"5e120c2c8dffa088ab11ce9e","study_id":"606233c0e42b980319b6a18e","session_id":"6088347409d87a5a79552b3d","correct":true},{"rt":594.3850000039674,"stimulus":"\n      <p>How sure are you?</p>\n      <p>Rate your confidence in your answer from 1 (pure guess) to 5 (very sure) by pressing the corresponding button.</p>\n     ","response":4,"image":"img/shirt.jpg","task":"confidence","old_or_new":"old","trial_type":"html-button-response","trial_index":96,"time_elapsed":127669,"internal_node_id":"0.0-3.0-1.46","subject_id":"5e120c2c8dffa088ab11ce9e","study_id":"606233c0e42b980319b6a18e","session_id":"6088347409d87a5a79552b3d"},{"rt":1375.6399999838322,"stimulus":"img/wheel_barrow_alternate.jpg","response":"y","image":"img/wheel_barrow_alternate.jpg","old_or_new":"new","task":"recognition","trial_type":"image-keyboard-response","trial_index":97,"time_elapsed":129549,"internal_node_id":"0.0-3.0-0.47","subject_id":"5e120c2c8dffa088ab11ce9e","study_id":"606233c0e42b980319b6a18e","session_id":"6088347409d87a5a79552b3d","correct":false},{"rt":541.8700000154786,"stimulus":"\n      <p>How sure are you?</p>\n      <p>Rate your confidence in your answer from 1 (pure guess) to 5 (very sure) by pressing the corresponding button.</p>\n     ","response":2,"image":"img/wheel_barrow_alternate.jpg","task":"confidence","old_or_new":"new","trial_type":"html-button-response","trial_index":98,"time_elapsed":130092,"internal_node_id":"0.0-3.0-1.47","subject_id":"5e120c2c8dffa088ab11ce9e","study_id":"606233c0e42b980319b6a18e","session_id":"6088347409d87a5a79552b3d"}]