[{"success":true,"timeout":false,"failed_images":[],"failed_audio":[],"failed_video":[],"trial_type":"preload","trial_index":0,"time_elapsed":7918,"internal_node_id":"0.0-0.0","subject_id":"5e83c34c4a17000f09e83308","study_id":"607de2837874a824e2e8c6ec","session_id":"608851c1e137b988ac80c24e"},{"rt":19150.070000003325,"stimulus":"\n      <div style=\"width:800px; text-align: left;\">\n        <p>Welcome to day 2 of the experiment! Thanks for coming back.</p>\n        <p>You will be presented with a series of images. Images will appear one at a time.</p>\n        <p>Each image will remain on the screen until you press either <span style=\"font-weight: bold;\">\"y\" to indicate you have seen the \n        exact same photo the day before or \"n\" to indicate you have not seen the exact same photo the day before.</span></p>\n        <p>After you answer yes (\"y\") or no (\"n\"), you will then be prompted to rate your certainty on a scale of\n        1 (pure guess) to 5 (very sure).</p>\n      </div>\n    ","response":0,"trial_type":"html-button-response","trial_index":1,"time_elapsed":27070,"internal_node_id":"0.0-1.0","subject_id":"5e83c34c4a17000f09e83308","study_id":"607de2837874a824e2e8c6ec","session_id":"608851c1e137b988ac80c24e"},{"success":true,"trial_type":"fullscreen","trial_index":2,"time_elapsed":31218,"internal_node_id":"0.0-2.0","subject_id":"5e83c34c4a17000f09e83308","study_id":"607de2837874a824e2e8c6ec","session_id":"608851c1e137b988ac80c24e"},{"rt":5137.6299999974435,"stimulus":"img/ladder_alternate.jpg","response":"n","image":"img/ladder_alternate.jpg","old_or_new":"new","task":"recognition","trial_type":"image-keyboard-response","trial_index":3,"time_elapsed":36374,"internal_node_id":"0.0-3.0-0.0","subject_id":"5e83c34c4a17000f09e83308","study_id":"607de2837874a824e2e8c6ec","session_id":"608851c1e137b988ac80c24e","correct":true},{"rt":4629.814999992959,"stimulus":"\n      <p>How sure are you?</p>\n      <p>Rate your confidence in your answer from 1 (pure guess) to 5 (very sure) by pressing the corresponding button.</p>\n     ","response":4,"image":"img/ladder_alternate.jpg","task":"confidence","old_or_new":"new","trial_type":"html-button-response","trial_index":4,"time_elapsed":41007,"internal_node_id":"0.0-3.0-1.0","subject_id":"5e83c34c4a17000f09e83308","study_id":"607de2837874a824e2e8c6ec","session_id":"608851c1e137b988ac80c24e"},{"rt":3118.975000004866,"stimulus":"img/apple_alternate.jpg","response":"n","image":"img/apple_alternate.jpg","old_or_new":"new","task":"recognition","trial_type":"image-keyboard-response","trial_index":5,"time_elapsed":44636,"internal_node_id":"0.0-3.0-0.1","subject_id":"5e83c34c4a17000f09e83308","study_id":"607de2837874a824e2e8c6ec","session_id":"608851c1e137b988ac80c24e","correct":true},{"rt":2312.069999999949,"stimulus":"\n      <p>How sure are you?</p>\n      <p>Rate your confidence in your answer from 1 (pure guess) to 5 (very sure) by pressing the corresponding button.</p>\n     ","response":3,"image":"img/apple_alternate.jpg","task":"confidence","old_or_new":"new","trial_type":"html-button-response","trial_index":6,"time_elapsed":46950,"internal_node_id":"0.0-3.0-1.1","subject_id":"5e83c34c4a17000f09e83308","study_id":"607de2837874a824e2e8c6ec","session_id":"608851c1e137b988ac80c24e"},{"rt":3169.8249999899417,"stimulus":"img/leaf.jpg","response":"y","image":"img/leaf.jpg","old_or_new":"old","task":"recognition","trial_type":"image-keyboard-response","trial_index":7,"time_elapsed":50638,"internal_node_id":"0.0-3.0-0.2","subject_id":"5e83c34c4a17000f09e83308","study_id":"607de2837874a824e2e8c6ec","session_id":"608851c1e137b988ac80c24e","correct":true},{"rt":1577.8950000094483,"stimulus":"\n      <p>How sure are you?</p>\n      <p>Rate your confidence in your answer from 1 (pure guess) to 5 (very sure) by pressing the corresponding button.</p>\n     ","response":4,"image":"img/leaf.jpg","task":"confidence","old_or_new":"old","trial_type":"html-button-response","trial_index":8,"time_elapsed":52218,"internal_node_id":"0.0-3.0-1.2","subject_id":"5e83c34c4a17000f09e83308","study_id":"607de2837874a824e2e8c6ec","session_id":"608851c1e137b988ac80c24e"},{"rt":2506.5949999989243,"stimulus":"img/hairbrush_alternate.jpg","response":"n","image":"img/hairbrush_alternate.jpg","old_or_new":"new","task":"recognition","trial_type":"image-keyboard-response","trial_index":9,"time_elapsed":55248,"internal_node_id":"0.0-3.0-0.3","subject_id":"5e83c34c4a17000f09e83308","study_id":"607de2837874a824e2e8c6ec","session_id":"608851c1e137b988ac80c24e","correct":true},{"rt":1367.354999994859,"stimulus":"\n      <p>How sure are you?</p>\n      <p>Rate your confidence in your answer from 1 (pure guess) to 5 (very sure) by pressing the corresponding button.</p>\n     ","response":2,"image":"img/hairbrush_alternate.jpg","task":"confidence","old_or_new":"new","trial_type":"html-button-response","trial_index":10,"time_elapsed":56617,"internal_node_id":"0.0-3.0-1.3","subject_id":"5e83c34c4a17000f09e83308","study_id":"607de2837874a824e2e8c6ec","session_id":"608851c1e137b988ac80c24e"},{"rt":2207.200000004377,"stimulus":"img/key.jpg","response":"y","image":"img/key.jpg","old_or_new":"old","task":"recognition","trial_type":"image-keyboard-response","trial_index":11,"time_elapsed":59341,"internal_node_id":"0.0-3.0-0.4","subject_id":"5e83c34c4a17000f09e83308","study_id":"607de2837874a824e2e8c6ec","session_id":"608851c1e137b988ac80c24e","correct":true},{"rt":1666.3600000028964,"stimulus":"\n      <p>How sure are you?</p>\n      <p>Rate your confidence in your answer from 1 (pure guess) to 5 (very sure) by pressing the corresponding button.</p>\n     ","response":4,"image":"img/key.jpg","task":"confidence","old_or_new":"old","trial_type":"html-button-response","trial_index":12,"time_elapsed":61009,"internal_node_id":"0.0-3.0-1.4","subject_id":"5e83c34c4a17000f09e83308","study_id":"607de2837874a824e2e8c6ec","session_id":"608851c1e137b988ac80c24e"},{"rt":1639.9249999958556,"stimulus":"img/hourglass_alternate.jpg","response":"n","image":"img/hourglass_alternate.jpg","old_or_new":"new","task":"recognition","trial_type":"image-keyboard-response","trial_index":13,"time_elapsed":63159,"internal_node_id":"0.0-3.0-0.5","subject_id":"5e83c34c4a17000f09e83308","study_id":"607de2837874a824e2e8c6ec","session_id":"608851c1e137b988ac80c24e","correct":true},{"rt":1449.3799999909243,"stimulus":"\n      <p>How sure are you?</p>\n      <p>Rate your confidence in your answer from 1 (pure guess) to 5 (very sure) by pressing the corresponding button.</p>\n     ","response":3,"image":"img/hourglass_alternate.jpg","task":"confidence","old_or_new":"new","trial_type":"html-button-response","trial_index":14,"time_elapsed":64611,"internal_node_id":"0.0-3.0-1.5","subject_id":"5e83c34c4a17000f09e83308","study_id":"607de2837874a824e2e8c6ec","session_id":"608851c1e137b988ac80c24e"},{"rt":1886.850000009872,"stimulus":"img/coin_alternate.jpg","response":"n","image":"img/coin_alternate.jpg","old_or_new":"new","task":"recognition","trial_type":"image-keyboard-response","trial_index":15,"time_elapsed":67000,"internal_node_id":"0.0-3.0-0.6","subject_id":"5e83c34c4a17000f09e83308","study_id":"607de2837874a824e2e8c6ec","session_id":"608851c1e137b988ac80c24e","correct":true},{"rt":1479.2500000039581,"stimulus":"\n      <p>How sure are you?</p>\n      <p>Rate your confidence in your answer from 1 (pure guess) to 5 (very sure) by pressing the corresponding button.</p>\n     ","response":4,"image":"img/coin_alternate.jpg","task":"confidence","old_or_new":"new","trial_type":"html-button-response","trial_index":16,"time_elapsed":68481,"internal_node_id":"0.0-3.0-1.6","subject_id":"5e83c34c4a17000f09e83308","study_id":"607de2837874a824e2e8c6ec","session_id":"608851c1e137b988ac80c24e"},{"rt":926.2149999995017,"stimulus":"img/folder.jpg","response":"y","image":"img/folder.jpg","old_or_new":"old","task":"recognition","trial_type":"image-keyboard-response","trial_index":17,"time_elapsed":69925,"internal_node_id":"0.0-3.0-0.7","subject_id":"5e83c34c4a17000f09e83308","study_id":"607de2837874a824e2e8c6ec","session_id":"608851c1e137b988ac80c24e","correct":true},{"rt":1757.1349999925587,"stimulus":"\n      <p>How sure are you?</p>\n      <p>Rate your confidence in your answer from 1 (pure guess) to 5 (very sure) by pressing the corresponding button.</p>\n     ","response":4,"image":"img/folder.jpg","task":"confidence","old_or_new":"old","trial_type":"html-button-response","trial_index":18,"time_elapsed":71684,"internal_node_id":"0.0-3.0-1.7","subject_id":"5e83c34c4a17000f09e83308","study_id":"607de2837874a824e2e8c6ec","session_id":"608851c1e137b988ac80c24e"},{"rt":1723.1750000064494,"stimulus":"img/ladder.jpg","response":"n","image":"img/ladder.jpg","old_or_new":"old","task":"recognition","trial_type":"image-keyboard-response","trial_index":19,"time_elapsed":73917,"internal_node_id":"0.0-3.0-0.8","subject_id":"5e83c34c4a17000f09e83308","study_id":"607de2837874a824e2e8c6ec","session_id":"608851c1e137b988ac80c24e","correct":false},{"rt":1657.825000002049,"stimulus":"\n      <p>How sure are you?</p>\n      <p>Rate your confidence in your answer from 1 (pure guess) to 5 (very sure) by pressing the corresponding button.</p>\n     ","response":2,"image":"img/ladder.jpg","task":"confidence","old_or_new":"old","trial_type":"html-button-response","trial_index":20,"time_elapsed":75576,"internal_node_id":"0.0-3.0-1.8","subject_id":"5e83c34c4a17000f09e83308","study_id":"607de2837874a824e2e8c6ec","session_id":"608851c1e137b988ac80c24e"},{"rt":2075.29500000237,"stimulus":"img/drum.jpg","response":"y","image":"img/drum.jpg","old_or_new":"old","task":"recognition","trial_type":"image-keyboard-response","trial_index":21,"time_elapsed":78154,"internal_node_id":"0.0-3.0-0.9","subject_id":"5e83c34c4a17000f09e83308","study_id":"607de2837874a824e2e8c6ec","session_id":"608851c1e137b988ac80c24e","correct":true},{"rt":2211.045000003651,"stimulus":"\n      <p>How sure are you?</p>\n      <p>Rate your confidence in your answer from 1 (pure guess) to 5 (very sure) by pressing the corresponding button.</p>\n     ","response":3,"image":"img/drum.jpg","task":"confidence","old_or_new":"old","trial_type":"html-button-response","trial_index":22,"time_elapsed":80366,"internal_node_id":"0.0-3.0-1.9","subject_id":"5e83c34c4a17000f09e83308","study_id":"607de2837874a824e2e8c6ec","session_id":"608851c1e137b988ac80c24e"},{"rt":810.2050000015879,"stimulus":"img/basket.jpg","response":"y","image":"img/basket.jpg","old_or_new":"old","task":"recognition","trial_type":"image-keyboard-response","trial_index":23,"time_elapsed":81695,"internal_node_id":"0.0-3.0-0.10","subject_id":"5e83c34c4a17000f09e83308","study_id":"607de2837874a824e2e8c6ec","session_id":"608851c1e137b988ac80c24e","correct":true},{"rt":1372.960000007879,"stimulus":"\n      <p>How sure are you?</p>\n      <p>Rate your confidence in your answer from 1 (pure guess) to 5 (very sure) by pressing the corresponding button.</p>\n     ","response":4,"image":"img/basket.jpg","task":"confidence","old_or_new":"old","trial_type":"html-button-response","trial_index":24,"time_elapsed":83070,"internal_node_id":"0.0-3.0-1.10","subject_id":"5e83c34c4a17000f09e83308","study_id":"607de2837874a824e2e8c6ec","session_id":"608851c1e137b988ac80c24e"},{"rt":1498.8400000002002,"stimulus":"img/globe_alternate.jpg","response":"n","image":"img/globe_alternate.jpg","old_or_new":"new","task":"recognition","trial_type":"image-keyboard-response","trial_index":25,"time_elapsed":85072,"internal_node_id":"0.0-3.0-0.11","subject_id":"5e83c34c4a17000f09e83308","study_id":"607de2837874a824e2e8c6ec","session_id":"608851c1e137b988ac80c24e","correct":true},{"rt":1475.1499999983935,"stimulus":"\n      <p>How sure are you?</p>\n      <p>Rate your confidence in your answer from 1 (pure guess) to 5 (very sure) by pressing the corresponding button.</p>\n     ","response":3,"image":"img/globe_alternate.jpg","task":"confidence","old_or_new":"new","trial_type":"html-button-response","trial_index":26,"time_elapsed":86548,"internal_node_id":"0.0-3.0-1.11","subject_id":"5e83c34c4a17000f09e83308","study_id":"607de2837874a824e2e8c6ec","session_id":"608851c1e137b988ac80c24e"},{"rt":1080.7700000004843,"stimulus":"img/apple.jpg","response":"y","image":"img/apple.jpg","old_or_new":"old","task":"recognition","trial_type":"image-keyboard-response","trial_index":27,"time_elapsed":88154,"internal_node_id":"0.0-3.0-0.12","subject_id":"5e83c34c4a17000f09e83308","study_id":"607de2837874a824e2e8c6ec","session_id":"608851c1e137b988ac80c24e","correct":true},{"rt":2335.4049999907147,"stimulus":"\n      <p>How sure are you?</p>\n      <p>Rate your confidence in your answer from 1 (pure guess) to 5 (very sure) by pressing the corresponding button.</p>\n     ","response":1,"image":"img/apple.jpg","task":"confidence","old_or_new":"old","trial_type":"html-button-response","trial_index":28,"time_elapsed":90492,"internal_node_id":"0.0-3.0-1.12","subject_id":"5e83c34c4a17000f09e83308","study_id":"607de2837874a824e2e8c6ec","session_id":"608851c1e137b988ac80c24e"},{"rt":810.6750000006286,"stimulus":"img/dryer.jpg","response":"y","image":"img/dryer.jpg","old_or_new":"old","task":"recognition","trial_type":"image-keyboard-response","trial_index":29,"time_elapsed":91818,"internal_node_id":"0.0-3.0-0.13","subject_id":"5e83c34c4a17000f09e83308","study_id":"607de2837874a824e2e8c6ec","session_id":"608851c1e137b988ac80c24e","correct":true},{"rt":1644.6599999908358,"stimulus":"\n      <p>How sure are you?</p>\n      <p>Rate your confidence in your answer from 1 (pure guess) to 5 (very sure) by pressing the corresponding button.</p>\n     ","response":4,"image":"img/dryer.jpg","task":"confidence","old_or_new":"old","trial_type":"html-button-response","trial_index":30,"time_elapsed":93464,"internal_node_id":"0.0-3.0-1.13","subject_id":"5e83c34c4a17000f09e83308","study_id":"607de2837874a824e2e8c6ec","session_id":"608851c1e137b988ac80c24e"},{"rt":859.7549999976764,"stimulus":"img/lightbulb.jpg","response":"n","image":"img/lightbulb.jpg","old_or_new":"old","task":"recognition","trial_type":"image-keyboard-response","trial_index":31,"time_elapsed":94832,"internal_node_id":"0.0-3.0-0.14","subject_id":"5e83c34c4a17000f09e83308","study_id":"607de2837874a824e2e8c6ec","session_id":"608851c1e137b988ac80c24e","correct":false},{"rt":1506.7100000014761,"stimulus":"\n      <p>How sure are you?</p>\n      <p>Rate your confidence in your answer from 1 (pure guess) to 5 (very sure) by pressing the corresponding button.</p>\n     ","response":2,"image":"img/lightbulb.jpg","task":"confidence","old_or_new":"old","trial_type":"html-button-response","trial_index":32,"time_elapsed":96341,"internal_node_id":"0.0-3.0-1.14","subject_id":"5e83c34c4a17000f09e83308","study_id":"607de2837874a824e2e8c6ec","session_id":"608851c1e137b988ac80c24e"},{"rt":706.689999991795,"stimulus":"img/hat.jpg","response":"y","image":"img/hat.jpg","old_or_new":"old","task":"recognition","trial_type":"image-keyboard-response","trial_index":33,"time_elapsed":97559,"internal_node_id":"0.0-3.0-0.15","subject_id":"5e83c34c4a17000f09e83308","study_id":"607de2837874a824e2e8c6ec","session_id":"608851c1e137b988ac80c24e","correct":true},{"rt":1469.005000006291,"stimulus":"\n      <p>How sure are you?</p>\n      <p>Rate your confidence in your answer from 1 (pure guess) to 5 (very sure) by pressing the corresponding button.</p>\n     ","response":4,"image":"img/hat.jpg","task":"confidence","old_or_new":"old","trial_type":"html-button-response","trial_index":34,"time_elapsed":99030,"internal_node_id":"0.0-3.0-1.15","subject_id":"5e83c34c4a17000f09e83308","study_id":"607de2837874a824e2e8c6ec","session_id":"608851c1e137b988ac80c24e"},{"rt":722.08999999566,"stimulus":"img/grapes_alternate.jpg","response":"y","image":"img/grapes_alternate.jpg","old_or_new":"new","task":"recognition","trial_type":"image-keyboard-response","trial_index":35,"time_elapsed":100266,"internal_node_id":"0.0-3.0-0.16","subject_id":"5e83c34c4a17000f09e83308","study_id":"607de2837874a824e2e8c6ec","session_id":"608851c1e137b988ac80c24e","correct":false},{"rt":1929.3400000024121,"stimulus":"\n      <p>How sure are you?</p>\n      <p>Rate your confidence in your answer from 1 (pure guess) to 5 (very sure) by pressing the corresponding button.</p>\n     ","response":2,"image":"img/grapes_alternate.jpg","task":"confidence","old_or_new":"new","trial_type":"html-button-response","trial_index":36,"time_elapsed":102197,"internal_node_id":"0.0-3.0-1.16","subject_id":"5e83c34c4a17000f09e83308","study_id":"607de2837874a824e2e8c6ec","session_id":"608851c1e137b988ac80c24e"},{"rt":1868.0699999968056,"stimulus":"img/coin.jpg","response":"y","image":"img/coin.jpg","old_or_new":"old","task":"recognition","trial_type":"image-keyboard-response","trial_index":37,"time_elapsed":104575,"internal_node_id":"0.0-3.0-0.17","subject_id":"5e83c34c4a17000f09e83308","study_id":"607de2837874a824e2e8c6ec","session_id":"608851c1e137b988ac80c24e","correct":true},{"rt":1491.0049999889452,"stimulus":"\n      <p>How sure are you?</p>\n      <p>Rate your confidence in your answer from 1 (pure guess) to 5 (very sure) by pressing the corresponding button.</p>\n     ","response":2,"image":"img/coin.jpg","task":"confidence","old_or_new":"old","trial_type":"html-button-response","trial_index":38,"time_elapsed":106068,"internal_node_id":"0.0-3.0-1.17","subject_id":"5e83c34c4a17000f09e83308","study_id":"607de2837874a824e2e8c6ec","session_id":"608851c1e137b988ac80c24e"},{"rt":5884.934999994584,"stimulus":"img/fan.jpg","response":"n","image":"img/fan.jpg","old_or_new":"old","task":"recognition","trial_type":"image-keyboard-response","trial_index":39,"time_elapsed":112464,"internal_node_id":"0.0-3.0-0.18","subject_id":"5e83c34c4a17000f09e83308","study_id":"607de2837874a824e2e8c6ec","session_id":"608851c1e137b988ac80c24e","correct":false},{"rt":1565.39000000339,"stimulus":"\n      <p>How sure are you?</p>\n      <p>Rate your confidence in your answer from 1 (pure guess) to 5 (very sure) by pressing the corresponding button.</p>\n     ","response":2,"image":"img/fan.jpg","task":"confidence","old_or_new":"old","trial_type":"html-button-response","trial_index":40,"time_elapsed":114032,"internal_node_id":"0.0-3.0-1.18","subject_id":"5e83c34c4a17000f09e83308","study_id":"607de2837874a824e2e8c6ec","session_id":"608851c1e137b988ac80c24e"},{"rt":1344.6550000080606,"stimulus":"img/glasses_alternate.jpg","response":"y","image":"img/glasses_alternate.jpg","old_or_new":"new","task":"recognition","trial_type":"image-keyboard-response","trial_index":41,"time_elapsed":115893,"internal_node_id":"0.0-3.0-0.19","subject_id":"5e83c34c4a17000f09e83308","study_id":"607de2837874a824e2e8c6ec","session_id":"608851c1e137b988ac80c24e","correct":false},{"rt":1376.4749999972992,"stimulus":"\n      <p>How sure are you?</p>\n      <p>Rate your confidence in your answer from 1 (pure guess) to 5 (very sure) by pressing the corresponding button.</p>\n     ","response":1,"image":"img/glasses_alternate.jpg","task":"confidence","old_or_new":"new","trial_type":"html-button-response","trial_index":42,"time_elapsed":117271,"internal_node_id":"0.0-3.0-1.19","subject_id":"5e83c34c4a17000f09e83308","study_id":"607de2837874a824e2e8c6ec","session_id":"608851c1e137b988ac80c24e"},{"rt":993.4199999988778,"stimulus":"img/basket_alternate.jpg","response":"n","image":"img/basket_alternate.jpg","old_or_new":"new","task":"recognition","trial_type":"image-keyboard-response","trial_index":43,"time_elapsed":118776,"internal_node_id":"0.0-3.0-0.20","subject_id":"5e83c34c4a17000f09e83308","study_id":"607de2837874a824e2e8c6ec","session_id":"608851c1e137b988ac80c24e","correct":true},{"rt":1370.4699999943841,"stimulus":"\n      <p>How sure are you?</p>\n      <p>Rate your confidence in your answer from 1 (pure guess) to 5 (very sure) by pressing the corresponding button.</p>\n     ","response":3,"image":"img/basket_alternate.jpg","task":"confidence","old_or_new":"new","trial_type":"html-button-response","trial_index":44,"time_elapsed":120149,"internal_node_id":"0.0-3.0-1.20","subject_id":"5e83c34c4a17000f09e83308","study_id":"607de2837874a824e2e8c6ec","session_id":"608851c1e137b988ac80c24e"},{"rt":1285.6599999940954,"stimulus":"img/globe.jpg","response":"y","image":"img/globe.jpg","old_or_new":"old","task":"recognition","trial_type":"image-keyboard-response","trial_index":45,"time_elapsed":121951,"internal_node_id":"0.0-3.0-0.21","subject_id":"5e83c34c4a17000f09e83308","study_id":"607de2837874a824e2e8c6ec","session_id":"608851c1e137b988ac80c24e","correct":true},{"rt":1275.195000009262,"stimulus":"\n      <p>How sure are you?</p>\n      <p>Rate your confidence in your answer from 1 (pure guess) to 5 (very sure) by pressing the corresponding button.</p>\n     ","response":2,"image":"img/globe.jpg","task":"confidence","old_or_new":"old","trial_type":"html-button-response","trial_index":46,"time_elapsed":123228,"internal_node_id":"0.0-3.0-1.21","subject_id":"5e83c34c4a17000f09e83308","study_id":"607de2837874a824e2e8c6ec","session_id":"608851c1e137b988ac80c24e"},{"rt":741.2199999962468,"stimulus":"img/hat_alternate.jpg","response":"n","image":"img/hat_alternate.jpg","old_or_new":"new","task":"recognition","trial_type":"image-keyboard-response","trial_index":47,"time_elapsed":124474,"internal_node_id":"0.0-3.0-0.22","subject_id":"5e83c34c4a17000f09e83308","study_id":"607de2837874a824e2e8c6ec","session_id":"608851c1e137b988ac80c24e","correct":true},{"rt":1347.4699999933364,"stimulus":"\n      <p>How sure are you?</p>\n      <p>Rate your confidence in your answer from 1 (pure guess) to 5 (very sure) by pressing the corresponding button.</p>\n     ","response":4,"image":"img/hat_alternate.jpg","task":"confidence","old_or_new":"new","trial_type":"html-button-response","trial_index":48,"time_elapsed":125823,"internal_node_id":"0.0-3.0-1.22","subject_id":"5e83c34c4a17000f09e83308","study_id":"607de2837874a824e2e8c6ec","session_id":"608851c1e137b988ac80c24e"},{"rt":1418.1550000066636,"stimulus":"img/backpack_alternate.jpg","response":"n","image":"img/backpack_alternate.jpg","old_or_new":"new","task":"recognition","trial_type":"image-keyboard-response","trial_index":49,"time_elapsed":127758,"internal_node_id":"0.0-3.0-0.23","subject_id":"5e83c34c4a17000f09e83308","study_id":"607de2837874a824e2e8c6ec","session_id":"608851c1e137b988ac80c24e","correct":true},{"rt":1628.2349999964936,"stimulus":"\n      <p>How sure are you?</p>\n      <p>Rate your confidence in your answer from 1 (pure guess) to 5 (very sure) by pressing the corresponding button.</p>\n     ","response":3,"image":"img/backpack_alternate.jpg","task":"confidence","old_or_new":"new","trial_type":"html-button-response","trial_index":50,"time_elapsed":129403,"internal_node_id":"0.0-3.0-1.23","subject_id":"5e83c34c4a17000f09e83308","study_id":"607de2837874a824e2e8c6ec","session_id":"608851c1e137b988ac80c24e"},{"rt":1668.0250000063097,"stimulus":"img/chair.jpg","response":"y","image":"img/chair.jpg","old_or_new":"old","task":"recognition","trial_type":"image-keyboard-response","trial_index":51,"time_elapsed":131574,"internal_node_id":"0.0-3.0-0.24","subject_id":"5e83c34c4a17000f09e83308","study_id":"607de2837874a824e2e8c6ec","session_id":"608851c1e137b988ac80c24e","correct":true},{"rt":1661.565000002156,"stimulus":"\n      <p>How sure are you?</p>\n      <p>Rate your confidence in your answer from 1 (pure guess) to 5 (very sure) by pressing the corresponding button.</p>\n     ","response":2,"image":"img/chair.jpg","task":"confidence","old_or_new":"old","trial_type":"html-button-response","trial_index":52,"time_elapsed":133237,"internal_node_id":"0.0-3.0-1.24","subject_id":"5e83c34c4a17000f09e83308","study_id":"607de2837874a824e2e8c6ec","session_id":"608851c1e137b988ac80c24e"},{"rt":733.8500000041677,"stimulus":"img/folder_alternate.jpg","response":"n","image":"img/folder_alternate.jpg","old_or_new":"new","task":"recognition","trial_type":"image-keyboard-response","trial_index":53,"time_elapsed":134476,"internal_node_id":"0.0-3.0-0.25","subject_id":"5e83c34c4a17000f09e83308","study_id":"607de2837874a824e2e8c6ec","session_id":"608851c1e137b988ac80c24e","correct":true},{"rt":1434.370000002673,"stimulus":"\n      <p>How sure are you?</p>\n      <p>Rate your confidence in your answer from 1 (pure guess) to 5 (very sure) by pressing the corresponding button.</p>\n     ","response":4,"image":"img/folder_alternate.jpg","task":"confidence","old_or_new":"new","trial_type":"html-button-response","trial_index":54,"time_elapsed":135912,"internal_node_id":"0.0-3.0-1.25","subject_id":"5e83c34c4a17000f09e83308","study_id":"607de2837874a824e2e8c6ec","session_id":"608851c1e137b988ac80c24e"},{"rt":1185.8550000033574,"stimulus":"img/bowl_alternate.jpg","response":"n","image":"img/bowl_alternate.jpg","old_or_new":"new","task":"recognition","trial_type":"image-keyboard-response","trial_index":55,"time_elapsed":137612,"internal_node_id":"0.0-3.0-0.26","subject_id":"5e83c34c4a17000f09e83308","study_id":"607de2837874a824e2e8c6ec","session_id":"608851c1e137b988ac80c24e","correct":true},{"rt":1456.9349999947008,"stimulus":"\n      <p>How sure are you?</p>\n      <p>Rate your confidence in your answer from 1 (pure guess) to 5 (very sure) by pressing the corresponding button.</p>\n     ","response":4,"image":"img/bowl_alternate.jpg","task":"confidence","old_or_new":"new","trial_type":"html-button-response","trial_index":56,"time_elapsed":139071,"internal_node_id":"0.0-3.0-1.26","subject_id":"5e83c34c4a17000f09e83308","study_id":"607de2837874a824e2e8c6ec","session_id":"608851c1e137b988ac80c24e"},{"rt":602.3750000022119,"stimulus":"img/backpack.jpg","response":"y","image":"img/backpack.jpg","old_or_new":"old","task":"recognition","trial_type":"image-keyboard-response","trial_index":57,"time_elapsed":140176,"internal_node_id":"0.0-3.0-0.27","subject_id":"5e83c34c4a17000f09e83308","study_id":"607de2837874a824e2e8c6ec","session_id":"608851c1e137b988ac80c24e","correct":true},{"rt":1277.9800000134856,"stimulus":"\n      <p>How sure are you?</p>\n      <p>Rate your confidence in your answer from 1 (pure guess) to 5 (very sure) by pressing the corresponding button.</p>\n     ","response":4,"image":"img/backpack.jpg","task":"confidence","old_or_new":"old","trial_type":"html-button-response","trial_index":58,"time_elapsed":141456,"internal_node_id":"0.0-3.0-1.27","subject_id":"5e83c34c4a17000f09e83308","study_id":"607de2837874a824e2e8c6ec","session_id":"608851c1e137b988ac80c24e"},{"rt":1251.044999997248,"stimulus":"img/bowl.jpg","response":"y","image":"img/bowl.jpg","old_or_new":"old","task":"recognition","trial_type":"image-keyboard-response","trial_index":59,"time_elapsed":143223,"internal_node_id":"0.0-3.0-0.28","subject_id":"5e83c34c4a17000f09e83308","study_id":"607de2837874a824e2e8c6ec","session_id":"608851c1e137b988ac80c24e","correct":true},{"rt":1797.3999999958323,"stimulus":"\n      <p>How sure are you?</p>\n      <p>Rate your confidence in your answer from 1 (pure guess) to 5 (very sure) by pressing the corresponding button.</p>\n     ","response":2,"image":"img/bowl.jpg","task":"confidence","old_or_new":"old","trial_type":"html-button-response","trial_index":60,"time_elapsed":145022,"internal_node_id":"0.0-3.0-1.28","subject_id":"5e83c34c4a17000f09e83308","study_id":"607de2837874a824e2e8c6ec","session_id":"608851c1e137b988ac80c24e"},{"rt":1080.035000006319,"stimulus":"img/hairbrush.jpg","response":"n","image":"img/hairbrush.jpg","old_or_new":"old","task":"recognition","trial_type":"image-keyboard-response","trial_index":61,"time_elapsed":146622,"internal_node_id":"0.0-3.0-0.29","subject_id":"5e83c34c4a17000f09e83308","study_id":"607de2837874a824e2e8c6ec","session_id":"608851c1e137b988ac80c24e","correct":false},{"rt":1456.3599999964936,"stimulus":"\n      <p>How sure are you?</p>\n      <p>Rate your confidence in your answer from 1 (pure guess) to 5 (very sure) by pressing the corresponding button.</p>\n     ","response":2,"image":"img/hairbrush.jpg","task":"confidence","old_or_new":"old","trial_type":"html-button-response","trial_index":62,"time_elapsed":148080,"internal_node_id":"0.0-3.0-1.29","subject_id":"5e83c34c4a17000f09e83308","study_id":"607de2837874a824e2e8c6ec","session_id":"608851c1e137b988ac80c24e"},{"rt":912.1199999935925,"stimulus":"img/calculator_alternate.jpg","response":"y","image":"img/calculator_alternate.jpg","old_or_new":"new","task":"recognition","trial_type":"image-keyboard-response","trial_index":63,"time_elapsed":149497,"internal_node_id":"0.0-3.0-0.30","subject_id":"5e83c34c4a17000f09e83308","study_id":"607de2837874a824e2e8c6ec","session_id":"608851c1e137b988ac80c24e","correct":false},{"rt":1748.649999994086,"stimulus":"\n      <p>How sure are you?</p>\n      <p>Rate your confidence in your answer from 1 (pure guess) to 5 (very sure) by pressing the corresponding button.</p>\n     ","response":1,"image":"img/calculator_alternate.jpg","task":"confidence","old_or_new":"new","trial_type":"html-button-response","trial_index":64,"time_elapsed":151247,"internal_node_id":"0.0-3.0-1.30","subject_id":"5e83c34c4a17000f09e83308","study_id":"607de2837874a824e2e8c6ec","session_id":"608851c1e137b988ac80c24e"},{"rt":2844.744999994873,"stimulus":"img/helmet_alternate.jpg","response":"n","image":"img/helmet_alternate.jpg","old_or_new":"new","task":"recognition","trial_type":"image-keyboard-response","trial_index":65,"time_elapsed":154596,"internal_node_id":"0.0-3.0-0.31","subject_id":"5e83c34c4a17000f09e83308","study_id":"607de2837874a824e2e8c6ec","session_id":"608851c1e137b988ac80c24e","correct":true},{"rt":2033.5199999972247,"stimulus":"\n      <p>How sure are you?</p>\n      <p>Rate your confidence in your answer from 1 (pure guess) to 5 (very sure) by pressing the corresponding button.</p>\n     ","response":3,"image":"img/helmet_alternate.jpg","task":"confidence","old_or_new":"new","trial_type":"html-button-response","trial_index":66,"time_elapsed":156632,"internal_node_id":"0.0-3.0-1.31","subject_id":"5e83c34c4a17000f09e83308","study_id":"607de2837874a824e2e8c6ec","session_id":"608851c1e137b988ac80c24e"},{"rt":836.089999997057,"stimulus":"img/leaf_alternate.jpg","response":"n","image":"img/leaf_alternate.jpg","old_or_new":"new","task":"recognition","trial_type":"image-keyboard-response","trial_index":67,"time_elapsed":157987,"internal_node_id":"0.0-3.0-0.32","subject_id":"5e83c34c4a17000f09e83308","study_id":"607de2837874a824e2e8c6ec","session_id":"608851c1e137b988ac80c24e","correct":true},{"rt":1143.5199999978067,"stimulus":"\n      <p>How sure are you?</p>\n      <p>Rate your confidence in your answer from 1 (pure guess) to 5 (very sure) by pressing the corresponding button.</p>\n     ","response":3,"image":"img/leaf_alternate.jpg","task":"confidence","old_or_new":"new","trial_type":"html-button-response","trial_index":68,"time_elapsed":159132,"internal_node_id":"0.0-3.0-1.32","subject_id":"5e83c34c4a17000f09e83308","study_id":"607de2837874a824e2e8c6ec","session_id":"608851c1e137b988ac80c24e"},{"rt":1054.0099999925587,"stimulus":"img/dryer_alternate.jpg","response":"n","image":"img/dryer_alternate.jpg","old_or_new":"new","task":"recognition","trial_type":"image-keyboard-response","trial_index":69,"time_elapsed":160711,"internal_node_id":"0.0-3.0-0.33","subject_id":"5e83c34c4a17000f09e83308","study_id":"607de2837874a824e2e8c6ec","session_id":"608851c1e137b988ac80c24e","correct":true},{"rt":1644.0399999992223,"stimulus":"\n      <p>How sure are you?</p>\n      <p>Rate your confidence in your answer from 1 (pure guess) to 5 (very sure) by pressing the corresponding button.</p>\n     ","response":3,"image":"img/dryer_alternate.jpg","task":"confidence","old_or_new":"new","trial_type":"html-button-response","trial_index":70,"time_elapsed":162357,"internal_node_id":"0.0-3.0-1.33","subject_id":"5e83c34c4a17000f09e83308","study_id":"607de2837874a824e2e8c6ec","session_id":"608851c1e137b988ac80c24e"},{"rt":904.3149999924935,"stimulus":"img/grapes.jpg","response":"y","image":"img/grapes.jpg","old_or_new":"old","task":"recognition","trial_type":"image-keyboard-response","trial_index":71,"time_elapsed":163768,"internal_node_id":"0.0-3.0-0.34","subject_id":"5e83c34c4a17000f09e83308","study_id":"607de2837874a824e2e8c6ec","session_id":"608851c1e137b988ac80c24e","correct":true},{"rt":1551.8600000068545,"stimulus":"\n      <p>How sure are you?</p>\n      <p>Rate your confidence in your answer from 1 (pure guess) to 5 (very sure) by pressing the corresponding button.</p>\n     ","response":3,"image":"img/grapes.jpg","task":"confidence","old_or_new":"old","trial_type":"html-button-response","trial_index":72,"time_elapsed":165322,"internal_node_id":"0.0-3.0-1.34","subject_id":"5e83c34c4a17000f09e83308","study_id":"607de2837874a824e2e8c6ec","session_id":"608851c1e137b988ac80c24e"},{"rt":1287.995000006049,"stimulus":"img/helmet.jpg","response":"n","image":"img/helmet.jpg","old_or_new":"old","task":"recognition","trial_type":"image-keyboard-response","trial_index":73,"time_elapsed":167121,"internal_node_id":"0.0-3.0-0.35","subject_id":"5e83c34c4a17000f09e83308","study_id":"607de2837874a824e2e8c6ec","session_id":"608851c1e137b988ac80c24e","correct":false},{"rt":1336.490000001504,"stimulus":"\n      <p>How sure are you?</p>\n      <p>Rate your confidence in your answer from 1 (pure guess) to 5 (very sure) by pressing the corresponding button.</p>\n     ","response":2,"image":"img/helmet.jpg","task":"confidence","old_or_new":"old","trial_type":"html-button-response","trial_index":74,"time_elapsed":168460,"internal_node_id":"0.0-3.0-1.35","subject_id":"5e83c34c4a17000f09e83308","study_id":"607de2837874a824e2e8c6ec","session_id":"608851c1e137b988ac80c24e"},{"rt":842.9199999955017,"stimulus":"img/glasses.jpg","response":"n","image":"img/glasses.jpg","old_or_new":"old","task":"recognition","trial_type":"image-keyboard-response","trial_index":75,"time_elapsed":169815,"internal_node_id":"0.0-3.0-0.36","subject_id":"5e83c34c4a17000f09e83308","study_id":"607de2837874a824e2e8c6ec","session_id":"608851c1e137b988ac80c24e","correct":false},{"rt":1281.5799999953015,"stimulus":"\n      <p>How sure are you?</p>\n      <p>Rate your confidence in your answer from 1 (pure guess) to 5 (very sure) by pressing the corresponding button.</p>\n     ","response":3,"image":"img/glasses.jpg","task":"confidence","old_or_new":"old","trial_type":"html-button-response","trial_index":76,"time_elapsed":171098,"internal_node_id":"0.0-3.0-1.36","subject_id":"5e83c34c4a17000f09e83308","study_id":"607de2837874a824e2e8c6ec","session_id":"608851c1e137b988ac80c24e"},{"rt":1153.52000000712,"stimulus":"img/camera.jpg","response":"y","image":"img/camera.jpg","old_or_new":"old","task":"recognition","trial_type":"image-keyboard-response","trial_index":77,"time_elapsed":172761,"internal_node_id":"0.0-3.0-0.37","subject_id":"5e83c34c4a17000f09e83308","study_id":"607de2837874a824e2e8c6ec","session_id":"608851c1e137b988ac80c24e","correct":true},{"rt":1081.6650000051595,"stimulus":"\n      <p>How sure are you?</p>\n      <p>Rate your confidence in your answer from 1 (pure guess) to 5 (very sure) by pressing the corresponding button.</p>\n     ","response":3,"image":"img/camera.jpg","task":"confidence","old_or_new":"old","trial_type":"html-button-response","trial_index":78,"time_elapsed":173844,"internal_node_id":"0.0-3.0-1.37","subject_id":"5e83c34c4a17000f09e83308","study_id":"607de2837874a824e2e8c6ec","session_id":"608851c1e137b988ac80c24e"},{"rt":828.414999996312,"stimulus":"img/drum_alternate.jpg","response":"n","image":"img/drum_alternate.jpg","old_or_new":"new","task":"recognition","trial_type":"image-keyboard-response","trial_index":79,"time_elapsed":175182,"internal_node_id":"0.0-3.0-0.38","subject_id":"5e83c34c4a17000f09e83308","study_id":"607de2837874a824e2e8c6ec","session_id":"608851c1e137b988ac80c24e","correct":true},{"rt":1255.0150000024587,"stimulus":"\n      <p>How sure are you?</p>\n      <p>Rate your confidence in your answer from 1 (pure guess) to 5 (very sure) by pressing the corresponding button.</p>\n     ","response":4,"image":"img/drum_alternate.jpg","task":"confidence","old_or_new":"new","trial_type":"html-button-response","trial_index":80,"time_elapsed":176439,"internal_node_id":"0.0-3.0-1.38","subject_id":"5e83c34c4a17000f09e83308","study_id":"607de2837874a824e2e8c6ec","session_id":"608851c1e137b988ac80c24e"},{"rt":1013.5500000033062,"stimulus":"img/hair_tie.jpg","response":"y","image":"img/hair_tie.jpg","old_or_new":"old","task":"recognition","trial_type":"image-keyboard-response","trial_index":81,"time_elapsed":177974,"internal_node_id":"0.0-3.0-0.39","subject_id":"5e83c34c4a17000f09e83308","study_id":"607de2837874a824e2e8c6ec","session_id":"608851c1e137b988ac80c24e","correct":true},{"rt":1370.4299999953946,"stimulus":"\n      <p>How sure are you?</p>\n      <p>Rate your confidence in your answer from 1 (pure guess) to 5 (very sure) by pressing the corresponding button.</p>\n     ","response":2,"image":"img/hair_tie.jpg","task":"confidence","old_or_new":"old","trial_type":"html-button-response","trial_index":82,"time_elapsed":179346,"internal_node_id":"0.0-3.0-1.39","subject_id":"5e83c34c4a17000f09e83308","study_id":"607de2837874a824e2e8c6ec","session_id":"608851c1e137b988ac80c24e"},{"rt":1065.5549999937648,"stimulus":"img/key_alternate.jpg","response":"n","image":"img/key_alternate.jpg","old_or_new":"new","task":"recognition","trial_type":"image-keyboard-response","trial_index":83,"time_elapsed":180929,"internal_node_id":"0.0-3.0-0.40","subject_id":"5e83c34c4a17000f09e83308","study_id":"607de2837874a824e2e8c6ec","session_id":"608851c1e137b988ac80c24e","correct":true},{"rt":1299.6349999884842,"stimulus":"\n      <p>How sure are you?</p>\n      <p>Rate your confidence in your answer from 1 (pure guess) to 5 (very sure) by pressing the corresponding button.</p>\n     ","response":4,"image":"img/key_alternate.jpg","task":"confidence","old_or_new":"new","trial_type":"html-button-response","trial_index":84,"time_elapsed":182231,"internal_node_id":"0.0-3.0-1.40","subject_id":"5e83c34c4a17000f09e83308","study_id":"607de2837874a824e2e8c6ec","session_id":"608851c1e137b988ac80c24e"},{"rt":1420.4749999917112,"stimulus":"img/fan_alternate.jpg","response":"n","image":"img/fan_alternate.jpg","old_or_new":"new","task":"recognition","trial_type":"image-keyboard-response","trial_index":85,"time_elapsed":184160,"internal_node_id":"0.0-3.0-0.41","subject_id":"5e83c34c4a17000f09e83308","study_id":"607de2837874a824e2e8c6ec","session_id":"608851c1e137b988ac80c24e","correct":true},{"rt":2888.1249999976717,"stimulus":"\n      <p>How sure are you?</p>\n      <p>Rate your confidence in your answer from 1 (pure guess) to 5 (very sure) by pressing the corresponding button.</p>\n     ","response":1,"image":"img/fan_alternate.jpg","task":"confidence","old_or_new":"new","trial_type":"html-button-response","trial_index":86,"time_elapsed":187050,"internal_node_id":"0.0-3.0-1.41","subject_id":"5e83c34c4a17000f09e83308","study_id":"607de2837874a824e2e8c6ec","session_id":"608851c1e137b988ac80c24e"},{"rt":756.3099999970291,"stimulus":"img/hourglass.jpg","response":"y","image":"img/hourglass.jpg","old_or_new":"old","task":"recognition","trial_type":"image-keyboard-response","trial_index":87,"time_elapsed":188320,"internal_node_id":"0.0-3.0-0.42","subject_id":"5e83c34c4a17000f09e83308","study_id":"607de2837874a824e2e8c6ec","session_id":"608851c1e137b988ac80c24e","correct":true},{"rt":1598.6699999921257,"stimulus":"\n      <p>How sure are you?</p>\n      <p>Rate your confidence in your answer from 1 (pure guess) to 5 (very sure) by pressing the corresponding button.</p>\n     ","response":4,"image":"img/hourglass.jpg","task":"confidence","old_or_new":"old","trial_type":"html-button-response","trial_index":88,"time_elapsed":189921,"internal_node_id":"0.0-3.0-1.42","subject_id":"5e83c34c4a17000f09e83308","study_id":"607de2837874a824e2e8c6ec","session_id":"608851c1e137b988ac80c24e"},{"rt":1146.9099999958416,"stimulus":"img/hair_tie_alternate.jpg","response":"n","image":"img/hair_tie_alternate.jpg","old_or_new":"new","task":"recognition","trial_type":"image-keyboard-response","trial_index":89,"time_elapsed":191572,"internal_node_id":"0.0-3.0-0.43","subject_id":"5e83c34c4a17000f09e83308","study_id":"607de2837874a824e2e8c6ec","session_id":"608851c1e137b988ac80c24e","correct":true},{"rt":1361.959999994724,"stimulus":"\n      <p>How sure are you?</p>\n      <p>Rate your confidence in your answer from 1 (pure guess) to 5 (very sure) by pressing the corresponding button.</p>\n     ","response":3,"image":"img/hair_tie_alternate.jpg","task":"confidence","old_or_new":"new","trial_type":"html-button-response","trial_index":90,"time_elapsed":192936,"internal_node_id":"0.0-3.0-1.43","subject_id":"5e83c34c4a17000f09e83308","study_id":"607de2837874a824e2e8c6ec","session_id":"608851c1e137b988ac80c24e"},{"rt":920.3300000081072,"stimulus":"img/camera_alternate.jpg","response":"n","image":"img/camera_alternate.jpg","old_or_new":"new","task":"recognition","trial_type":"image-keyboard-response","trial_index":91,"time_elapsed":194374,"internal_node_id":"0.0-3.0-0.44","subject_id":"5e83c34c4a17000f09e83308","study_id":"607de2837874a824e2e8c6ec","session_id":"608851c1e137b988ac80c24e","correct":true},{"rt":1068.1250000052387,"stimulus":"\n      <p>How sure are you?</p>\n      <p>Rate your confidence in your answer from 1 (pure guess) to 5 (very sure) by pressing the corresponding button.</p>\n     ","response":3,"image":"img/camera_alternate.jpg","task":"confidence","old_or_new":"new","trial_type":"html-button-response","trial_index":92,"time_elapsed":195443,"internal_node_id":"0.0-3.0-1.44","subject_id":"5e83c34c4a17000f09e83308","study_id":"607de2837874a824e2e8c6ec","session_id":"608851c1e137b988ac80c24e"},{"rt":733.0299999885028,"stimulus":"img/chair_alternate.jpg","response":"n","image":"img/chair_alternate.jpg","old_or_new":"new","task":"recognition","trial_type":"image-keyboard-response","trial_index":93,"time_elapsed":196679,"internal_node_id":"0.0-3.0-0.45","subject_id":"5e83c34c4a17000f09e83308","study_id":"607de2837874a824e2e8c6ec","session_id":"608851c1e137b988ac80c24e","correct":true},{"rt":1400.7350000028964,"stimulus":"\n      <p>How sure are you?</p>\n      <p>Rate your confidence in your answer from 1 (pure guess) to 5 (very sure) by pressing the corresponding button.</p>\n     ","response":2,"image":"img/chair_alternate.jpg","task":"confidence","old_or_new":"new","trial_type":"html-button-response","trial_index":94,"time_elapsed":198082,"internal_node_id":"0.0-3.0-1.45","subject_id":"5e83c34c4a17000f09e83308","study_id":"607de2837874a824e2e8c6ec","session_id":"608851c1e137b988ac80c24e"},{"rt":874.3550000071991,"stimulus":"img/calculator.jpg","response":"n","image":"img/calculator.jpg","old_or_new":"old","task":"recognition","trial_type":"image-keyboard-response","trial_index":95,"time_elapsed":199461,"internal_node_id":"0.0-3.0-0.46","subject_id":"5e83c34c4a17000f09e83308","study_id":"607de2837874a824e2e8c6ec","session_id":"608851c1e137b988ac80c24e","correct":false},{"rt":1286.500000001979,"stimulus":"\n      <p>How sure are you?</p>\n      <p>Rate your confidence in your answer from 1 (pure guess) to 5 (very sure) by pressing the corresponding button.</p>\n     ","response":3,"image":"img/calculator.jpg","task":"confidence","old_or_new":"old","trial_type":"html-button-response","trial_index":96,"time_elapsed":200749,"internal_node_id":"0.0-3.0-1.46","subject_id":"5e83c34c4a17000f09e83308","study_id":"607de2837874a824e2e8c6ec","session_id":"608851c1e137b988ac80c24e"},{"rt":889.8749999934807,"stimulus":"img/lightbulb_alternate.jpg","response":"n","image":"img/lightbulb_alternate.jpg","old_or_new":"new","task":"recognition","trial_type":"image-keyboard-response","trial_index":97,"time_elapsed":202154,"internal_node_id":"0.0-3.0-0.47","subject_id":"5e83c34c4a17000f09e83308","study_id":"607de2837874a824e2e8c6ec","session_id":"608851c1e137b988ac80c24e","correct":true},{"rt":1550.1799999910872,"stimulus":"\n      <p>How sure are you?</p>\n      <p>Rate your confidence in your answer from 1 (pure guess) to 5 (very sure) by pressing the corresponding button.</p>\n     ","response":3,"image":"img/lightbulb_alternate.jpg","task":"confidence","old_or_new":"new","trial_type":"html-button-response","trial_index":98,"time_elapsed":203706,"internal_node_id":"0.0-3.0-1.47","subject_id":"5e83c34c4a17000f09e83308","study_id":"607de2837874a824e2e8c6ec","session_id":"608851c1e137b988ac80c24e"}]