[{"success":true,"timeout":false,"failed_images":[],"failed_audio":[],"failed_video":[],"trial_type":"preload","trial_index":0,"time_elapsed":7355,"internal_node_id":"0.0-0.0","subject_id":"5daeef1127595a00157d30d3","study_id":"607de2837874a824e2e8c6ec","session_id":"60884ff5c759b288302abcab"},{"rt":10185,"stimulus":"\n      <div style=\"width:800px; text-align: left;\">\n        <p>Welcome to day 2 of the experiment! Thanks for coming back.</p>\n        <p>You will be presented with a series of images. Images will appear one at a time.</p>\n        <p>Each image will remain on the screen until you press either <span style=\"font-weight: bold;\">\"y\" to indicate you have seen the \n        exact same photo the day before or \"n\" to indicate you have not seen the exact same photo the day before.</span></p>\n        <p>After you answer yes (\"y\") or no (\"n\"), you will then be prompted to rate your certainty on a scale of\n        1 (pure guess) to 5 (very sure).</p>\n      </div>\n    ","response":0,"trial_type":"html-button-response","trial_index":1,"time_elapsed":17542,"internal_node_id":"0.0-1.0","subject_id":"5daeef1127595a00157d30d3","study_id":"607de2837874a824e2e8c6ec","session_id":"60884ff5c759b288302abcab"},{"success":true,"trial_type":"fullscreen","trial_index":2,"time_elapsed":20193,"internal_node_id":"0.0-2.0","subject_id":"5daeef1127595a00157d30d3","study_id":"607de2837874a824e2e8c6ec","session_id":"60884ff5c759b288302abcab"},{"rt":2366,"stimulus":"img/drum_alternate.jpg","response":"n","image":"img/drum_alternate.jpg","old_or_new":"new","task":"recognition","trial_type":"image-keyboard-response","trial_index":3,"time_elapsed":22564,"internal_node_id":"0.0-3.0-0.0","subject_id":"5daeef1127595a00157d30d3","study_id":"607de2837874a824e2e8c6ec","session_id":"60884ff5c759b288302abcab","correct":true},{"rt":4243,"stimulus":"\n      <p>How sure are you?</p>\n      <p>Rate your confidence in your answer from 1 (pure guess) to 5 (very sure) by pressing the corresponding button.</p>\n     ","response":4,"image":"img/drum_alternate.jpg","task":"confidence","old_or_new":"new","trial_type":"html-button-response","trial_index":4,"time_elapsed":26808,"internal_node_id":"0.0-3.0-1.0","subject_id":"5daeef1127595a00157d30d3","study_id":"607de2837874a824e2e8c6ec","session_id":"60884ff5c759b288302abcab"},{"rt":1586,"stimulus":"img/ladder.jpg","response":"y","image":"img/ladder.jpg","old_or_new":"old","task":"recognition","trial_type":"image-keyboard-response","trial_index":5,"time_elapsed":28898,"internal_node_id":"0.0-3.0-0.1","subject_id":"5daeef1127595a00157d30d3","study_id":"607de2837874a824e2e8c6ec","session_id":"60884ff5c759b288302abcab","correct":true},{"rt":799,"stimulus":"\n      <p>How sure are you?</p>\n      <p>Rate your confidence in your answer from 1 (pure guess) to 5 (very sure) by pressing the corresponding button.</p>\n     ","response":4,"image":"img/ladder.jpg","task":"confidence","old_or_new":"old","trial_type":"html-button-response","trial_index":6,"time_elapsed":29697,"internal_node_id":"0.0-3.0-1.1","subject_id":"5daeef1127595a00157d30d3","study_id":"607de2837874a824e2e8c6ec","session_id":"60884ff5c759b288302abcab"},{"rt":3147,"stimulus":"img/apple_alternate.jpg","response":"n","image":"img/apple_alternate.jpg","old_or_new":"new","task":"recognition","trial_type":"image-keyboard-response","trial_index":7,"time_elapsed":33349,"internal_node_id":"0.0-3.0-0.2","subject_id":"5daeef1127595a00157d30d3","study_id":"607de2837874a824e2e8c6ec","session_id":"60884ff5c759b288302abcab","correct":true},{"rt":2603,"stimulus":"\n      <p>How sure are you?</p>\n      <p>Rate your confidence in your answer from 1 (pure guess) to 5 (very sure) by pressing the corresponding button.</p>\n     ","response":3,"image":"img/apple_alternate.jpg","task":"confidence","old_or_new":"new","trial_type":"html-button-response","trial_index":8,"time_elapsed":35952,"internal_node_id":"0.0-3.0-1.2","subject_id":"5daeef1127595a00157d30d3","study_id":"607de2837874a824e2e8c6ec","session_id":"60884ff5c759b288302abcab"},{"rt":1802,"stimulus":"img/glasses_alternate.jpg","response":"n","image":"img/glasses_alternate.jpg","old_or_new":"new","task":"recognition","trial_type":"image-keyboard-response","trial_index":9,"time_elapsed":38259,"internal_node_id":"0.0-3.0-0.3","subject_id":"5daeef1127595a00157d30d3","study_id":"607de2837874a824e2e8c6ec","session_id":"60884ff5c759b288302abcab","correct":true},{"rt":917,"stimulus":"\n      <p>How sure are you?</p>\n      <p>Rate your confidence in your answer from 1 (pure guess) to 5 (very sure) by pressing the corresponding button.</p>\n     ","response":2,"image":"img/glasses_alternate.jpg","task":"confidence","old_or_new":"new","trial_type":"html-button-response","trial_index":10,"time_elapsed":39177,"internal_node_id":"0.0-3.0-1.3","subject_id":"5daeef1127595a00157d30d3","study_id":"607de2837874a824e2e8c6ec","session_id":"60884ff5c759b288302abcab"},{"rt":1073,"stimulus":"img/helmet_alternate.jpg","response":"n","image":"img/helmet_alternate.jpg","old_or_new":"new","task":"recognition","trial_type":"image-keyboard-response","trial_index":11,"time_elapsed":40754,"internal_node_id":"0.0-3.0-0.4","subject_id":"5daeef1127595a00157d30d3","study_id":"607de2837874a824e2e8c6ec","session_id":"60884ff5c759b288302abcab","correct":true},{"rt":942,"stimulus":"\n      <p>How sure are you?</p>\n      <p>Rate your confidence in your answer from 1 (pure guess) to 5 (very sure) by pressing the corresponding button.</p>\n     ","response":4,"image":"img/helmet_alternate.jpg","task":"confidence","old_or_new":"new","trial_type":"html-button-response","trial_index":12,"time_elapsed":41696,"internal_node_id":"0.0-3.0-1.4","subject_id":"5daeef1127595a00157d30d3","study_id":"607de2837874a824e2e8c6ec","session_id":"60884ff5c759b288302abcab"},{"rt":1523,"stimulus":"img/grapes_alternate.jpg","response":"n","image":"img/grapes_alternate.jpg","old_or_new":"new","task":"recognition","trial_type":"image-keyboard-response","trial_index":13,"time_elapsed":43722,"internal_node_id":"0.0-3.0-0.5","subject_id":"5daeef1127595a00157d30d3","study_id":"607de2837874a824e2e8c6ec","session_id":"60884ff5c759b288302abcab","correct":true},{"rt":854,"stimulus":"\n      <p>How sure are you?</p>\n      <p>Rate your confidence in your answer from 1 (pure guess) to 5 (very sure) by pressing the corresponding button.</p>\n     ","response":4,"image":"img/grapes_alternate.jpg","task":"confidence","old_or_new":"new","trial_type":"html-button-response","trial_index":14,"time_elapsed":44577,"internal_node_id":"0.0-3.0-1.5","subject_id":"5daeef1127595a00157d30d3","study_id":"607de2837874a824e2e8c6ec","session_id":"60884ff5c759b288302abcab"},{"rt":1092,"stimulus":"img/leaf_alternate.jpg","response":"n","image":"img/leaf_alternate.jpg","old_or_new":"new","task":"recognition","trial_type":"image-keyboard-response","trial_index":15,"time_elapsed":46175,"internal_node_id":"0.0-3.0-0.6","subject_id":"5daeef1127595a00157d30d3","study_id":"607de2837874a824e2e8c6ec","session_id":"60884ff5c759b288302abcab","correct":true},{"rt":865,"stimulus":"\n      <p>How sure are you?</p>\n      <p>Rate your confidence in your answer from 1 (pure guess) to 5 (very sure) by pressing the corresponding button.</p>\n     ","response":4,"image":"img/leaf_alternate.jpg","task":"confidence","old_or_new":"new","trial_type":"html-button-response","trial_index":16,"time_elapsed":47041,"internal_node_id":"0.0-3.0-1.6","subject_id":"5daeef1127595a00157d30d3","study_id":"607de2837874a824e2e8c6ec","session_id":"60884ff5c759b288302abcab"},{"rt":1645,"stimulus":"img/hat.jpg","response":"y","image":"img/hat.jpg","old_or_new":"old","task":"recognition","trial_type":"image-keyboard-response","trial_index":17,"time_elapsed":49189,"internal_node_id":"0.0-3.0-0.7","subject_id":"5daeef1127595a00157d30d3","study_id":"607de2837874a824e2e8c6ec","session_id":"60884ff5c759b288302abcab","correct":true},{"rt":811,"stimulus":"\n      <p>How sure are you?</p>\n      <p>Rate your confidence in your answer from 1 (pure guess) to 5 (very sure) by pressing the corresponding button.</p>\n     ","response":3,"image":"img/hat.jpg","task":"confidence","old_or_new":"old","trial_type":"html-button-response","trial_index":18,"time_elapsed":50001,"internal_node_id":"0.0-3.0-1.7","subject_id":"5daeef1127595a00157d30d3","study_id":"607de2837874a824e2e8c6ec","session_id":"60884ff5c759b288302abcab"},{"rt":1192,"stimulus":"img/leaf.jpg","response":"y","image":"img/leaf.jpg","old_or_new":"old","task":"recognition","trial_type":"image-keyboard-response","trial_index":19,"time_elapsed":51695,"internal_node_id":"0.0-3.0-0.8","subject_id":"5daeef1127595a00157d30d3","study_id":"607de2837874a824e2e8c6ec","session_id":"60884ff5c759b288302abcab","correct":true},{"rt":873,"stimulus":"\n      <p>How sure are you?</p>\n      <p>Rate your confidence in your answer from 1 (pure guess) to 5 (very sure) by pressing the corresponding button.</p>\n     ","response":4,"image":"img/leaf.jpg","task":"confidence","old_or_new":"old","trial_type":"html-button-response","trial_index":20,"time_elapsed":52569,"internal_node_id":"0.0-3.0-1.8","subject_id":"5daeef1127595a00157d30d3","study_id":"607de2837874a824e2e8c6ec","session_id":"60884ff5c759b288302abcab"},{"rt":1000,"stimulus":"img/hair_tie.jpg","response":"y","image":"img/hair_tie.jpg","old_or_new":"old","task":"recognition","trial_type":"image-keyboard-response","trial_index":21,"time_elapsed":54072,"internal_node_id":"0.0-3.0-0.9","subject_id":"5daeef1127595a00157d30d3","study_id":"607de2837874a824e2e8c6ec","session_id":"60884ff5c759b288302abcab","correct":true},{"rt":775,"stimulus":"\n      <p>How sure are you?</p>\n      <p>Rate your confidence in your answer from 1 (pure guess) to 5 (very sure) by pressing the corresponding button.</p>\n     ","response":4,"image":"img/hair_tie.jpg","task":"confidence","old_or_new":"old","trial_type":"html-button-response","trial_index":22,"time_elapsed":54848,"internal_node_id":"0.0-3.0-1.9","subject_id":"5daeef1127595a00157d30d3","study_id":"607de2837874a824e2e8c6ec","session_id":"60884ff5c759b288302abcab"},{"rt":847,"stimulus":"img/camera.jpg","response":"y","image":"img/camera.jpg","old_or_new":"old","task":"recognition","trial_type":"image-keyboard-response","trial_index":23,"time_elapsed":56197,"internal_node_id":"0.0-3.0-0.10","subject_id":"5daeef1127595a00157d30d3","study_id":"607de2837874a824e2e8c6ec","session_id":"60884ff5c759b288302abcab","correct":true},{"rt":714,"stimulus":"\n      <p>How sure are you?</p>\n      <p>Rate your confidence in your answer from 1 (pure guess) to 5 (very sure) by pressing the corresponding button.</p>\n     ","response":4,"image":"img/camera.jpg","task":"confidence","old_or_new":"old","trial_type":"html-button-response","trial_index":24,"time_elapsed":56912,"internal_node_id":"0.0-3.0-1.10","subject_id":"5daeef1127595a00157d30d3","study_id":"607de2837874a824e2e8c6ec","session_id":"60884ff5c759b288302abcab"},{"rt":1077,"stimulus":"img/globe_alternate.jpg","response":"n","image":"img/globe_alternate.jpg","old_or_new":"new","task":"recognition","trial_type":"image-keyboard-response","trial_index":25,"time_elapsed":58492,"internal_node_id":"0.0-3.0-0.11","subject_id":"5daeef1127595a00157d30d3","study_id":"607de2837874a824e2e8c6ec","session_id":"60884ff5c759b288302abcab","correct":true},{"rt":1083,"stimulus":"\n      <p>How sure are you?</p>\n      <p>Rate your confidence in your answer from 1 (pure guess) to 5 (very sure) by pressing the corresponding button.</p>\n     ","response":4,"image":"img/globe_alternate.jpg","task":"confidence","old_or_new":"new","trial_type":"html-button-response","trial_index":26,"time_elapsed":59576,"internal_node_id":"0.0-3.0-1.11","subject_id":"5daeef1127595a00157d30d3","study_id":"607de2837874a824e2e8c6ec","session_id":"60884ff5c759b288302abcab"},{"rt":1713,"stimulus":"img/basket_alternate.jpg","response":"n","image":"img/basket_alternate.jpg","old_or_new":"new","task":"recognition","trial_type":"image-keyboard-response","trial_index":27,"time_elapsed":61795,"internal_node_id":"0.0-3.0-0.12","subject_id":"5daeef1127595a00157d30d3","study_id":"607de2837874a824e2e8c6ec","session_id":"60884ff5c759b288302abcab","correct":true},{"rt":709,"stimulus":"\n      <p>How sure are you?</p>\n      <p>Rate your confidence in your answer from 1 (pure guess) to 5 (very sure) by pressing the corresponding button.</p>\n     ","response":4,"image":"img/basket_alternate.jpg","task":"confidence","old_or_new":"new","trial_type":"html-button-response","trial_index":28,"time_elapsed":62504,"internal_node_id":"0.0-3.0-1.12","subject_id":"5daeef1127595a00157d30d3","study_id":"607de2837874a824e2e8c6ec","session_id":"60884ff5c759b288302abcab"},{"rt":4113,"stimulus":"img/hourglass.jpg","response":"n","image":"img/hourglass.jpg","old_or_new":"old","task":"recognition","trial_type":"image-keyboard-response","trial_index":29,"time_elapsed":67121,"internal_node_id":"0.0-3.0-0.13","subject_id":"5daeef1127595a00157d30d3","study_id":"607de2837874a824e2e8c6ec","session_id":"60884ff5c759b288302abcab","correct":false},{"rt":1439,"stimulus":"\n      <p>How sure are you?</p>\n      <p>Rate your confidence in your answer from 1 (pure guess) to 5 (very sure) by pressing the corresponding button.</p>\n     ","response":1,"image":"img/hourglass.jpg","task":"confidence","old_or_new":"old","trial_type":"html-button-response","trial_index":30,"time_elapsed":68560,"internal_node_id":"0.0-3.0-1.13","subject_id":"5daeef1127595a00157d30d3","study_id":"607de2837874a824e2e8c6ec","session_id":"60884ff5c759b288302abcab"},{"rt":964,"stimulus":"img/hat_alternate.jpg","response":"n","image":"img/hat_alternate.jpg","old_or_new":"new","task":"recognition","trial_type":"image-keyboard-response","trial_index":31,"time_elapsed":70029,"internal_node_id":"0.0-3.0-0.14","subject_id":"5daeef1127595a00157d30d3","study_id":"607de2837874a824e2e8c6ec","session_id":"60884ff5c759b288302abcab","correct":true},{"rt":1363,"stimulus":"\n      <p>How sure are you?</p>\n      <p>Rate your confidence in your answer from 1 (pure guess) to 5 (very sure) by pressing the corresponding button.</p>\n     ","response":4,"image":"img/hat_alternate.jpg","task":"confidence","old_or_new":"new","trial_type":"html-button-response","trial_index":32,"time_elapsed":71392,"internal_node_id":"0.0-3.0-1.14","subject_id":"5daeef1127595a00157d30d3","study_id":"607de2837874a824e2e8c6ec","session_id":"60884ff5c759b288302abcab"},{"rt":1132,"stimulus":"img/hourglass_alternate.jpg","response":"n","image":"img/hourglass_alternate.jpg","old_or_new":"new","task":"recognition","trial_type":"image-keyboard-response","trial_index":33,"time_elapsed":73027,"internal_node_id":"0.0-3.0-0.15","subject_id":"5daeef1127595a00157d30d3","study_id":"607de2837874a824e2e8c6ec","session_id":"60884ff5c759b288302abcab","correct":true},{"rt":965,"stimulus":"\n      <p>How sure are you?</p>\n      <p>Rate your confidence in your answer from 1 (pure guess) to 5 (very sure) by pressing the corresponding button.</p>\n     ","response":4,"image":"img/hourglass_alternate.jpg","task":"confidence","old_or_new":"new","trial_type":"html-button-response","trial_index":34,"time_elapsed":73992,"internal_node_id":"0.0-3.0-1.15","subject_id":"5daeef1127595a00157d30d3","study_id":"607de2837874a824e2e8c6ec","session_id":"60884ff5c759b288302abcab"},{"rt":1033,"stimulus":"img/key.jpg","response":"y","image":"img/key.jpg","old_or_new":"old","task":"recognition","trial_type":"image-keyboard-response","trial_index":35,"time_elapsed":75529,"internal_node_id":"0.0-3.0-0.16","subject_id":"5daeef1127595a00157d30d3","study_id":"607de2837874a824e2e8c6ec","session_id":"60884ff5c759b288302abcab","correct":true},{"rt":1199,"stimulus":"\n      <p>How sure are you?</p>\n      <p>Rate your confidence in your answer from 1 (pure guess) to 5 (very sure) by pressing the corresponding button.</p>\n     ","response":4,"image":"img/key.jpg","task":"confidence","old_or_new":"old","trial_type":"html-button-response","trial_index":36,"time_elapsed":76729,"internal_node_id":"0.0-3.0-1.16","subject_id":"5daeef1127595a00157d30d3","study_id":"607de2837874a824e2e8c6ec","session_id":"60884ff5c759b288302abcab"},{"rt":1011,"stimulus":"img/backpack_alternate.jpg","response":"n","image":"img/backpack_alternate.jpg","old_or_new":"new","task":"recognition","trial_type":"image-keyboard-response","trial_index":37,"time_elapsed":78243,"internal_node_id":"0.0-3.0-0.17","subject_id":"5daeef1127595a00157d30d3","study_id":"607de2837874a824e2e8c6ec","session_id":"60884ff5c759b288302abcab","correct":true},{"rt":1061,"stimulus":"\n      <p>How sure are you?</p>\n      <p>Rate your confidence in your answer from 1 (pure guess) to 5 (very sure) by pressing the corresponding button.</p>\n     ","response":4,"image":"img/backpack_alternate.jpg","task":"confidence","old_or_new":"new","trial_type":"html-button-response","trial_index":38,"time_elapsed":79304,"internal_node_id":"0.0-3.0-1.17","subject_id":"5daeef1127595a00157d30d3","study_id":"607de2837874a824e2e8c6ec","session_id":"60884ff5c759b288302abcab"},{"rt":929,"stimulus":"img/camera_alternate.jpg","response":"n","image":"img/camera_alternate.jpg","old_or_new":"new","task":"recognition","trial_type":"image-keyboard-response","trial_index":39,"time_elapsed":80736,"internal_node_id":"0.0-3.0-0.18","subject_id":"5daeef1127595a00157d30d3","study_id":"607de2837874a824e2e8c6ec","session_id":"60884ff5c759b288302abcab","correct":true},{"rt":607,"stimulus":"\n      <p>How sure are you?</p>\n      <p>Rate your confidence in your answer from 1 (pure guess) to 5 (very sure) by pressing the corresponding button.</p>\n     ","response":4,"image":"img/camera_alternate.jpg","task":"confidence","old_or_new":"new","trial_type":"html-button-response","trial_index":40,"time_elapsed":81345,"internal_node_id":"0.0-3.0-1.18","subject_id":"5daeef1127595a00157d30d3","study_id":"607de2837874a824e2e8c6ec","session_id":"60884ff5c759b288302abcab"},{"rt":869,"stimulus":"img/hairbrush.jpg","response":"y","image":"img/hairbrush.jpg","old_or_new":"old","task":"recognition","trial_type":"image-keyboard-response","trial_index":41,"time_elapsed":82717,"internal_node_id":"0.0-3.0-0.19","subject_id":"5daeef1127595a00157d30d3","study_id":"607de2837874a824e2e8c6ec","session_id":"60884ff5c759b288302abcab","correct":true},{"rt":747,"stimulus":"\n      <p>How sure are you?</p>\n      <p>Rate your confidence in your answer from 1 (pure guess) to 5 (very sure) by pressing the corresponding button.</p>\n     ","response":4,"image":"img/hairbrush.jpg","task":"confidence","old_or_new":"old","trial_type":"html-button-response","trial_index":42,"time_elapsed":83465,"internal_node_id":"0.0-3.0-1.19","subject_id":"5daeef1127595a00157d30d3","study_id":"607de2837874a824e2e8c6ec","session_id":"60884ff5c759b288302abcab"},{"rt":1532,"stimulus":"img/key_alternate.jpg","response":"n","image":"img/key_alternate.jpg","old_or_new":"new","task":"recognition","trial_type":"image-keyboard-response","trial_index":43,"time_elapsed":85499,"internal_node_id":"0.0-3.0-0.20","subject_id":"5daeef1127595a00157d30d3","study_id":"607de2837874a824e2e8c6ec","session_id":"60884ff5c759b288302abcab","correct":true},{"rt":708,"stimulus":"\n      <p>How sure are you?</p>\n      <p>Rate your confidence in your answer from 1 (pure guess) to 5 (very sure) by pressing the corresponding button.</p>\n     ","response":2,"image":"img/key_alternate.jpg","task":"confidence","old_or_new":"new","trial_type":"html-button-response","trial_index":44,"time_elapsed":86208,"internal_node_id":"0.0-3.0-1.20","subject_id":"5daeef1127595a00157d30d3","study_id":"607de2837874a824e2e8c6ec","session_id":"60884ff5c759b288302abcab"},{"rt":732,"stimulus":"img/ladder_alternate.jpg","response":"n","image":"img/ladder_alternate.jpg","old_or_new":"new","task":"recognition","trial_type":"image-keyboard-response","trial_index":45,"time_elapsed":87444,"internal_node_id":"0.0-3.0-0.21","subject_id":"5daeef1127595a00157d30d3","study_id":"607de2837874a824e2e8c6ec","session_id":"60884ff5c759b288302abcab","correct":true},{"rt":757,"stimulus":"\n      <p>How sure are you?</p>\n      <p>Rate your confidence in your answer from 1 (pure guess) to 5 (very sure) by pressing the corresponding button.</p>\n     ","response":4,"image":"img/ladder_alternate.jpg","task":"confidence","old_or_new":"new","trial_type":"html-button-response","trial_index":46,"time_elapsed":88200,"internal_node_id":"0.0-3.0-1.21","subject_id":"5daeef1127595a00157d30d3","study_id":"607de2837874a824e2e8c6ec","session_id":"60884ff5c759b288302abcab"},{"rt":1762,"stimulus":"img/dryer_alternate.jpg","response":"n","image":"img/dryer_alternate.jpg","old_or_new":"new","task":"recognition","trial_type":"image-keyboard-response","trial_index":47,"time_elapsed":90465,"internal_node_id":"0.0-3.0-0.22","subject_id":"5daeef1127595a00157d30d3","study_id":"607de2837874a824e2e8c6ec","session_id":"60884ff5c759b288302abcab","correct":true},{"rt":1327,"stimulus":"\n      <p>How sure are you?</p>\n      <p>Rate your confidence in your answer from 1 (pure guess) to 5 (very sure) by pressing the corresponding button.</p>\n     ","response":4,"image":"img/dryer_alternate.jpg","task":"confidence","old_or_new":"new","trial_type":"html-button-response","trial_index":48,"time_elapsed":91792,"internal_node_id":"0.0-3.0-1.22","subject_id":"5daeef1127595a00157d30d3","study_id":"607de2837874a824e2e8c6ec","session_id":"60884ff5c759b288302abcab"},{"rt":1187,"stimulus":"img/glasses.jpg","response":"y","image":"img/glasses.jpg","old_or_new":"old","task":"recognition","trial_type":"image-keyboard-response","trial_index":49,"time_elapsed":93483,"internal_node_id":"0.0-3.0-0.23","subject_id":"5daeef1127595a00157d30d3","study_id":"607de2837874a824e2e8c6ec","session_id":"60884ff5c759b288302abcab","correct":true},{"rt":700,"stimulus":"\n      <p>How sure are you?</p>\n      <p>Rate your confidence in your answer from 1 (pure guess) to 5 (very sure) by pressing the corresponding button.</p>\n     ","response":4,"image":"img/glasses.jpg","task":"confidence","old_or_new":"old","trial_type":"html-button-response","trial_index":50,"time_elapsed":94185,"internal_node_id":"0.0-3.0-1.23","subject_id":"5daeef1127595a00157d30d3","study_id":"607de2837874a824e2e8c6ec","session_id":"60884ff5c759b288302abcab"},{"rt":891,"stimulus":"img/chair.jpg","response":"y","image":"img/chair.jpg","old_or_new":"old","task":"recognition","trial_type":"image-keyboard-response","trial_index":51,"time_elapsed":95579,"internal_node_id":"0.0-3.0-0.24","subject_id":"5daeef1127595a00157d30d3","study_id":"607de2837874a824e2e8c6ec","session_id":"60884ff5c759b288302abcab","correct":true},{"rt":612,"stimulus":"\n      <p>How sure are you?</p>\n      <p>Rate your confidence in your answer from 1 (pure guess) to 5 (very sure) by pressing the corresponding button.</p>\n     ","response":4,"image":"img/chair.jpg","task":"confidence","old_or_new":"old","trial_type":"html-button-response","trial_index":52,"time_elapsed":96193,"internal_node_id":"0.0-3.0-1.24","subject_id":"5daeef1127595a00157d30d3","study_id":"607de2837874a824e2e8c6ec","session_id":"60884ff5c759b288302abcab"},{"rt":1086,"stimulus":"img/backpack.jpg","response":"y","image":"img/backpack.jpg","old_or_new":"old","task":"recognition","trial_type":"image-keyboard-response","trial_index":53,"time_elapsed":97781,"internal_node_id":"0.0-3.0-0.25","subject_id":"5daeef1127595a00157d30d3","study_id":"607de2837874a824e2e8c6ec","session_id":"60884ff5c759b288302abcab","correct":true},{"rt":1243,"stimulus":"\n      <p>How sure are you?</p>\n      <p>Rate your confidence in your answer from 1 (pure guess) to 5 (very sure) by pressing the corresponding button.</p>\n     ","response":2,"image":"img/backpack.jpg","task":"confidence","old_or_new":"old","trial_type":"html-button-response","trial_index":54,"time_elapsed":99024,"internal_node_id":"0.0-3.0-1.25","subject_id":"5daeef1127595a00157d30d3","study_id":"607de2837874a824e2e8c6ec","session_id":"60884ff5c759b288302abcab"},{"rt":1230,"stimulus":"img/fan_alternate.jpg","response":"n","image":"img/fan_alternate.jpg","old_or_new":"new","task":"recognition","trial_type":"image-keyboard-response","trial_index":55,"time_elapsed":100757,"internal_node_id":"0.0-3.0-0.26","subject_id":"5daeef1127595a00157d30d3","study_id":"607de2837874a824e2e8c6ec","session_id":"60884ff5c759b288302abcab","correct":true},{"rt":667,"stimulus":"\n      <p>How sure are you?</p>\n      <p>Rate your confidence in your answer from 1 (pure guess) to 5 (very sure) by pressing the corresponding button.</p>\n     ","response":4,"image":"img/fan_alternate.jpg","task":"confidence","old_or_new":"new","trial_type":"html-button-response","trial_index":56,"time_elapsed":101424,"internal_node_id":"0.0-3.0-1.26","subject_id":"5daeef1127595a00157d30d3","study_id":"607de2837874a824e2e8c6ec","session_id":"60884ff5c759b288302abcab"},{"rt":1635,"stimulus":"img/hairbrush_alternate.jpg","response":"n","image":"img/hairbrush_alternate.jpg","old_or_new":"new","task":"recognition","trial_type":"image-keyboard-response","trial_index":57,"time_elapsed":103562,"internal_node_id":"0.0-3.0-0.27","subject_id":"5daeef1127595a00157d30d3","study_id":"607de2837874a824e2e8c6ec","session_id":"60884ff5c759b288302abcab","correct":true},{"rt":910,"stimulus":"\n      <p>How sure are you?</p>\n      <p>Rate your confidence in your answer from 1 (pure guess) to 5 (very sure) by pressing the corresponding button.</p>\n     ","response":4,"image":"img/hairbrush_alternate.jpg","task":"confidence","old_or_new":"new","trial_type":"html-button-response","trial_index":58,"time_elapsed":104472,"internal_node_id":"0.0-3.0-1.27","subject_id":"5daeef1127595a00157d30d3","study_id":"607de2837874a824e2e8c6ec","session_id":"60884ff5c759b288302abcab"},{"rt":836,"stimulus":"img/basket.jpg","response":"y","image":"img/basket.jpg","old_or_new":"old","task":"recognition","trial_type":"image-keyboard-response","trial_index":59,"time_elapsed":105813,"internal_node_id":"0.0-3.0-0.28","subject_id":"5daeef1127595a00157d30d3","study_id":"607de2837874a824e2e8c6ec","session_id":"60884ff5c759b288302abcab","correct":true},{"rt":1212,"stimulus":"\n      <p>How sure are you?</p>\n      <p>Rate your confidence in your answer from 1 (pure guess) to 5 (very sure) by pressing the corresponding button.</p>\n     ","response":2,"image":"img/basket.jpg","task":"confidence","old_or_new":"old","trial_type":"html-button-response","trial_index":60,"time_elapsed":107025,"internal_node_id":"0.0-3.0-1.28","subject_id":"5daeef1127595a00157d30d3","study_id":"607de2837874a824e2e8c6ec","session_id":"60884ff5c759b288302abcab"},{"rt":1244,"stimulus":"img/grapes.jpg","response":"n","image":"img/grapes.jpg","old_or_new":"old","task":"recognition","trial_type":"image-keyboard-response","trial_index":61,"time_elapsed":108770,"internal_node_id":"0.0-3.0-0.29","subject_id":"5daeef1127595a00157d30d3","study_id":"607de2837874a824e2e8c6ec","session_id":"60884ff5c759b288302abcab","correct":false},{"rt":2573,"stimulus":"\n      <p>How sure are you?</p>\n      <p>Rate your confidence in your answer from 1 (pure guess) to 5 (very sure) by pressing the corresponding button.</p>\n     ","response":1,"image":"img/grapes.jpg","task":"confidence","old_or_new":"old","trial_type":"html-button-response","trial_index":62,"time_elapsed":111344,"internal_node_id":"0.0-3.0-1.29","subject_id":"5daeef1127595a00157d30d3","study_id":"607de2837874a824e2e8c6ec","session_id":"60884ff5c759b288302abcab"},{"rt":1316,"stimulus":"img/folder_alternate.jpg","response":"n","image":"img/folder_alternate.jpg","old_or_new":"new","task":"recognition","trial_type":"image-keyboard-response","trial_index":63,"time_elapsed":113164,"internal_node_id":"0.0-3.0-0.30","subject_id":"5daeef1127595a00157d30d3","study_id":"607de2837874a824e2e8c6ec","session_id":"60884ff5c759b288302abcab","correct":true},{"rt":956,"stimulus":"\n      <p>How sure are you?</p>\n      <p>Rate your confidence in your answer from 1 (pure guess) to 5 (very sure) by pressing the corresponding button.</p>\n     ","response":3,"image":"img/folder_alternate.jpg","task":"confidence","old_or_new":"new","trial_type":"html-button-response","trial_index":64,"time_elapsed":114120,"internal_node_id":"0.0-3.0-1.30","subject_id":"5daeef1127595a00157d30d3","study_id":"607de2837874a824e2e8c6ec","session_id":"60884ff5c759b288302abcab"},{"rt":816,"stimulus":"img/drum.jpg","response":"y","image":"img/drum.jpg","old_or_new":"old","task":"recognition","trial_type":"image-keyboard-response","trial_index":65,"time_elapsed":115441,"internal_node_id":"0.0-3.0-0.31","subject_id":"5daeef1127595a00157d30d3","study_id":"607de2837874a824e2e8c6ec","session_id":"60884ff5c759b288302abcab","correct":true},{"rt":542,"stimulus":"\n      <p>How sure are you?</p>\n      <p>Rate your confidence in your answer from 1 (pure guess) to 5 (very sure) by pressing the corresponding button.</p>\n     ","response":4,"image":"img/drum.jpg","task":"confidence","old_or_new":"old","trial_type":"html-button-response","trial_index":66,"time_elapsed":115984,"internal_node_id":"0.0-3.0-1.31","subject_id":"5daeef1127595a00157d30d3","study_id":"607de2837874a824e2e8c6ec","session_id":"60884ff5c759b288302abcab"},{"rt":1329,"stimulus":"img/coin.jpg","response":"y","image":"img/coin.jpg","old_or_new":"old","task":"recognition","trial_type":"image-keyboard-response","trial_index":67,"time_elapsed":117818,"internal_node_id":"0.0-3.0-0.32","subject_id":"5daeef1127595a00157d30d3","study_id":"607de2837874a824e2e8c6ec","session_id":"60884ff5c759b288302abcab","correct":true},{"rt":589,"stimulus":"\n      <p>How sure are you?</p>\n      <p>Rate your confidence in your answer from 1 (pure guess) to 5 (very sure) by pressing the corresponding button.</p>\n     ","response":4,"image":"img/coin.jpg","task":"confidence","old_or_new":"old","trial_type":"html-button-response","trial_index":68,"time_elapsed":118409,"internal_node_id":"0.0-3.0-1.32","subject_id":"5daeef1127595a00157d30d3","study_id":"607de2837874a824e2e8c6ec","session_id":"60884ff5c759b288302abcab"},{"rt":815,"stimulus":"img/coin_alternate.jpg","response":"n","image":"img/coin_alternate.jpg","old_or_new":"new","task":"recognition","trial_type":"image-keyboard-response","trial_index":69,"time_elapsed":119728,"internal_node_id":"0.0-3.0-0.33","subject_id":"5daeef1127595a00157d30d3","study_id":"607de2837874a824e2e8c6ec","session_id":"60884ff5c759b288302abcab","correct":true},{"rt":856,"stimulus":"\n      <p>How sure are you?</p>\n      <p>Rate your confidence in your answer from 1 (pure guess) to 5 (very sure) by pressing the corresponding button.</p>\n     ","response":4,"image":"img/coin_alternate.jpg","task":"confidence","old_or_new":"new","trial_type":"html-button-response","trial_index":70,"time_elapsed":120585,"internal_node_id":"0.0-3.0-1.33","subject_id":"5daeef1127595a00157d30d3","study_id":"607de2837874a824e2e8c6ec","session_id":"60884ff5c759b288302abcab"},{"rt":1317,"stimulus":"img/dryer.jpg","response":"n","image":"img/dryer.jpg","old_or_new":"old","task":"recognition","trial_type":"image-keyboard-response","trial_index":71,"time_elapsed":122404,"internal_node_id":"0.0-3.0-0.34","subject_id":"5daeef1127595a00157d30d3","study_id":"607de2837874a824e2e8c6ec","session_id":"60884ff5c759b288302abcab","correct":false},{"rt":795,"stimulus":"\n      <p>How sure are you?</p>\n      <p>Rate your confidence in your answer from 1 (pure guess) to 5 (very sure) by pressing the corresponding button.</p>\n     ","response":4,"image":"img/dryer.jpg","task":"confidence","old_or_new":"old","trial_type":"html-button-response","trial_index":72,"time_elapsed":123201,"internal_node_id":"0.0-3.0-1.34","subject_id":"5daeef1127595a00157d30d3","study_id":"607de2837874a824e2e8c6ec","session_id":"60884ff5c759b288302abcab"},{"rt":886,"stimulus":"img/calculator_alternate.jpg","response":"n","image":"img/calculator_alternate.jpg","old_or_new":"new","task":"recognition","trial_type":"image-keyboard-response","trial_index":73,"time_elapsed":124588,"internal_node_id":"0.0-3.0-0.35","subject_id":"5daeef1127595a00157d30d3","study_id":"607de2837874a824e2e8c6ec","session_id":"60884ff5c759b288302abcab","correct":true},{"rt":923,"stimulus":"\n      <p>How sure are you?</p>\n      <p>Rate your confidence in your answer from 1 (pure guess) to 5 (very sure) by pressing the corresponding button.</p>\n     ","response":4,"image":"img/calculator_alternate.jpg","task":"confidence","old_or_new":"new","trial_type":"html-button-response","trial_index":74,"time_elapsed":125513,"internal_node_id":"0.0-3.0-1.35","subject_id":"5daeef1127595a00157d30d3","study_id":"607de2837874a824e2e8c6ec","session_id":"60884ff5c759b288302abcab"},{"rt":887,"stimulus":"img/lightbulb.jpg","response":"y","image":"img/lightbulb.jpg","old_or_new":"old","task":"recognition","trial_type":"image-keyboard-response","trial_index":75,"time_elapsed":126902,"internal_node_id":"0.0-3.0-0.36","subject_id":"5daeef1127595a00157d30d3","study_id":"607de2837874a824e2e8c6ec","session_id":"60884ff5c759b288302abcab","correct":true},{"rt":843,"stimulus":"\n      <p>How sure are you?</p>\n      <p>Rate your confidence in your answer from 1 (pure guess) to 5 (very sure) by pressing the corresponding button.</p>\n     ","response":4,"image":"img/lightbulb.jpg","task":"confidence","old_or_new":"old","trial_type":"html-button-response","trial_index":76,"time_elapsed":127745,"internal_node_id":"0.0-3.0-1.36","subject_id":"5daeef1127595a00157d30d3","study_id":"607de2837874a824e2e8c6ec","session_id":"60884ff5c759b288302abcab"},{"rt":980,"stimulus":"img/globe.jpg","response":"y","image":"img/globe.jpg","old_or_new":"old","task":"recognition","trial_type":"image-keyboard-response","trial_index":77,"time_elapsed":129229,"internal_node_id":"0.0-3.0-0.37","subject_id":"5daeef1127595a00157d30d3","study_id":"607de2837874a824e2e8c6ec","session_id":"60884ff5c759b288302abcab","correct":true},{"rt":891,"stimulus":"\n      <p>How sure are you?</p>\n      <p>Rate your confidence in your answer from 1 (pure guess) to 5 (very sure) by pressing the corresponding button.</p>\n     ","response":4,"image":"img/globe.jpg","task":"confidence","old_or_new":"old","trial_type":"html-button-response","trial_index":78,"time_elapsed":130120,"internal_node_id":"0.0-3.0-1.37","subject_id":"5daeef1127595a00157d30d3","study_id":"607de2837874a824e2e8c6ec","session_id":"60884ff5c759b288302abcab"},{"rt":727,"stimulus":"img/chair_alternate.jpg","response":"n","image":"img/chair_alternate.jpg","old_or_new":"new","task":"recognition","trial_type":"image-keyboard-response","trial_index":79,"time_elapsed":131352,"internal_node_id":"0.0-3.0-0.38","subject_id":"5daeef1127595a00157d30d3","study_id":"607de2837874a824e2e8c6ec","session_id":"60884ff5c759b288302abcab","correct":true},{"rt":807,"stimulus":"\n      <p>How sure are you?</p>\n      <p>Rate your confidence in your answer from 1 (pure guess) to 5 (very sure) by pressing the corresponding button.</p>\n     ","response":4,"image":"img/chair_alternate.jpg","task":"confidence","old_or_new":"new","trial_type":"html-button-response","trial_index":80,"time_elapsed":132160,"internal_node_id":"0.0-3.0-1.38","subject_id":"5daeef1127595a00157d30d3","study_id":"607de2837874a824e2e8c6ec","session_id":"60884ff5c759b288302abcab"},{"rt":4436,"stimulus":"img/bowl.jpg","response":"y","image":"img/bowl.jpg","old_or_new":"old","task":"recognition","trial_type":"image-keyboard-response","trial_index":81,"time_elapsed":137100,"internal_node_id":"0.0-3.0-0.39","subject_id":"5daeef1127595a00157d30d3","study_id":"607de2837874a824e2e8c6ec","session_id":"60884ff5c759b288302abcab","correct":true},{"rt":852,"stimulus":"\n      <p>How sure are you?</p>\n      <p>Rate your confidence in your answer from 1 (pure guess) to 5 (very sure) by pressing the corresponding button.</p>\n     ","response":2,"image":"img/bowl.jpg","task":"confidence","old_or_new":"old","trial_type":"html-button-response","trial_index":82,"time_elapsed":137953,"internal_node_id":"0.0-3.0-1.39","subject_id":"5daeef1127595a00157d30d3","study_id":"607de2837874a824e2e8c6ec","session_id":"60884ff5c759b288302abcab"},{"rt":812,"stimulus":"img/hair_tie_alternate.jpg","response":"n","image":"img/hair_tie_alternate.jpg","old_or_new":"new","task":"recognition","trial_type":"image-keyboard-response","trial_index":83,"time_elapsed":139268,"internal_node_id":"0.0-3.0-0.40","subject_id":"5daeef1127595a00157d30d3","study_id":"607de2837874a824e2e8c6ec","session_id":"60884ff5c759b288302abcab","correct":true},{"rt":717,"stimulus":"\n      <p>How sure are you?</p>\n      <p>Rate your confidence in your answer from 1 (pure guess) to 5 (very sure) by pressing the corresponding button.</p>\n     ","response":4,"image":"img/hair_tie_alternate.jpg","task":"confidence","old_or_new":"new","trial_type":"html-button-response","trial_index":84,"time_elapsed":139984,"internal_node_id":"0.0-3.0-1.40","subject_id":"5daeef1127595a00157d30d3","study_id":"607de2837874a824e2e8c6ec","session_id":"60884ff5c759b288302abcab"},{"rt":756,"stimulus":"img/apple.jpg","response":"y","image":"img/apple.jpg","old_or_new":"old","task":"recognition","trial_type":"image-keyboard-response","trial_index":85,"time_elapsed":141244,"internal_node_id":"0.0-3.0-0.41","subject_id":"5daeef1127595a00157d30d3","study_id":"607de2837874a824e2e8c6ec","session_id":"60884ff5c759b288302abcab","correct":true},{"rt":700,"stimulus":"\n      <p>How sure are you?</p>\n      <p>Rate your confidence in your answer from 1 (pure guess) to 5 (very sure) by pressing the corresponding button.</p>\n     ","response":4,"image":"img/apple.jpg","task":"confidence","old_or_new":"old","trial_type":"html-button-response","trial_index":86,"time_elapsed":141945,"internal_node_id":"0.0-3.0-1.41","subject_id":"5daeef1127595a00157d30d3","study_id":"607de2837874a824e2e8c6ec","session_id":"60884ff5c759b288302abcab"},{"rt":722,"stimulus":"img/bowl_alternate.jpg","response":"n","image":"img/bowl_alternate.jpg","old_or_new":"new","task":"recognition","trial_type":"image-keyboard-response","trial_index":87,"time_elapsed":143170,"internal_node_id":"0.0-3.0-0.42","subject_id":"5daeef1127595a00157d30d3","study_id":"607de2837874a824e2e8c6ec","session_id":"60884ff5c759b288302abcab","correct":true},{"rt":781,"stimulus":"\n      <p>How sure are you?</p>\n      <p>Rate your confidence in your answer from 1 (pure guess) to 5 (very sure) by pressing the corresponding button.</p>\n     ","response":4,"image":"img/bowl_alternate.jpg","task":"confidence","old_or_new":"new","trial_type":"html-button-response","trial_index":88,"time_elapsed":143952,"internal_node_id":"0.0-3.0-1.42","subject_id":"5daeef1127595a00157d30d3","study_id":"607de2837874a824e2e8c6ec","session_id":"60884ff5c759b288302abcab"},{"rt":808,"stimulus":"img/folder.jpg","response":"y","image":"img/folder.jpg","old_or_new":"old","task":"recognition","trial_type":"image-keyboard-response","trial_index":89,"time_elapsed":145275,"internal_node_id":"0.0-3.0-0.43","subject_id":"5daeef1127595a00157d30d3","study_id":"607de2837874a824e2e8c6ec","session_id":"60884ff5c759b288302abcab","correct":true},{"rt":667,"stimulus":"\n      <p>How sure are you?</p>\n      <p>Rate your confidence in your answer from 1 (pure guess) to 5 (very sure) by pressing the corresponding button.</p>\n     ","response":3,"image":"img/folder.jpg","task":"confidence","old_or_new":"old","trial_type":"html-button-response","trial_index":90,"time_elapsed":145944,"internal_node_id":"0.0-3.0-1.43","subject_id":"5daeef1127595a00157d30d3","study_id":"607de2837874a824e2e8c6ec","session_id":"60884ff5c759b288302abcab"},{"rt":1702,"stimulus":"img/fan.jpg","response":"y","image":"img/fan.jpg","old_or_new":"old","task":"recognition","trial_type":"image-keyboard-response","trial_index":91,"time_elapsed":148150,"internal_node_id":"0.0-3.0-0.44","subject_id":"5daeef1127595a00157d30d3","study_id":"607de2837874a824e2e8c6ec","session_id":"60884ff5c759b288302abcab","correct":true},{"rt":978,"stimulus":"\n      <p>How sure are you?</p>\n      <p>Rate your confidence in your answer from 1 (pure guess) to 5 (very sure) by pressing the corresponding button.</p>\n     ","response":3,"image":"img/fan.jpg","task":"confidence","old_or_new":"old","trial_type":"html-button-response","trial_index":92,"time_elapsed":149129,"internal_node_id":"0.0-3.0-1.44","subject_id":"5daeef1127595a00157d30d3","study_id":"607de2837874a824e2e8c6ec","session_id":"60884ff5c759b288302abcab"},{"rt":774,"stimulus":"img/helmet.jpg","response":"y","image":"img/helmet.jpg","old_or_new":"old","task":"recognition","trial_type":"image-keyboard-response","trial_index":93,"time_elapsed":150405,"internal_node_id":"0.0-3.0-0.45","subject_id":"5daeef1127595a00157d30d3","study_id":"607de2837874a824e2e8c6ec","session_id":"60884ff5c759b288302abcab","correct":true},{"rt":554,"stimulus":"\n      <p>How sure are you?</p>\n      <p>Rate your confidence in your answer from 1 (pure guess) to 5 (very sure) by pressing the corresponding button.</p>\n     ","response":4,"image":"img/helmet.jpg","task":"confidence","old_or_new":"old","trial_type":"html-button-response","trial_index":94,"time_elapsed":150960,"internal_node_id":"0.0-3.0-1.45","subject_id":"5daeef1127595a00157d30d3","study_id":"607de2837874a824e2e8c6ec","session_id":"60884ff5c759b288302abcab"},{"rt":702,"stimulus":"img/calculator.jpg","response":"y","image":"img/calculator.jpg","old_or_new":"old","task":"recognition","trial_type":"image-keyboard-response","trial_index":95,"time_elapsed":152166,"internal_node_id":"0.0-3.0-0.46","subject_id":"5daeef1127595a00157d30d3","study_id":"607de2837874a824e2e8c6ec","session_id":"60884ff5c759b288302abcab","correct":true},{"rt":954,"stimulus":"\n      <p>How sure are you?</p>\n      <p>Rate your confidence in your answer from 1 (pure guess) to 5 (very sure) by pressing the corresponding button.</p>\n     ","response":4,"image":"img/calculator.jpg","task":"confidence","old_or_new":"old","trial_type":"html-button-response","trial_index":96,"time_elapsed":153120,"internal_node_id":"0.0-3.0-1.46","subject_id":"5daeef1127595a00157d30d3","study_id":"607de2837874a824e2e8c6ec","session_id":"60884ff5c759b288302abcab"},{"rt":650,"stimulus":"img/lightbulb_alternate.jpg","response":"n","image":"img/lightbulb_alternate.jpg","old_or_new":"new","task":"recognition","trial_type":"image-keyboard-response","trial_index":97,"time_elapsed":154274,"internal_node_id":"0.0-3.0-0.47","subject_id":"5daeef1127595a00157d30d3","study_id":"607de2837874a824e2e8c6ec","session_id":"60884ff5c759b288302abcab","correct":true},{"rt":693,"stimulus":"\n      <p>How sure are you?</p>\n      <p>Rate your confidence in your answer from 1 (pure guess) to 5 (very sure) by pressing the corresponding button.</p>\n     ","response":4,"image":"img/lightbulb_alternate.jpg","task":"confidence","old_or_new":"new","trial_type":"html-button-response","trial_index":98,"time_elapsed":154969,"internal_node_id":"0.0-3.0-1.47","subject_id":"5daeef1127595a00157d30d3","study_id":"607de2837874a824e2e8c6ec","session_id":"60884ff5c759b288302abcab"}]