[{"success":true,"timeout":false,"failed_images":[],"failed_audio":[],"failed_video":[],"trial_type":"preload","trial_index":0,"time_elapsed":4115,"internal_node_id":"0.0-0.0","subject_id":"5f9086a7968f33148ceafec4","study_id":"606233c0e42b980319b6a18e","session_id":"608834e866a843f8d27331bd"},{"rt":40942.31499999296,"stimulus":"\n      <div style=\"width:800px; text-align: left;\">\n        <p>Welcome to day 2 of the experiment! Thanks for coming back.</p>\n        <p>You will be presented with a series of images. Images will appear one at a time.</p>\n        <p>Each image will remain on the screen until you press either <span style=\"font-weight: bold;\">\"y\" to indicate you have seen the \n        exact same photo the day before or \"n\" to indicate you have not seen the exact same photo the day before.</span></p>\n        <p>After you answer yes (\"y\") or no (\"n\"), you will then be prompted to rate your certainty on a scale of\n        1 (pure guess) to 5 (very sure).</p>\n      </div>\n    ","response":0,"trial_type":"html-button-response","trial_index":1,"time_elapsed":45058,"internal_node_id":"0.0-1.0","subject_id":"5f9086a7968f33148ceafec4","study_id":"606233c0e42b980319b6a18e","session_id":"608834e866a843f8d27331bd"},{"success":true,"trial_type":"fullscreen","trial_index":2,"time_elapsed":47790,"internal_node_id":"0.0-2.0","subject_id":"5f9086a7968f33148ceafec4","study_id":"606233c0e42b980319b6a18e","session_id":"608834e866a843f8d27331bd"},{"rt":1279.3000000528991,"stimulus":"img/plane.jpg","response":"y","image":"img/plane.jpg","old_or_new":"old","task":"recognition","trial_type":"image-keyboard-response","trial_index":3,"time_elapsed":49076,"internal_node_id":"0.0-3.0-0.0","subject_id":"5f9086a7968f33148ceafec4","study_id":"606233c0e42b980319b6a18e","session_id":"608834e866a843f8d27331bd","correct":true},{"rt":1788.0200000363402,"stimulus":"\n      <p>How sure are you?</p>\n      <p>Rate your confidence in your answer from 1 (pure guess) to 5 (very sure) by pressing the corresponding button.</p>\n     ","response":4,"image":"img/plane.jpg","task":"confidence","old_or_new":"old","trial_type":"html-button-response","trial_index":4,"time_elapsed":50865,"internal_node_id":"0.0-3.0-1.0","subject_id":"5f9086a7968f33148ceafec4","study_id":"606233c0e42b980319b6a18e","session_id":"608834e866a843f8d27331bd"},{"rt":786.3350000116043,"stimulus":"img/rolling_pin.jpg","response":"y","image":"img/rolling_pin.jpg","old_or_new":"old","task":"recognition","trial_type":"image-keyboard-response","trial_index":5,"time_elapsed":52153,"internal_node_id":"0.0-3.0-0.1","subject_id":"5f9086a7968f33148ceafec4","study_id":"606233c0e42b980319b6a18e","session_id":"608834e866a843f8d27331bd","correct":true},{"rt":409.4100000220351,"stimulus":"\n      <p>How sure are you?</p>\n      <p>Rate your confidence in your answer from 1 (pure guess) to 5 (very sure) by pressing the corresponding button.</p>\n     ","response":4,"image":"img/rolling_pin.jpg","task":"confidence","old_or_new":"old","trial_type":"html-button-response","trial_index":6,"time_elapsed":52563,"internal_node_id":"0.0-3.0-1.1","subject_id":"5f9086a7968f33148ceafec4","study_id":"606233c0e42b980319b6a18e","session_id":"608834e866a843f8d27331bd"},{"rt":964.2300000414252,"stimulus":"img/knife_alternate.jpg","response":"n","image":"img/knife_alternate.jpg","old_or_new":"new","task":"recognition","trial_type":"image-keyboard-response","trial_index":7,"time_elapsed":54028,"internal_node_id":"0.0-3.0-0.2","subject_id":"5f9086a7968f33148ceafec4","study_id":"606233c0e42b980319b6a18e","session_id":"608834e866a843f8d27331bd","correct":true},{"rt":872.4749999819323,"stimulus":"\n      <p>How sure are you?</p>\n      <p>Rate your confidence in your answer from 1 (pure guess) to 5 (very sure) by pressing the corresponding button.</p>\n     ","response":4,"image":"img/knife_alternate.jpg","task":"confidence","old_or_new":"new","trial_type":"html-button-response","trial_index":8,"time_elapsed":54902,"internal_node_id":"0.0-3.0-1.2","subject_id":"5f9086a7968f33148ceafec4","study_id":"606233c0e42b980319b6a18e","session_id":"608834e866a843f8d27331bd"},{"rt":767.5349999917671,"stimulus":"img/shovel.jpg","response":"y","image":"img/shovel.jpg","old_or_new":"old","task":"recognition","trial_type":"image-keyboard-response","trial_index":9,"time_elapsed":56171,"internal_node_id":"0.0-3.0-0.3","subject_id":"5f9086a7968f33148ceafec4","study_id":"606233c0e42b980319b6a18e","session_id":"608834e866a843f8d27331bd","correct":true},{"rt":517.5999999628402,"stimulus":"\n      <p>How sure are you?</p>\n      <p>Rate your confidence in your answer from 1 (pure guess) to 5 (very sure) by pressing the corresponding button.</p>\n     ","response":4,"image":"img/shovel.jpg","task":"confidence","old_or_new":"old","trial_type":"html-button-response","trial_index":10,"time_elapsed":56689,"internal_node_id":"0.0-3.0-1.3","subject_id":"5f9086a7968f33148ceafec4","study_id":"606233c0e42b980319b6a18e","session_id":"608834e866a843f8d27331bd"},{"rt":670.8399999770336,"stimulus":"img/sink.jpg","response":"y","image":"img/sink.jpg","old_or_new":"old","task":"recognition","trial_type":"image-keyboard-response","trial_index":11,"time_elapsed":57862,"internal_node_id":"0.0-3.0-0.4","subject_id":"5f9086a7968f33148ceafec4","study_id":"606233c0e42b980319b6a18e","session_id":"608834e866a843f8d27331bd","correct":true},{"rt":279.6749999979511,"stimulus":"\n      <p>How sure are you?</p>\n      <p>Rate your confidence in your answer from 1 (pure guess) to 5 (very sure) by pressing the corresponding button.</p>\n     ","response":4,"image":"img/sink.jpg","task":"confidence","old_or_new":"old","trial_type":"html-button-response","trial_index":12,"time_elapsed":58143,"internal_node_id":"0.0-3.0-1.4","subject_id":"5f9086a7968f33148ceafec4","study_id":"606233c0e42b980319b6a18e","session_id":"608834e866a843f8d27331bd"},{"rt":710.3900000220165,"stimulus":"img/skates.jpg","response":"y","image":"img/skates.jpg","old_or_new":"old","task":"recognition","trial_type":"image-keyboard-response","trial_index":13,"time_elapsed":59354,"internal_node_id":"0.0-3.0-0.5","subject_id":"5f9086a7968f33148ceafec4","study_id":"606233c0e42b980319b6a18e","session_id":"608834e866a843f8d27331bd","correct":true},{"rt":265.8899999805726,"stimulus":"\n      <p>How sure are you?</p>\n      <p>Rate your confidence in your answer from 1 (pure guess) to 5 (very sure) by pressing the corresponding button.</p>\n     ","response":4,"image":"img/skates.jpg","task":"confidence","old_or_new":"old","trial_type":"html-button-response","trial_index":14,"time_elapsed":59620,"internal_node_id":"0.0-3.0-1.5","subject_id":"5f9086a7968f33148ceafec4","study_id":"606233c0e42b980319b6a18e","session_id":"608834e866a843f8d27331bd"},{"rt":852.8299999888986,"stimulus":"img/scissors_alternate.jpg","response":"n","image":"img/scissors_alternate.jpg","old_or_new":"new","task":"recognition","trial_type":"image-keyboard-response","trial_index":15,"time_elapsed":60975,"internal_node_id":"0.0-3.0-0.6","subject_id":"5f9086a7968f33148ceafec4","study_id":"606233c0e42b980319b6a18e","session_id":"608834e866a843f8d27331bd","correct":true},{"rt":295.6949999788776,"stimulus":"\n      <p>How sure are you?</p>\n      <p>Rate your confidence in your answer from 1 (pure guess) to 5 (very sure) by pressing the corresponding button.</p>\n     ","response":4,"image":"img/scissors_alternate.jpg","task":"confidence","old_or_new":"new","trial_type":"html-button-response","trial_index":16,"time_elapsed":61271,"internal_node_id":"0.0-3.0-1.6","subject_id":"5f9086a7968f33148ceafec4","study_id":"606233c0e42b980319b6a18e","session_id":"608834e866a843f8d27331bd"},{"rt":1140.5599999707192,"stimulus":"img/seashell_alternate.jpg","response":"n","image":"img/seashell_alternate.jpg","old_or_new":"new","task":"recognition","trial_type":"image-keyboard-response","trial_index":17,"time_elapsed":62914,"internal_node_id":"0.0-3.0-0.7","subject_id":"5f9086a7968f33148ceafec4","study_id":"606233c0e42b980319b6a18e","session_id":"608834e866a843f8d27331bd","correct":true},{"rt":168.79999998491257,"stimulus":"\n      <p>How sure are you?</p>\n      <p>Rate your confidence in your answer from 1 (pure guess) to 5 (very sure) by pressing the corresponding button.</p>\n     ","response":4,"image":"img/seashell_alternate.jpg","task":"confidence","old_or_new":"new","trial_type":"html-button-response","trial_index":18,"time_elapsed":63083,"internal_node_id":"0.0-3.0-1.7","subject_id":"5f9086a7968f33148ceafec4","study_id":"606233c0e42b980319b6a18e","session_id":"608834e866a843f8d27331bd"},{"rt":746.7550000292249,"stimulus":"img/shirt.jpg","response":"y","image":"img/shirt.jpg","old_or_new":"old","task":"recognition","trial_type":"image-keyboard-response","trial_index":19,"time_elapsed":64332,"internal_node_id":"0.0-3.0-0.8","subject_id":"5f9086a7968f33148ceafec4","study_id":"606233c0e42b980319b6a18e","session_id":"608834e866a843f8d27331bd","correct":true},{"rt":348.70000003138557,"stimulus":"\n      <p>How sure are you?</p>\n      <p>Rate your confidence in your answer from 1 (pure guess) to 5 (very sure) by pressing the corresponding button.</p>\n     ","response":4,"image":"img/shirt.jpg","task":"confidence","old_or_new":"old","trial_type":"html-button-response","trial_index":20,"time_elapsed":64681,"internal_node_id":"0.0-3.0-1.8","subject_id":"5f9086a7968f33148ceafec4","study_id":"606233c0e42b980319b6a18e","session_id":"608834e866a843f8d27331bd"},{"rt":881.2899999902584,"stimulus":"img/shovel_alternate.jpg","response":"n","image":"img/shovel_alternate.jpg","old_or_new":"new","task":"recognition","trial_type":"image-keyboard-response","trial_index":21,"time_elapsed":66064,"internal_node_id":"0.0-3.0-0.9","subject_id":"5f9086a7968f33148ceafec4","study_id":"606233c0e42b980319b6a18e","session_id":"608834e866a843f8d27331bd","correct":true},{"rt":233.79500000737607,"stimulus":"\n      <p>How sure are you?</p>\n      <p>Rate your confidence in your answer from 1 (pure guess) to 5 (very sure) by pressing the corresponding button.</p>\n     ","response":4,"image":"img/shovel_alternate.jpg","task":"confidence","old_or_new":"new","trial_type":"html-button-response","trial_index":22,"time_elapsed":66298,"internal_node_id":"0.0-3.0-1.9","subject_id":"5f9086a7968f33148ceafec4","study_id":"606233c0e42b980319b6a18e","session_id":"608834e866a843f8d27331bd"},{"rt":593.7750000157394,"stimulus":"img/trophy.jpg","response":"y","image":"img/trophy.jpg","old_or_new":"old","task":"recognition","trial_type":"image-keyboard-response","trial_index":23,"time_elapsed":67394,"internal_node_id":"0.0-3.0-0.10","subject_id":"5f9086a7968f33148ceafec4","study_id":"606233c0e42b980319b6a18e","session_id":"608834e866a843f8d27331bd","correct":true},{"rt":295.9899999550544,"stimulus":"\n      <p>How sure are you?</p>\n      <p>Rate your confidence in your answer from 1 (pure guess) to 5 (very sure) by pressing the corresponding button.</p>\n     ","response":4,"image":"img/trophy.jpg","task":"confidence","old_or_new":"old","trial_type":"html-button-response","trial_index":24,"time_elapsed":67691,"internal_node_id":"0.0-3.0-1.10","subject_id":"5f9086a7968f33148ceafec4","study_id":"606233c0e42b980319b6a18e","session_id":"608834e866a843f8d27331bd"},{"rt":1946.9200000166893,"stimulus":"img/toaster_alternate.jpg","response":"n","image":"img/toaster_alternate.jpg","old_or_new":"new","task":"recognition","trial_type":"image-keyboard-response","trial_index":25,"time_elapsed":70139,"internal_node_id":"0.0-3.0-0.11","subject_id":"5f9086a7968f33148ceafec4","study_id":"606233c0e42b980319b6a18e","session_id":"608834e866a843f8d27331bd","correct":true},{"rt":339.0099999960512,"stimulus":"\n      <p>How sure are you?</p>\n      <p>Rate your confidence in your answer from 1 (pure guess) to 5 (very sure) by pressing the corresponding button.</p>\n     ","response":4,"image":"img/toaster_alternate.jpg","task":"confidence","old_or_new":"new","trial_type":"html-button-response","trial_index":26,"time_elapsed":70479,"internal_node_id":"0.0-3.0-1.11","subject_id":"5f9086a7968f33148ceafec4","study_id":"606233c0e42b980319b6a18e","session_id":"608834e866a843f8d27331bd"},{"rt":1079.5599999837577,"stimulus":"img/toothbrush.jpg","response":"y","image":"img/toothbrush.jpg","old_or_new":"old","task":"recognition","trial_type":"image-keyboard-response","trial_index":27,"time_elapsed":72060,"internal_node_id":"0.0-3.0-0.12","subject_id":"5f9086a7968f33148ceafec4","study_id":"606233c0e42b980319b6a18e","session_id":"608834e866a843f8d27331bd","correct":true},{"rt":332.90999999735504,"stimulus":"\n      <p>How sure are you?</p>\n      <p>Rate your confidence in your answer from 1 (pure guess) to 5 (very sure) by pressing the corresponding button.</p>\n     ","response":4,"image":"img/toothbrush.jpg","task":"confidence","old_or_new":"old","trial_type":"html-button-response","trial_index":28,"time_elapsed":72394,"internal_node_id":"0.0-3.0-1.12","subject_id":"5f9086a7968f33148ceafec4","study_id":"606233c0e42b980319b6a18e","session_id":"608834e866a843f8d27331bd"},{"rt":1358.1049999920651,"stimulus":"img/plane_alternate.jpg","response":"n","image":"img/plane_alternate.jpg","old_or_new":"new","task":"recognition","trial_type":"image-keyboard-response","trial_index":29,"time_elapsed":74253,"internal_node_id":"0.0-3.0-0.13","subject_id":"5f9086a7968f33148ceafec4","study_id":"606233c0e42b980319b6a18e","session_id":"608834e866a843f8d27331bd","correct":true},{"rt":207.0899999816902,"stimulus":"\n      <p>How sure are you?</p>\n      <p>Rate your confidence in your answer from 1 (pure guess) to 5 (very sure) by pressing the corresponding button.</p>\n     ","response":4,"image":"img/plane_alternate.jpg","task":"confidence","old_or_new":"new","trial_type":"html-button-response","trial_index":30,"time_elapsed":74461,"internal_node_id":"0.0-3.0-1.13","subject_id":"5f9086a7968f33148ceafec4","study_id":"606233c0e42b980319b6a18e","session_id":"608834e866a843f8d27331bd"},{"rt":752.0350000122562,"stimulus":"img/shoe_alternate.jpg","response":"n","image":"img/shoe_alternate.jpg","old_or_new":"new","task":"recognition","trial_type":"image-keyboard-response","trial_index":31,"time_elapsed":75714,"internal_node_id":"0.0-3.0-0.14","subject_id":"5f9086a7968f33148ceafec4","study_id":"606233c0e42b980319b6a18e","session_id":"608834e866a843f8d27331bd","correct":true},{"rt":223.20000000763685,"stimulus":"\n      <p>How sure are you?</p>\n      <p>Rate your confidence in your answer from 1 (pure guess) to 5 (very sure) by pressing the corresponding button.</p>\n     ","response":4,"image":"img/shoe_alternate.jpg","task":"confidence","old_or_new":"new","trial_type":"html-button-response","trial_index":32,"time_elapsed":75938,"internal_node_id":"0.0-3.0-1.14","subject_id":"5f9086a7968f33148ceafec4","study_id":"606233c0e42b980319b6a18e","session_id":"608834e866a843f8d27331bd"},{"rt":1921.4999999967404,"stimulus":"img/spoon_alternate.jpg","response":"y","image":"img/spoon_alternate.jpg","old_or_new":"new","task":"recognition","trial_type":"image-keyboard-response","trial_index":33,"time_elapsed":78361,"internal_node_id":"0.0-3.0-0.15","subject_id":"5f9086a7968f33148ceafec4","study_id":"606233c0e42b980319b6a18e","session_id":"608834e866a843f8d27331bd","correct":false},{"rt":782.279999984894,"stimulus":"\n      <p>How sure are you?</p>\n      <p>Rate your confidence in your answer from 1 (pure guess) to 5 (very sure) by pressing the corresponding button.</p>\n     ","response":2,"image":"img/spoon_alternate.jpg","task":"confidence","old_or_new":"new","trial_type":"html-button-response","trial_index":34,"time_elapsed":79144,"internal_node_id":"0.0-3.0-1.15","subject_id":"5f9086a7968f33148ceafec4","study_id":"606233c0e42b980319b6a18e","session_id":"608834e866a843f8d27331bd"},{"rt":663.4249999769963,"stimulus":"img/knife.jpg","response":"y","image":"img/knife.jpg","old_or_new":"old","task":"recognition","trial_type":"image-keyboard-response","trial_index":35,"time_elapsed":80309,"internal_node_id":"0.0-3.0-0.16","subject_id":"5f9086a7968f33148ceafec4","study_id":"606233c0e42b980319b6a18e","session_id":"608834e866a843f8d27331bd","correct":true},{"rt":453.3650000230409,"stimulus":"\n      <p>How sure are you?</p>\n      <p>Rate your confidence in your answer from 1 (pure guess) to 5 (very sure) by pressing the corresponding button.</p>\n     ","response":4,"image":"img/knife.jpg","task":"confidence","old_or_new":"old","trial_type":"html-button-response","trial_index":36,"time_elapsed":80763,"internal_node_id":"0.0-3.0-1.16","subject_id":"5f9086a7968f33148ceafec4","study_id":"606233c0e42b980319b6a18e","session_id":"608834e866a843f8d27331bd"},{"rt":751.4399999636225,"stimulus":"img/skates_alternate.jpg","response":"n","image":"img/skates_alternate.jpg","old_or_new":"new","task":"recognition","trial_type":"image-keyboard-response","trial_index":37,"time_elapsed":82016,"internal_node_id":"0.0-3.0-0.17","subject_id":"5f9086a7968f33148ceafec4","study_id":"606233c0e42b980319b6a18e","session_id":"608834e866a843f8d27331bd","correct":true},{"rt":454.46999999694526,"stimulus":"\n      <p>How sure are you?</p>\n      <p>Rate your confidence in your answer from 1 (pure guess) to 5 (very sure) by pressing the corresponding button.</p>\n     ","response":4,"image":"img/skates_alternate.jpg","task":"confidence","old_or_new":"new","trial_type":"html-button-response","trial_index":38,"time_elapsed":82471,"internal_node_id":"0.0-3.0-1.17","subject_id":"5f9086a7968f33148ceafec4","study_id":"606233c0e42b980319b6a18e","session_id":"608834e866a843f8d27331bd"},{"rt":783.4249999723397,"stimulus":"img/power_cord.jpg","response":"y","image":"img/power_cord.jpg","old_or_new":"old","task":"recognition","trial_type":"image-keyboard-response","trial_index":39,"time_elapsed":83756,"internal_node_id":"0.0-3.0-0.18","subject_id":"5f9086a7968f33148ceafec4","study_id":"606233c0e42b980319b6a18e","session_id":"608834e866a843f8d27331bd","correct":true},{"rt":303.0799999833107,"stimulus":"\n      <p>How sure are you?</p>\n      <p>Rate your confidence in your answer from 1 (pure guess) to 5 (very sure) by pressing the corresponding button.</p>\n     ","response":4,"image":"img/power_cord.jpg","task":"confidence","old_or_new":"old","trial_type":"html-button-response","trial_index":40,"time_elapsed":84060,"internal_node_id":"0.0-3.0-1.18","subject_id":"5f9086a7968f33148ceafec4","study_id":"606233c0e42b980319b6a18e","session_id":"608834e866a843f8d27331bd"},{"rt":675.5150000099093,"stimulus":"img/watch.jpg","response":"y","image":"img/watch.jpg","old_or_new":"old","task":"recognition","trial_type":"image-keyboard-response","trial_index":41,"time_elapsed":85237,"internal_node_id":"0.0-3.0-0.19","subject_id":"5f9086a7968f33148ceafec4","study_id":"606233c0e42b980319b6a18e","session_id":"608834e866a843f8d27331bd","correct":true},{"rt":228.51500002434477,"stimulus":"\n      <p>How sure are you?</p>\n      <p>Rate your confidence in your answer from 1 (pure guess) to 5 (very sure) by pressing the corresponding button.</p>\n     ","response":4,"image":"img/watch.jpg","task":"confidence","old_or_new":"old","trial_type":"html-button-response","trial_index":42,"time_elapsed":85466,"internal_node_id":"0.0-3.0-1.19","subject_id":"5f9086a7968f33148ceafec4","study_id":"606233c0e42b980319b6a18e","session_id":"608834e866a843f8d27331bd"},{"rt":1492.1650000032969,"stimulus":"img/power_cord_alternate.jpg","response":"n","image":"img/power_cord_alternate.jpg","old_or_new":"new","task":"recognition","trial_type":"image-keyboard-response","trial_index":43,"time_elapsed":87460,"internal_node_id":"0.0-3.0-0.20","subject_id":"5f9086a7968f33148ceafec4","study_id":"606233c0e42b980319b6a18e","session_id":"608834e866a843f8d27331bd","correct":true},{"rt":524.6150000020862,"stimulus":"\n      <p>How sure are you?</p>\n      <p>Rate your confidence in your answer from 1 (pure guess) to 5 (very sure) by pressing the corresponding button.</p>\n     ","response":4,"image":"img/power_cord_alternate.jpg","task":"confidence","old_or_new":"new","trial_type":"html-button-response","trial_index":44,"time_elapsed":87985,"internal_node_id":"0.0-3.0-1.20","subject_id":"5f9086a7968f33148ceafec4","study_id":"606233c0e42b980319b6a18e","session_id":"608834e866a843f8d27331bd"},{"rt":716.2300000200048,"stimulus":"img/pencil_sharpener.jpg","response":"y","image":"img/pencil_sharpener.jpg","old_or_new":"old","task":"recognition","trial_type":"image-keyboard-response","trial_index":45,"time_elapsed":89203,"internal_node_id":"0.0-3.0-0.21","subject_id":"5f9086a7968f33148ceafec4","study_id":"606233c0e42b980319b6a18e","session_id":"608834e866a843f8d27331bd","correct":true},{"rt":332.4150000116788,"stimulus":"\n      <p>How sure are you?</p>\n      <p>Rate your confidence in your answer from 1 (pure guess) to 5 (very sure) by pressing the corresponding button.</p>\n     ","response":4,"image":"img/pencil_sharpener.jpg","task":"confidence","old_or_new":"old","trial_type":"html-button-response","trial_index":46,"time_elapsed":89536,"internal_node_id":"0.0-3.0-1.21","subject_id":"5f9086a7968f33148ceafec4","study_id":"606233c0e42b980319b6a18e","session_id":"608834e866a843f8d27331bd"},{"rt":535.7800000347197,"stimulus":"img/spoon.jpg","response":"y","image":"img/spoon.jpg","old_or_new":"old","task":"recognition","trial_type":"image-keyboard-response","trial_index":47,"time_elapsed":90573,"internal_node_id":"0.0-3.0-0.22","subject_id":"5f9086a7968f33148ceafec4","study_id":"606233c0e42b980319b6a18e","session_id":"608834e866a843f8d27331bd","correct":true},{"rt":145.9049999830313,"stimulus":"\n      <p>How sure are you?</p>\n      <p>Rate your confidence in your answer from 1 (pure guess) to 5 (very sure) by pressing the corresponding button.</p>\n     ","response":4,"image":"img/spoon.jpg","task":"confidence","old_or_new":"old","trial_type":"html-button-response","trial_index":48,"time_elapsed":90723,"internal_node_id":"0.0-3.0-1.22","subject_id":"5f9086a7968f33148ceafec4","study_id":"606233c0e42b980319b6a18e","session_id":"608834e866a843f8d27331bd"},{"rt":603.3649999881163,"stimulus":"img/plate.jpg","response":"y","image":"img/plate.jpg","old_or_new":"old","task":"recognition","trial_type":"image-keyboard-response","trial_index":49,"time_elapsed":91828,"internal_node_id":"0.0-3.0-0.23","subject_id":"5f9086a7968f33148ceafec4","study_id":"606233c0e42b980319b6a18e","session_id":"608834e866a843f8d27331bd","correct":true},{"rt":143.57499999459833,"stimulus":"\n      <p>How sure are you?</p>\n      <p>Rate your confidence in your answer from 1 (pure guess) to 5 (very sure) by pressing the corresponding button.</p>\n     ","response":4,"image":"img/plate.jpg","task":"confidence","old_or_new":"old","trial_type":"html-button-response","trial_index":50,"time_elapsed":91972,"internal_node_id":"0.0-3.0-1.23","subject_id":"5f9086a7968f33148ceafec4","study_id":"606233c0e42b980319b6a18e","session_id":"608834e866a843f8d27331bd"},{"rt":1373.1900000129826,"stimulus":"img/tv.jpg","response":"y","image":"img/tv.jpg","old_or_new":"old","task":"recognition","trial_type":"image-keyboard-response","trial_index":51,"time_elapsed":93847,"internal_node_id":"0.0-3.0-0.24","subject_id":"5f9086a7968f33148ceafec4","study_id":"606233c0e42b980319b6a18e","session_id":"608834e866a843f8d27331bd","correct":true},{"rt":130.76500000897795,"stimulus":"\n      <p>How sure are you?</p>\n      <p>Rate your confidence in your answer from 1 (pure guess) to 5 (very sure) by pressing the corresponding button.</p>\n     ","response":4,"image":"img/tv.jpg","task":"confidence","old_or_new":"old","trial_type":"html-button-response","trial_index":52,"time_elapsed":93978,"internal_node_id":"0.0-3.0-1.24","subject_id":"5f9086a7968f33148ceafec4","study_id":"606233c0e42b980319b6a18e","session_id":"608834e866a843f8d27331bd"},{"rt":721.7849999433383,"stimulus":"img/parfait_alternate.jpg","response":"n","image":"img/parfait_alternate.jpg","old_or_new":"new","task":"recognition","trial_type":"image-keyboard-response","trial_index":53,"time_elapsed":95202,"internal_node_id":"0.0-3.0-0.25","subject_id":"5f9086a7968f33148ceafec4","study_id":"606233c0e42b980319b6a18e","session_id":"608834e866a843f8d27331bd","correct":true},{"rt":148.8550000358373,"stimulus":"\n      <p>How sure are you?</p>\n      <p>Rate your confidence in your answer from 1 (pure guess) to 5 (very sure) by pressing the corresponding button.</p>\n     ","response":4,"image":"img/parfait_alternate.jpg","task":"confidence","old_or_new":"new","trial_type":"html-button-response","trial_index":54,"time_elapsed":95351,"internal_node_id":"0.0-3.0-1.25","subject_id":"5f9086a7968f33148ceafec4","study_id":"606233c0e42b980319b6a18e","session_id":"608834e866a843f8d27331bd"},{"rt":814.9850000045262,"stimulus":"img/umbrella_alternate.jpg","response":"y","image":"img/umbrella_alternate.jpg","old_or_new":"new","task":"recognition","trial_type":"image-keyboard-response","trial_index":55,"time_elapsed":96668,"internal_node_id":"0.0-3.0-0.26","subject_id":"5f9086a7968f33148ceafec4","study_id":"606233c0e42b980319b6a18e","session_id":"608834e866a843f8d27331bd","correct":false},{"rt":175.74999999487773,"stimulus":"\n      <p>How sure are you?</p>\n      <p>Rate your confidence in your answer from 1 (pure guess) to 5 (very sure) by pressing the corresponding button.</p>\n     ","response":4,"image":"img/umbrella_alternate.jpg","task":"confidence","old_or_new":"new","trial_type":"html-button-response","trial_index":56,"time_elapsed":96844,"internal_node_id":"0.0-3.0-1.26","subject_id":"5f9086a7968f33148ceafec4","study_id":"606233c0e42b980319b6a18e","session_id":"608834e866a843f8d27331bd"},{"rt":691.7399999802001,"stimulus":"img/toothbrush_alternate.jpg","response":"n","image":"img/toothbrush_alternate.jpg","old_or_new":"new","task":"recognition","trial_type":"image-keyboard-response","trial_index":57,"time_elapsed":98038,"internal_node_id":"0.0-3.0-0.27","subject_id":"5f9086a7968f33148ceafec4","study_id":"606233c0e42b980319b6a18e","session_id":"608834e866a843f8d27331bd","correct":true},{"rt":141.9649999588728,"stimulus":"\n      <p>How sure are you?</p>\n      <p>Rate your confidence in your answer from 1 (pure guess) to 5 (very sure) by pressing the corresponding button.</p>\n     ","response":4,"image":"img/toothbrush_alternate.jpg","task":"confidence","old_or_new":"new","trial_type":"html-button-response","trial_index":58,"time_elapsed":98180,"internal_node_id":"0.0-3.0-1.27","subject_id":"5f9086a7968f33148ceafec4","study_id":"606233c0e42b980319b6a18e","session_id":"608834e866a843f8d27331bd"},{"rt":722.7499999571592,"stimulus":"img/tv_alternate.jpg","response":"n","image":"img/tv_alternate.jpg","old_or_new":"new","task":"recognition","trial_type":"image-keyboard-response","trial_index":59,"time_elapsed":99405,"internal_node_id":"0.0-3.0-0.28","subject_id":"5f9086a7968f33148ceafec4","study_id":"606233c0e42b980319b6a18e","session_id":"608834e866a843f8d27331bd","correct":true},{"rt":127.92500003706664,"stimulus":"\n      <p>How sure are you?</p>\n      <p>Rate your confidence in your answer from 1 (pure guess) to 5 (very sure) by pressing the corresponding button.</p>\n     ","response":4,"image":"img/tv_alternate.jpg","task":"confidence","old_or_new":"new","trial_type":"html-button-response","trial_index":60,"time_elapsed":99534,"internal_node_id":"0.0-3.0-1.28","subject_id":"5f9086a7968f33148ceafec4","study_id":"606233c0e42b980319b6a18e","session_id":"608834e866a843f8d27331bd"},{"rt":742.3650000127964,"stimulus":"img/pencil_sharpener_alternate.jpg","response":"n","image":"img/pencil_sharpener_alternate.jpg","old_or_new":"new","task":"recognition","trial_type":"image-keyboard-response","trial_index":61,"time_elapsed":100778,"internal_node_id":"0.0-3.0-0.29","subject_id":"5f9086a7968f33148ceafec4","study_id":"606233c0e42b980319b6a18e","session_id":"608834e866a843f8d27331bd","correct":true},{"rt":198.01500003086403,"stimulus":"\n      <p>How sure are you?</p>\n      <p>Rate your confidence in your answer from 1 (pure guess) to 5 (very sure) by pressing the corresponding button.</p>\n     ","response":4,"image":"img/pencil_sharpener_alternate.jpg","task":"confidence","old_or_new":"new","trial_type":"html-button-response","trial_index":62,"time_elapsed":100976,"internal_node_id":"0.0-3.0-1.29","subject_id":"5f9086a7968f33148ceafec4","study_id":"606233c0e42b980319b6a18e","session_id":"608834e866a843f8d27331bd"},{"rt":1442.3500000266358,"stimulus":"img/wheel_barrow_alternate.jpg","response":"n","image":"img/wheel_barrow_alternate.jpg","old_or_new":"new","task":"recognition","trial_type":"image-keyboard-response","trial_index":63,"time_elapsed":102920,"internal_node_id":"0.0-3.0-0.30","subject_id":"5f9086a7968f33148ceafec4","study_id":"606233c0e42b980319b6a18e","session_id":"608834e866a843f8d27331bd","correct":true},{"rt":136.1250000190921,"stimulus":"\n      <p>How sure are you?</p>\n      <p>Rate your confidence in your answer from 1 (pure guess) to 5 (very sure) by pressing the corresponding button.</p>\n     ","response":4,"image":"img/wheel_barrow_alternate.jpg","task":"confidence","old_or_new":"new","trial_type":"html-button-response","trial_index":64,"time_elapsed":103057,"internal_node_id":"0.0-3.0-1.30","subject_id":"5f9086a7968f33148ceafec4","study_id":"606233c0e42b980319b6a18e","session_id":"608834e866a843f8d27331bd"},{"rt":766.1899999948218,"stimulus":"img/pizza_alternate.jpg","response":"n","image":"img/pizza_alternate.jpg","old_or_new":"new","task":"recognition","trial_type":"image-keyboard-response","trial_index":65,"time_elapsed":104324,"internal_node_id":"0.0-3.0-0.31","subject_id":"5f9086a7968f33148ceafec4","study_id":"606233c0e42b980319b6a18e","session_id":"608834e866a843f8d27331bd","correct":true},{"rt":182.18000000342727,"stimulus":"\n      <p>How sure are you?</p>\n      <p>Rate your confidence in your answer from 1 (pure guess) to 5 (very sure) by pressing the corresponding button.</p>\n     ","response":4,"image":"img/pizza_alternate.jpg","task":"confidence","old_or_new":"new","trial_type":"html-button-response","trial_index":66,"time_elapsed":104507,"internal_node_id":"0.0-3.0-1.31","subject_id":"5f9086a7968f33148ceafec4","study_id":"606233c0e42b980319b6a18e","session_id":"608834e866a843f8d27331bd"},{"rt":797.4799999501556,"stimulus":"img/umbrella.jpg","response":"n","image":"img/umbrella.jpg","old_or_new":"old","task":"recognition","trial_type":"image-keyboard-response","trial_index":67,"time_elapsed":105806,"internal_node_id":"0.0-3.0-0.32","subject_id":"5f9086a7968f33148ceafec4","study_id":"606233c0e42b980319b6a18e","session_id":"608834e866a843f8d27331bd","correct":false},{"rt":134.98999999137595,"stimulus":"\n      <p>How sure are you?</p>\n      <p>Rate your confidence in your answer from 1 (pure guess) to 5 (very sure) by pressing the corresponding button.</p>\n     ","response":4,"image":"img/umbrella.jpg","task":"confidence","old_or_new":"old","trial_type":"html-button-response","trial_index":68,"time_elapsed":105942,"internal_node_id":"0.0-3.0-1.32","subject_id":"5f9086a7968f33148ceafec4","study_id":"606233c0e42b980319b6a18e","session_id":"608834e866a843f8d27331bd"},{"rt":596.1899999529123,"stimulus":"img/wheel_barrow.jpg","response":"y","image":"img/wheel_barrow.jpg","old_or_new":"old","task":"recognition","trial_type":"image-keyboard-response","trial_index":69,"time_elapsed":107039,"internal_node_id":"0.0-3.0-0.33","subject_id":"5f9086a7968f33148ceafec4","study_id":"606233c0e42b980319b6a18e","session_id":"608834e866a843f8d27331bd","correct":true},{"rt":154.04499997384846,"stimulus":"\n      <p>How sure are you?</p>\n      <p>Rate your confidence in your answer from 1 (pure guess) to 5 (very sure) by pressing the corresponding button.</p>\n     ","response":4,"image":"img/wheel_barrow.jpg","task":"confidence","old_or_new":"old","trial_type":"html-button-response","trial_index":70,"time_elapsed":107194,"internal_node_id":"0.0-3.0-1.33","subject_id":"5f9086a7968f33148ceafec4","study_id":"606233c0e42b980319b6a18e","session_id":"608834e866a843f8d27331bd"},{"rt":663.3699999656528,"stimulus":"img/sink_alternate.jpg","response":"n","image":"img/sink_alternate.jpg","old_or_new":"new","task":"recognition","trial_type":"image-keyboard-response","trial_index":71,"time_elapsed":108359,"internal_node_id":"0.0-3.0-0.34","subject_id":"5f9086a7968f33148ceafec4","study_id":"606233c0e42b980319b6a18e","session_id":"608834e866a843f8d27331bd","correct":true},{"rt":158.1749999895692,"stimulus":"\n      <p>How sure are you?</p>\n      <p>Rate your confidence in your answer from 1 (pure guess) to 5 (very sure) by pressing the corresponding button.</p>\n     ","response":4,"image":"img/sink_alternate.jpg","task":"confidence","old_or_new":"new","trial_type":"html-button-response","trial_index":72,"time_elapsed":108518,"internal_node_id":"0.0-3.0-1.34","subject_id":"5f9086a7968f33148ceafec4","study_id":"606233c0e42b980319b6a18e","session_id":"608834e866a843f8d27331bd"},{"rt":629.0900000021793,"stimulus":"img/trophy_alternate.jpg","response":"n","image":"img/trophy_alternate.jpg","old_or_new":"new","task":"recognition","trial_type":"image-keyboard-response","trial_index":73,"time_elapsed":109648,"internal_node_id":"0.0-3.0-0.35","subject_id":"5f9086a7968f33148ceafec4","study_id":"606233c0e42b980319b6a18e","session_id":"608834e866a843f8d27331bd","correct":true},{"rt":190.15500001842156,"stimulus":"\n      <p>How sure are you?</p>\n      <p>Rate your confidence in your answer from 1 (pure guess) to 5 (very sure) by pressing the corresponding button.</p>\n     ","response":4,"image":"img/trophy_alternate.jpg","task":"confidence","old_or_new":"new","trial_type":"html-button-response","trial_index":74,"time_elapsed":109839,"internal_node_id":"0.0-3.0-1.35","subject_id":"5f9086a7968f33148ceafec4","study_id":"606233c0e42b980319b6a18e","session_id":"608834e866a843f8d27331bd"},{"rt":638.4199999738485,"stimulus":"img/watch_alternate.jpg","response":"n","image":"img/watch_alternate.jpg","old_or_new":"new","task":"recognition","trial_type":"image-keyboard-response","trial_index":75,"time_elapsed":110979,"internal_node_id":"0.0-3.0-0.36","subject_id":"5f9086a7968f33148ceafec4","study_id":"606233c0e42b980319b6a18e","session_id":"608834e866a843f8d27331bd","correct":true},{"rt":123.11500002397224,"stimulus":"\n      <p>How sure are you?</p>\n      <p>Rate your confidence in your answer from 1 (pure guess) to 5 (very sure) by pressing the corresponding button.</p>\n     ","response":4,"image":"img/watch_alternate.jpg","task":"confidence","old_or_new":"new","trial_type":"html-button-response","trial_index":76,"time_elapsed":111103,"internal_node_id":"0.0-3.0-1.36","subject_id":"5f9086a7968f33148ceafec4","study_id":"606233c0e42b980319b6a18e","session_id":"608834e866a843f8d27331bd"},{"rt":692.9349999991246,"stimulus":"img/rolling_pin_alternate.jpg","response":"n","image":"img/rolling_pin_alternate.jpg","old_or_new":"new","task":"recognition","trial_type":"image-keyboard-response","trial_index":77,"time_elapsed":112297,"internal_node_id":"0.0-3.0-0.37","subject_id":"5f9086a7968f33148ceafec4","study_id":"606233c0e42b980319b6a18e","session_id":"608834e866a843f8d27331bd","correct":true},{"rt":245.1100000180304,"stimulus":"\n      <p>How sure are you?</p>\n      <p>Rate your confidence in your answer from 1 (pure guess) to 5 (very sure) by pressing the corresponding button.</p>\n     ","response":4,"image":"img/rolling_pin_alternate.jpg","task":"confidence","old_or_new":"new","trial_type":"html-button-response","trial_index":78,"time_elapsed":112543,"internal_node_id":"0.0-3.0-1.37","subject_id":"5f9086a7968f33148ceafec4","study_id":"606233c0e42b980319b6a18e","session_id":"608834e866a843f8d27331bd"},{"rt":963.8900000136346,"stimulus":"img/scissors.jpg","response":"n","image":"img/scissors.jpg","old_or_new":"old","task":"recognition","trial_type":"image-keyboard-response","trial_index":79,"time_elapsed":114009,"internal_node_id":"0.0-3.0-0.38","subject_id":"5f9086a7968f33148ceafec4","study_id":"606233c0e42b980319b6a18e","session_id":"608834e866a843f8d27331bd","correct":false},{"rt":316.42499996814877,"stimulus":"\n      <p>How sure are you?</p>\n      <p>Rate your confidence in your answer from 1 (pure guess) to 5 (very sure) by pressing the corresponding button.</p>\n     ","response":4,"image":"img/scissors.jpg","task":"confidence","old_or_new":"old","trial_type":"html-button-response","trial_index":80,"time_elapsed":114326,"internal_node_id":"0.0-3.0-1.38","subject_id":"5f9086a7968f33148ceafec4","study_id":"606233c0e42b980319b6a18e","session_id":"608834e866a843f8d27331bd"},{"rt":613.3249999838881,"stimulus":"img/shoe.jpg","response":"y","image":"img/shoe.jpg","old_or_new":"old","task":"recognition","trial_type":"image-keyboard-response","trial_index":81,"time_elapsed":115442,"internal_node_id":"0.0-3.0-0.39","subject_id":"5f9086a7968f33148ceafec4","study_id":"606233c0e42b980319b6a18e","session_id":"608834e866a843f8d27331bd","correct":true},{"rt":194.4299999740906,"stimulus":"\n      <p>How sure are you?</p>\n      <p>Rate your confidence in your answer from 1 (pure guess) to 5 (very sure) by pressing the corresponding button.</p>\n     ","response":4,"image":"img/shoe.jpg","task":"confidence","old_or_new":"old","trial_type":"html-button-response","trial_index":82,"time_elapsed":115637,"internal_node_id":"0.0-3.0-1.39","subject_id":"5f9086a7968f33148ceafec4","study_id":"606233c0e42b980319b6a18e","session_id":"608834e866a843f8d27331bd"},{"rt":668.7800000072457,"stimulus":"img/plate_alternate.jpg","response":"n","image":"img/plate_alternate.jpg","old_or_new":"new","task":"recognition","trial_type":"image-keyboard-response","trial_index":83,"time_elapsed":116808,"internal_node_id":"0.0-3.0-0.40","subject_id":"5f9086a7968f33148ceafec4","study_id":"606233c0e42b980319b6a18e","session_id":"608834e866a843f8d27331bd","correct":true},{"rt":156.589999969583,"stimulus":"\n      <p>How sure are you?</p>\n      <p>Rate your confidence in your answer from 1 (pure guess) to 5 (very sure) by pressing the corresponding button.</p>\n     ","response":4,"image":"img/plate_alternate.jpg","task":"confidence","old_or_new":"new","trial_type":"html-button-response","trial_index":84,"time_elapsed":116965,"internal_node_id":"0.0-3.0-1.40","subject_id":"5f9086a7968f33148ceafec4","study_id":"606233c0e42b980319b6a18e","session_id":"608834e866a843f8d27331bd"},{"rt":1657.8300000401214,"stimulus":"img/yarn_alternate.jpg","response":"n","image":"img/yarn_alternate.jpg","old_or_new":"new","task":"recognition","trial_type":"image-keyboard-response","trial_index":85,"time_elapsed":119125,"internal_node_id":"0.0-3.0-0.41","subject_id":"5f9086a7968f33148ceafec4","study_id":"606233c0e42b980319b6a18e","session_id":"608834e866a843f8d27331bd","correct":true},{"rt":150.78500000527129,"stimulus":"\n      <p>How sure are you?</p>\n      <p>Rate your confidence in your answer from 1 (pure guess) to 5 (very sure) by pressing the corresponding button.</p>\n     ","response":4,"image":"img/yarn_alternate.jpg","task":"confidence","old_or_new":"new","trial_type":"html-button-response","trial_index":86,"time_elapsed":119276,"internal_node_id":"0.0-3.0-1.41","subject_id":"5f9086a7968f33148ceafec4","study_id":"606233c0e42b980319b6a18e","session_id":"608834e866a843f8d27331bd"},{"rt":702.7799999923445,"stimulus":"img/toaster.jpg","response":"y","image":"img/toaster.jpg","old_or_new":"old","task":"recognition","trial_type":"image-keyboard-response","trial_index":87,"time_elapsed":120480,"internal_node_id":"0.0-3.0-0.42","subject_id":"5f9086a7968f33148ceafec4","study_id":"606233c0e42b980319b6a18e","session_id":"608834e866a843f8d27331bd","correct":true},{"rt":518.5199999832548,"stimulus":"\n      <p>How sure are you?</p>\n      <p>Rate your confidence in your answer from 1 (pure guess) to 5 (very sure) by pressing the corresponding button.</p>\n     ","response":4,"image":"img/toaster.jpg","task":"confidence","old_or_new":"old","trial_type":"html-button-response","trial_index":88,"time_elapsed":120999,"internal_node_id":"0.0-3.0-1.42","subject_id":"5f9086a7968f33148ceafec4","study_id":"606233c0e42b980319b6a18e","session_id":"608834e866a843f8d27331bd"},{"rt":741.1100000026636,"stimulus":"img/seashell.jpg","response":"y","image":"img/seashell.jpg","old_or_new":"old","task":"recognition","trial_type":"image-keyboard-response","trial_index":89,"time_elapsed":122242,"internal_node_id":"0.0-3.0-0.43","subject_id":"5f9086a7968f33148ceafec4","study_id":"606233c0e42b980319b6a18e","session_id":"608834e866a843f8d27331bd","correct":true},{"rt":210.58000001357868,"stimulus":"\n      <p>How sure are you?</p>\n      <p>Rate your confidence in your answer from 1 (pure guess) to 5 (very sure) by pressing the corresponding button.</p>\n     ","response":4,"image":"img/seashell.jpg","task":"confidence","old_or_new":"old","trial_type":"html-button-response","trial_index":90,"time_elapsed":122453,"internal_node_id":"0.0-3.0-1.43","subject_id":"5f9086a7968f33148ceafec4","study_id":"606233c0e42b980319b6a18e","session_id":"608834e866a843f8d27331bd"},{"rt":638.1999999866821,"stimulus":"img/pizza.jpg","response":"y","image":"img/pizza.jpg","old_or_new":"old","task":"recognition","trial_type":"image-keyboard-response","trial_index":91,"time_elapsed":123593,"internal_node_id":"0.0-3.0-0.44","subject_id":"5f9086a7968f33148ceafec4","study_id":"606233c0e42b980319b6a18e","session_id":"608834e866a843f8d27331bd","correct":true},{"rt":235.54000002332032,"stimulus":"\n      <p>How sure are you?</p>\n      <p>Rate your confidence in your answer from 1 (pure guess) to 5 (very sure) by pressing the corresponding button.</p>\n     ","response":4,"image":"img/pizza.jpg","task":"confidence","old_or_new":"old","trial_type":"html-button-response","trial_index":92,"time_elapsed":123829,"internal_node_id":"0.0-3.0-1.44","subject_id":"5f9086a7968f33148ceafec4","study_id":"606233c0e42b980319b6a18e","session_id":"608834e866a843f8d27331bd"},{"rt":668.2000000146218,"stimulus":"img/yarn.jpg","response":"n","image":"img/yarn.jpg","old_or_new":"old","task":"recognition","trial_type":"image-keyboard-response","trial_index":93,"time_elapsed":125000,"internal_node_id":"0.0-3.0-0.45","subject_id":"5f9086a7968f33148ceafec4","study_id":"606233c0e42b980319b6a18e","session_id":"608834e866a843f8d27331bd","correct":false},{"rt":7471.864999970421,"stimulus":"\n      <p>How sure are you?</p>\n      <p>Rate your confidence in your answer from 1 (pure guess) to 5 (very sure) by pressing the corresponding button.</p>\n     ","response":0,"image":"img/yarn.jpg","task":"confidence","old_or_new":"old","trial_type":"html-button-response","trial_index":94,"time_elapsed":132472,"internal_node_id":"0.0-3.0-1.45","subject_id":"5f9086a7968f33148ceafec4","study_id":"606233c0e42b980319b6a18e","session_id":"608834e866a843f8d27331bd"},{"rt":1311.4750000531785,"stimulus":"img/shirt_alternate.jpg","response":"n","image":"img/shirt_alternate.jpg","old_or_new":"new","task":"recognition","trial_type":"image-keyboard-response","trial_index":95,"time_elapsed":134286,"internal_node_id":"0.0-3.0-0.46","subject_id":"5f9086a7968f33148ceafec4","study_id":"606233c0e42b980319b6a18e","session_id":"608834e866a843f8d27331bd","correct":true},{"rt":765.0400000275113,"stimulus":"\n      <p>How sure are you?</p>\n      <p>Rate your confidence in your answer from 1 (pure guess) to 5 (very sure) by pressing the corresponding button.</p>\n     ","response":4,"image":"img/shirt_alternate.jpg","task":"confidence","old_or_new":"new","trial_type":"html-button-response","trial_index":96,"time_elapsed":135051,"internal_node_id":"0.0-3.0-1.46","subject_id":"5f9086a7968f33148ceafec4","study_id":"606233c0e42b980319b6a18e","session_id":"608834e866a843f8d27331bd"},{"rt":1071.265000035055,"stimulus":"img/parfait.jpg","response":"y","image":"img/parfait.jpg","old_or_new":"old","task":"recognition","trial_type":"image-keyboard-response","trial_index":97,"time_elapsed":136624,"internal_node_id":"0.0-3.0-0.47","subject_id":"5f9086a7968f33148ceafec4","study_id":"606233c0e42b980319b6a18e","session_id":"608834e866a843f8d27331bd","correct":true},{"rt":345.02000000793487,"stimulus":"\n      <p>How sure are you?</p>\n      <p>Rate your confidence in your answer from 1 (pure guess) to 5 (very sure) by pressing the corresponding button.</p>\n     ","response":4,"image":"img/parfait.jpg","task":"confidence","old_or_new":"old","trial_type":"html-button-response","trial_index":98,"time_elapsed":136970,"internal_node_id":"0.0-3.0-1.47","subject_id":"5f9086a7968f33148ceafec4","study_id":"606233c0e42b980319b6a18e","session_id":"608834e866a843f8d27331bd"}]