[{"success":true,"timeout":false,"failed_images":[],"failed_audio":[],"failed_video":[],"trial_type":"preload","trial_index":0,"time_elapsed":7,"internal_node_id":"0.0-0.0","subject_id":"5e140712617219a4466291ba","study_id":"607de2837874a824e2e8c6ec","session_id":"60885e46d2d23375a7d73dba"},{"rt":15047.535000019707,"stimulus":"\n      <div style=\"width:800px; text-align: left;\">\n        <p>Welcome to day 2 of the experiment! Thanks for coming back.</p>\n        <p>You will be presented with a series of images. Images will appear one at a time.</p>\n        <p>Each image will remain on the screen until you press either <span style=\"font-weight: bold;\">\"y\" to indicate you have seen the \n        exact same photo the day before or \"n\" to indicate you have not seen the exact same photo the day before.</span></p>\n        <p>After you answer yes (\"y\") or no (\"n\"), you will then be prompted to rate your certainty on a scale of\n        1 (pure guess) to 5 (very sure).</p>\n      </div>\n    ","response":0,"trial_type":"html-button-response","trial_index":1,"time_elapsed":15056,"internal_node_id":"0.0-1.0","subject_id":"5e140712617219a4466291ba","study_id":"607de2837874a824e2e8c6ec","session_id":"60885e46d2d23375a7d73dba"},{"success":true,"trial_type":"fullscreen","trial_index":2,"time_elapsed":25293,"internal_node_id":"0.0-2.0","subject_id":"5e140712617219a4466291ba","study_id":"607de2837874a824e2e8c6ec","session_id":"60885e46d2d23375a7d73dba"},{"rt":156785.2600000333,"stimulus":"img/coin.jpg","response":"y","image":"img/coin.jpg","old_or_new":"old","task":"recognition","trial_type":"image-keyboard-response","trial_index":3,"time_elapsed":182082,"internal_node_id":"0.0-3.0-0.0","subject_id":"5e140712617219a4466291ba","study_id":"607de2837874a824e2e8c6ec","session_id":"60885e46d2d23375a7d73dba","correct":true},{"rt":5665.720000048168,"stimulus":"\n      <p>How sure are you?</p>\n      <p>Rate your confidence in your answer from 1 (pure guess) to 5 (very sure) by pressing the corresponding button.</p>\n     ","response":4,"image":"img/coin.jpg","task":"confidence","old_or_new":"old","trial_type":"html-button-response","trial_index":4,"time_elapsed":187751,"internal_node_id":"0.0-3.0-1.0","subject_id":"5e140712617219a4466291ba","study_id":"607de2837874a824e2e8c6ec","session_id":"60885e46d2d23375a7d73dba"},{"rt":1883.3299999823794,"stimulus":"img/helmet_alternate.jpg","response":"y","image":"img/helmet_alternate.jpg","old_or_new":"new","task":"recognition","trial_type":"image-keyboard-response","trial_index":5,"time_elapsed":190148,"internal_node_id":"0.0-3.0-0.1","subject_id":"5e140712617219a4466291ba","study_id":"607de2837874a824e2e8c6ec","session_id":"60885e46d2d23375a7d73dba","correct":false},{"rt":1418.6599999666214,"stimulus":"\n      <p>How sure are you?</p>\n      <p>Rate your confidence in your answer from 1 (pure guess) to 5 (very sure) by pressing the corresponding button.</p>\n     ","response":4,"image":"img/helmet_alternate.jpg","task":"confidence","old_or_new":"new","trial_type":"html-button-response","trial_index":6,"time_elapsed":191569,"internal_node_id":"0.0-3.0-1.1","subject_id":"5e140712617219a4466291ba","study_id":"607de2837874a824e2e8c6ec","session_id":"60885e46d2d23375a7d73dba"},{"rt":1382.6050000498071,"stimulus":"img/drum_alternate.jpg","response":"n","image":"img/drum_alternate.jpg","old_or_new":"new","task":"recognition","trial_type":"image-keyboard-response","trial_index":7,"time_elapsed":193463,"internal_node_id":"0.0-3.0-0.2","subject_id":"5e140712617219a4466291ba","study_id":"607de2837874a824e2e8c6ec","session_id":"60885e46d2d23375a7d73dba","correct":true},{"rt":1640.1199999963865,"stimulus":"\n      <p>How sure are you?</p>\n      <p>Rate your confidence in your answer from 1 (pure guess) to 5 (very sure) by pressing the corresponding button.</p>\n     ","response":0,"image":"img/drum_alternate.jpg","task":"confidence","old_or_new":"new","trial_type":"html-button-response","trial_index":8,"time_elapsed":195105,"internal_node_id":"0.0-3.0-1.2","subject_id":"5e140712617219a4466291ba","study_id":"607de2837874a824e2e8c6ec","session_id":"60885e46d2d23375a7d73dba"},{"rt":2113.5899999644607,"stimulus":"img/dryer.jpg","response":"y","image":"img/dryer.jpg","old_or_new":"old","task":"recognition","trial_type":"image-keyboard-response","trial_index":9,"time_elapsed":197733,"internal_node_id":"0.0-3.0-0.3","subject_id":"5e140712617219a4466291ba","study_id":"607de2837874a824e2e8c6ec","session_id":"60885e46d2d23375a7d73dba","correct":true},{"rt":1557.3699999367818,"stimulus":"\n      <p>How sure are you?</p>\n      <p>Rate your confidence in your answer from 1 (pure guess) to 5 (very sure) by pressing the corresponding button.</p>\n     ","response":4,"image":"img/dryer.jpg","task":"confidence","old_or_new":"old","trial_type":"html-button-response","trial_index":10,"time_elapsed":199292,"internal_node_id":"0.0-3.0-1.3","subject_id":"5e140712617219a4466291ba","study_id":"607de2837874a824e2e8c6ec","session_id":"60885e46d2d23375a7d73dba"},{"rt":1767.6050000591204,"stimulus":"img/camera.jpg","response":"y","image":"img/camera.jpg","old_or_new":"old","task":"recognition","trial_type":"image-keyboard-response","trial_index":11,"time_elapsed":201572,"internal_node_id":"0.0-3.0-0.4","subject_id":"5e140712617219a4466291ba","study_id":"607de2837874a824e2e8c6ec","session_id":"60885e46d2d23375a7d73dba","correct":true},{"rt":1044.6350000565872,"stimulus":"\n      <p>How sure are you?</p>\n      <p>Rate your confidence in your answer from 1 (pure guess) to 5 (very sure) by pressing the corresponding button.</p>\n     ","response":4,"image":"img/camera.jpg","task":"confidence","old_or_new":"old","trial_type":"html-button-response","trial_index":12,"time_elapsed":202619,"internal_node_id":"0.0-3.0-1.4","subject_id":"5e140712617219a4466291ba","study_id":"607de2837874a824e2e8c6ec","session_id":"60885e46d2d23375a7d73dba"},{"rt":1805.54500001017,"stimulus":"img/grapes.jpg","response":"y","image":"img/grapes.jpg","old_or_new":"old","task":"recognition","trial_type":"image-keyboard-response","trial_index":13,"time_elapsed":204936,"internal_node_id":"0.0-3.0-0.5","subject_id":"5e140712617219a4466291ba","study_id":"607de2837874a824e2e8c6ec","session_id":"60885e46d2d23375a7d73dba","correct":true},{"rt":1743.250000057742,"stimulus":"\n      <p>How sure are you?</p>\n      <p>Rate your confidence in your answer from 1 (pure guess) to 5 (very sure) by pressing the corresponding button.</p>\n     ","response":4,"image":"img/grapes.jpg","task":"confidence","old_or_new":"old","trial_type":"html-button-response","trial_index":14,"time_elapsed":206681,"internal_node_id":"0.0-3.0-1.5","subject_id":"5e140712617219a4466291ba","study_id":"607de2837874a824e2e8c6ec","session_id":"60885e46d2d23375a7d73dba"},{"rt":2515.00000001397,"stimulus":"img/glasses_alternate.jpg","response":"y","image":"img/glasses_alternate.jpg","old_or_new":"new","task":"recognition","trial_type":"image-keyboard-response","trial_index":15,"time_elapsed":209710,"internal_node_id":"0.0-3.0-0.6","subject_id":"5e140712617219a4466291ba","study_id":"607de2837874a824e2e8c6ec","session_id":"60885e46d2d23375a7d73dba","correct":false},{"rt":2662.765000015497,"stimulus":"\n      <p>How sure are you?</p>\n      <p>Rate your confidence in your answer from 1 (pure guess) to 5 (very sure) by pressing the corresponding button.</p>\n     ","response":2,"image":"img/glasses_alternate.jpg","task":"confidence","old_or_new":"new","trial_type":"html-button-response","trial_index":16,"time_elapsed":212374,"internal_node_id":"0.0-3.0-1.6","subject_id":"5e140712617219a4466291ba","study_id":"607de2837874a824e2e8c6ec","session_id":"60885e46d2d23375a7d73dba"},{"rt":1443.669999949634,"stimulus":"img/calculator.jpg","response":"y","image":"img/calculator.jpg","old_or_new":"old","task":"recognition","trial_type":"image-keyboard-response","trial_index":17,"time_elapsed":214324,"internal_node_id":"0.0-3.0-0.7","subject_id":"5e140712617219a4466291ba","study_id":"607de2837874a824e2e8c6ec","session_id":"60885e46d2d23375a7d73dba","correct":true},{"rt":1509.56999999471,"stimulus":"\n      <p>How sure are you?</p>\n      <p>Rate your confidence in your answer from 1 (pure guess) to 5 (very sure) by pressing the corresponding button.</p>\n     ","response":4,"image":"img/calculator.jpg","task":"confidence","old_or_new":"old","trial_type":"html-button-response","trial_index":18,"time_elapsed":215836,"internal_node_id":"0.0-3.0-1.7","subject_id":"5e140712617219a4466291ba","study_id":"607de2837874a824e2e8c6ec","session_id":"60885e46d2d23375a7d73dba"},{"rt":3065.9499999601394,"stimulus":"img/backpack.jpg","response":"y","image":"img/backpack.jpg","old_or_new":"old","task":"recognition","trial_type":"image-keyboard-response","trial_index":19,"time_elapsed":219405,"internal_node_id":"0.0-3.0-0.8","subject_id":"5e140712617219a4466291ba","study_id":"607de2837874a824e2e8c6ec","session_id":"60885e46d2d23375a7d73dba","correct":true},{"rt":1354.6499999938533,"stimulus":"\n      <p>How sure are you?</p>\n      <p>Rate your confidence in your answer from 1 (pure guess) to 5 (very sure) by pressing the corresponding button.</p>\n     ","response":4,"image":"img/backpack.jpg","task":"confidence","old_or_new":"old","trial_type":"html-button-response","trial_index":20,"time_elapsed":220762,"internal_node_id":"0.0-3.0-1.8","subject_id":"5e140712617219a4466291ba","study_id":"607de2837874a824e2e8c6ec","session_id":"60885e46d2d23375a7d73dba"},{"rt":1403.6299999570474,"stimulus":"img/leaf_alternate.jpg","response":"n","image":"img/leaf_alternate.jpg","old_or_new":"new","task":"recognition","trial_type":"image-keyboard-response","trial_index":21,"time_elapsed":222672,"internal_node_id":"0.0-3.0-0.9","subject_id":"5e140712617219a4466291ba","study_id":"607de2837874a824e2e8c6ec","session_id":"60885e46d2d23375a7d73dba","correct":true},{"rt":1499.9700000043958,"stimulus":"\n      <p>How sure are you?</p>\n      <p>Rate your confidence in your answer from 1 (pure guess) to 5 (very sure) by pressing the corresponding button.</p>\n     ","response":0,"image":"img/leaf_alternate.jpg","task":"confidence","old_or_new":"new","trial_type":"html-button-response","trial_index":22,"time_elapsed":224174,"internal_node_id":"0.0-3.0-1.9","subject_id":"5e140712617219a4466291ba","study_id":"607de2837874a824e2e8c6ec","session_id":"60885e46d2d23375a7d73dba"},{"rt":1544.0050000324845,"stimulus":"img/bowl.jpg","response":"y","image":"img/bowl.jpg","old_or_new":"old","task":"recognition","trial_type":"image-keyboard-response","trial_index":23,"time_elapsed":226234,"internal_node_id":"0.0-3.0-0.10","subject_id":"5e140712617219a4466291ba","study_id":"607de2837874a824e2e8c6ec","session_id":"60885e46d2d23375a7d73dba","correct":true},{"rt":1632.3750000447035,"stimulus":"\n      <p>How sure are you?</p>\n      <p>Rate your confidence in your answer from 1 (pure guess) to 5 (very sure) by pressing the corresponding button.</p>\n     ","response":4,"image":"img/bowl.jpg","task":"confidence","old_or_new":"old","trial_type":"html-button-response","trial_index":24,"time_elapsed":227868,"internal_node_id":"0.0-3.0-1.10","subject_id":"5e140712617219a4466291ba","study_id":"607de2837874a824e2e8c6ec","session_id":"60885e46d2d23375a7d73dba"},{"rt":1494.1650000400841,"stimulus":"img/fan_alternate.jpg","response":"n","image":"img/fan_alternate.jpg","old_or_new":"new","task":"recognition","trial_type":"image-keyboard-response","trial_index":25,"time_elapsed":229867,"internal_node_id":"0.0-3.0-0.11","subject_id":"5e140712617219a4466291ba","study_id":"607de2837874a824e2e8c6ec","session_id":"60885e46d2d23375a7d73dba","correct":true},{"rt":1644.2749999696389,"stimulus":"\n      <p>How sure are you?</p>\n      <p>Rate your confidence in your answer from 1 (pure guess) to 5 (very sure) by pressing the corresponding button.</p>\n     ","response":0,"image":"img/fan_alternate.jpg","task":"confidence","old_or_new":"new","trial_type":"html-button-response","trial_index":26,"time_elapsed":231513,"internal_node_id":"0.0-3.0-1.11","subject_id":"5e140712617219a4466291ba","study_id":"607de2837874a824e2e8c6ec","session_id":"60885e46d2d23375a7d73dba"},{"rt":1930.750000057742,"stimulus":"img/hairbrush_alternate.jpg","response":"n","image":"img/hairbrush_alternate.jpg","old_or_new":"new","task":"recognition","trial_type":"image-keyboard-response","trial_index":27,"time_elapsed":233961,"internal_node_id":"0.0-3.0-0.12","subject_id":"5e140712617219a4466291ba","study_id":"607de2837874a824e2e8c6ec","session_id":"60885e46d2d23375a7d73dba","correct":true},{"rt":1828.1049999641255,"stimulus":"\n      <p>How sure are you?</p>\n      <p>Rate your confidence in your answer from 1 (pure guess) to 5 (very sure) by pressing the corresponding button.</p>\n     ","response":2,"image":"img/hairbrush_alternate.jpg","task":"confidence","old_or_new":"new","trial_type":"html-button-response","trial_index":28,"time_elapsed":235791,"internal_node_id":"0.0-3.0-1.12","subject_id":"5e140712617219a4466291ba","study_id":"607de2837874a824e2e8c6ec","session_id":"60885e46d2d23375a7d73dba"},{"rt":1419.0500000258908,"stimulus":"img/globe.jpg","response":"y","image":"img/globe.jpg","old_or_new":"old","task":"recognition","trial_type":"image-keyboard-response","trial_index":29,"time_elapsed":237727,"internal_node_id":"0.0-3.0-0.13","subject_id":"5e140712617219a4466291ba","study_id":"607de2837874a824e2e8c6ec","session_id":"60885e46d2d23375a7d73dba","correct":true},{"rt":1198.355000000447,"stimulus":"\n      <p>How sure are you?</p>\n      <p>Rate your confidence in your answer from 1 (pure guess) to 5 (very sure) by pressing the corresponding button.</p>\n     ","response":4,"image":"img/globe.jpg","task":"confidence","old_or_new":"old","trial_type":"html-button-response","trial_index":30,"time_elapsed":238927,"internal_node_id":"0.0-3.0-1.13","subject_id":"5e140712617219a4466291ba","study_id":"607de2837874a824e2e8c6ec","session_id":"60885e46d2d23375a7d73dba"},{"rt":1372.5000000558794,"stimulus":"img/basket_alternate.jpg","response":"n","image":"img/basket_alternate.jpg","old_or_new":"new","task":"recognition","trial_type":"image-keyboard-response","trial_index":31,"time_elapsed":240813,"internal_node_id":"0.0-3.0-0.14","subject_id":"5e140712617219a4466291ba","study_id":"607de2837874a824e2e8c6ec","session_id":"60885e46d2d23375a7d73dba","correct":true},{"rt":3225.4499999107793,"stimulus":"\n      <p>How sure are you?</p>\n      <p>Rate your confidence in your answer from 1 (pure guess) to 5 (very sure) by pressing the corresponding button.</p>\n     ","response":4,"image":"img/basket_alternate.jpg","task":"confidence","old_or_new":"new","trial_type":"html-button-response","trial_index":32,"time_elapsed":244041,"internal_node_id":"0.0-3.0-1.14","subject_id":"5e140712617219a4466291ba","study_id":"607de2837874a824e2e8c6ec","session_id":"60885e46d2d23375a7d73dba"},{"rt":1380.6900000199676,"stimulus":"img/ladder.jpg","response":"y","image":"img/ladder.jpg","old_or_new":"old","task":"recognition","trial_type":"image-keyboard-response","trial_index":33,"time_elapsed":245934,"internal_node_id":"0.0-3.0-0.15","subject_id":"5e140712617219a4466291ba","study_id":"607de2837874a824e2e8c6ec","session_id":"60885e46d2d23375a7d73dba","correct":true},{"rt":940.9650000743568,"stimulus":"\n      <p>How sure are you?</p>\n      <p>Rate your confidence in your answer from 1 (pure guess) to 5 (very sure) by pressing the corresponding button.</p>\n     ","response":4,"image":"img/ladder.jpg","task":"confidence","old_or_new":"old","trial_type":"html-button-response","trial_index":34,"time_elapsed":246877,"internal_node_id":"0.0-3.0-1.15","subject_id":"5e140712617219a4466291ba","study_id":"607de2837874a824e2e8c6ec","session_id":"60885e46d2d23375a7d73dba"},{"rt":1391.71500003431,"stimulus":"img/lightbulb_alternate.jpg","response":"n","image":"img/lightbulb_alternate.jpg","old_or_new":"new","task":"recognition","trial_type":"image-keyboard-response","trial_index":35,"time_elapsed":248771,"internal_node_id":"0.0-3.0-0.16","subject_id":"5e140712617219a4466291ba","study_id":"607de2837874a824e2e8c6ec","session_id":"60885e46d2d23375a7d73dba","correct":true},{"rt":1334.4199999701232,"stimulus":"\n      <p>How sure are you?</p>\n      <p>Rate your confidence in your answer from 1 (pure guess) to 5 (very sure) by pressing the corresponding button.</p>\n     ","response":4,"image":"img/lightbulb_alternate.jpg","task":"confidence","old_or_new":"new","trial_type":"html-button-response","trial_index":36,"time_elapsed":250108,"internal_node_id":"0.0-3.0-1.16","subject_id":"5e140712617219a4466291ba","study_id":"607de2837874a824e2e8c6ec","session_id":"60885e46d2d23375a7d73dba"},{"rt":1609.7849999787286,"stimulus":"img/camera_alternate.jpg","response":"n","image":"img/camera_alternate.jpg","old_or_new":"new","task":"recognition","trial_type":"image-keyboard-response","trial_index":37,"time_elapsed":252224,"internal_node_id":"0.0-3.0-0.17","subject_id":"5e140712617219a4466291ba","study_id":"607de2837874a824e2e8c6ec","session_id":"60885e46d2d23375a7d73dba","correct":true},{"rt":1193.8199999276549,"stimulus":"\n      <p>How sure are you?</p>\n      <p>Rate your confidence in your answer from 1 (pure guess) to 5 (very sure) by pressing the corresponding button.</p>\n     ","response":4,"image":"img/camera_alternate.jpg","task":"confidence","old_or_new":"new","trial_type":"html-button-response","trial_index":38,"time_elapsed":253420,"internal_node_id":"0.0-3.0-1.17","subject_id":"5e140712617219a4466291ba","study_id":"607de2837874a824e2e8c6ec","session_id":"60885e46d2d23375a7d73dba"},{"rt":1371.8249999219552,"stimulus":"img/apple.jpg","response":"y","image":"img/apple.jpg","old_or_new":"old","task":"recognition","trial_type":"image-keyboard-response","trial_index":39,"time_elapsed":255298,"internal_node_id":"0.0-3.0-0.18","subject_id":"5e140712617219a4466291ba","study_id":"607de2837874a824e2e8c6ec","session_id":"60885e46d2d23375a7d73dba","correct":true},{"rt":928.234999999404,"stimulus":"\n      <p>How sure are you?</p>\n      <p>Rate your confidence in your answer from 1 (pure guess) to 5 (very sure) by pressing the corresponding button.</p>\n     ","response":4,"image":"img/apple.jpg","task":"confidence","old_or_new":"old","trial_type":"html-button-response","trial_index":40,"time_elapsed":256228,"internal_node_id":"0.0-3.0-1.18","subject_id":"5e140712617219a4466291ba","study_id":"607de2837874a824e2e8c6ec","session_id":"60885e46d2d23375a7d73dba"},{"rt":1273.3050000388175,"stimulus":"img/hourglass.jpg","response":"y","image":"img/hourglass.jpg","old_or_new":"old","task":"recognition","trial_type":"image-keyboard-response","trial_index":41,"time_elapsed":258017,"internal_node_id":"0.0-3.0-0.19","subject_id":"5e140712617219a4466291ba","study_id":"607de2837874a824e2e8c6ec","session_id":"60885e46d2d23375a7d73dba","correct":true},{"rt":1100.5750000476837,"stimulus":"\n      <p>How sure are you?</p>\n      <p>Rate your confidence in your answer from 1 (pure guess) to 5 (very sure) by pressing the corresponding button.</p>\n     ","response":4,"image":"img/hourglass.jpg","task":"confidence","old_or_new":"old","trial_type":"html-button-response","trial_index":42,"time_elapsed":259119,"internal_node_id":"0.0-3.0-1.19","subject_id":"5e140712617219a4466291ba","study_id":"607de2837874a824e2e8c6ec","session_id":"60885e46d2d23375a7d73dba"},{"rt":998.0600000126287,"stimulus":"img/chair.jpg","response":"y","image":"img/chair.jpg","old_or_new":"old","task":"recognition","trial_type":"image-keyboard-response","trial_index":43,"time_elapsed":260631,"internal_node_id":"0.0-3.0-0.20","subject_id":"5e140712617219a4466291ba","study_id":"607de2837874a824e2e8c6ec","session_id":"60885e46d2d23375a7d73dba","correct":true},{"rt":693.2350000133738,"stimulus":"\n      <p>How sure are you?</p>\n      <p>Rate your confidence in your answer from 1 (pure guess) to 5 (very sure) by pressing the corresponding button.</p>\n     ","response":4,"image":"img/chair.jpg","task":"confidence","old_or_new":"old","trial_type":"html-button-response","trial_index":44,"time_elapsed":261326,"internal_node_id":"0.0-3.0-1.20","subject_id":"5e140712617219a4466291ba","study_id":"607de2837874a824e2e8c6ec","session_id":"60885e46d2d23375a7d73dba"},{"rt":961.0549999633804,"stimulus":"img/hat_alternate.jpg","response":"n","image":"img/hat_alternate.jpg","old_or_new":"new","task":"recognition","trial_type":"image-keyboard-response","trial_index":45,"time_elapsed":262791,"internal_node_id":"0.0-3.0-0.21","subject_id":"5e140712617219a4466291ba","study_id":"607de2837874a824e2e8c6ec","session_id":"60885e46d2d23375a7d73dba","correct":true},{"rt":996.2850000010803,"stimulus":"\n      <p>How sure are you?</p>\n      <p>Rate your confidence in your answer from 1 (pure guess) to 5 (very sure) by pressing the corresponding button.</p>\n     ","response":4,"image":"img/hat_alternate.jpg","task":"confidence","old_or_new":"new","trial_type":"html-button-response","trial_index":46,"time_elapsed":263790,"internal_node_id":"0.0-3.0-1.21","subject_id":"5e140712617219a4466291ba","study_id":"607de2837874a824e2e8c6ec","session_id":"60885e46d2d23375a7d73dba"},{"rt":1632.274999981746,"stimulus":"img/folder.jpg","response":"y","image":"img/folder.jpg","old_or_new":"old","task":"recognition","trial_type":"image-keyboard-response","trial_index":47,"time_elapsed":265926,"internal_node_id":"0.0-3.0-0.22","subject_id":"5e140712617219a4466291ba","study_id":"607de2837874a824e2e8c6ec","session_id":"60885e46d2d23375a7d73dba","correct":true},{"rt":1008.7850000709295,"stimulus":"\n      <p>How sure are you?</p>\n      <p>Rate your confidence in your answer from 1 (pure guess) to 5 (very sure) by pressing the corresponding button.</p>\n     ","response":4,"image":"img/folder.jpg","task":"confidence","old_or_new":"old","trial_type":"html-button-response","trial_index":48,"time_elapsed":266937,"internal_node_id":"0.0-3.0-1.22","subject_id":"5e140712617219a4466291ba","study_id":"607de2837874a824e2e8c6ec","session_id":"60885e46d2d23375a7d73dba"},{"rt":1161.725000012666,"stimulus":"img/ladder_alternate.jpg","response":"n","image":"img/ladder_alternate.jpg","old_or_new":"new","task":"recognition","trial_type":"image-keyboard-response","trial_index":49,"time_elapsed":268608,"internal_node_id":"0.0-3.0-0.23","subject_id":"5e140712617219a4466291ba","study_id":"607de2837874a824e2e8c6ec","session_id":"60885e46d2d23375a7d73dba","correct":true},{"rt":977.794999955222,"stimulus":"\n      <p>How sure are you?</p>\n      <p>Rate your confidence in your answer from 1 (pure guess) to 5 (very sure) by pressing the corresponding button.</p>\n     ","response":4,"image":"img/ladder_alternate.jpg","task":"confidence","old_or_new":"new","trial_type":"html-button-response","trial_index":50,"time_elapsed":269588,"internal_node_id":"0.0-3.0-1.23","subject_id":"5e140712617219a4466291ba","study_id":"607de2837874a824e2e8c6ec","session_id":"60885e46d2d23375a7d73dba"},{"rt":1383.655000012368,"stimulus":"img/hairbrush.jpg","response":"y","image":"img/hairbrush.jpg","old_or_new":"old","task":"recognition","trial_type":"image-keyboard-response","trial_index":51,"time_elapsed":271500,"internal_node_id":"0.0-3.0-0.24","subject_id":"5e140712617219a4466291ba","study_id":"607de2837874a824e2e8c6ec","session_id":"60885e46d2d23375a7d73dba","correct":true},{"rt":880.4900000104681,"stimulus":"\n      <p>How sure are you?</p>\n      <p>Rate your confidence in your answer from 1 (pure guess) to 5 (very sure) by pressing the corresponding button.</p>\n     ","response":4,"image":"img/hairbrush.jpg","task":"confidence","old_or_new":"old","trial_type":"html-button-response","trial_index":52,"time_elapsed":272383,"internal_node_id":"0.0-3.0-1.24","subject_id":"5e140712617219a4466291ba","study_id":"607de2837874a824e2e8c6ec","session_id":"60885e46d2d23375a7d73dba"},{"rt":1123.9550000755116,"stimulus":"img/grapes_alternate.jpg","response":"y","image":"img/grapes_alternate.jpg","old_or_new":"new","task":"recognition","trial_type":"image-keyboard-response","trial_index":53,"time_elapsed":274019,"internal_node_id":"0.0-3.0-0.25","subject_id":"5e140712617219a4466291ba","study_id":"607de2837874a824e2e8c6ec","session_id":"60885e46d2d23375a7d73dba","correct":false},{"rt":600.8950000395998,"stimulus":"\n      <p>How sure are you?</p>\n      <p>Rate your confidence in your answer from 1 (pure guess) to 5 (very sure) by pressing the corresponding button.</p>\n     ","response":4,"image":"img/grapes_alternate.jpg","task":"confidence","old_or_new":"new","trial_type":"html-button-response","trial_index":54,"time_elapsed":274623,"internal_node_id":"0.0-3.0-1.25","subject_id":"5e140712617219a4466291ba","study_id":"607de2837874a824e2e8c6ec","session_id":"60885e46d2d23375a7d73dba"},{"rt":1108.269999967888,"stimulus":"img/hair_tie_alternate.jpg","response":"n","image":"img/hair_tie_alternate.jpg","old_or_new":"new","task":"recognition","trial_type":"image-keyboard-response","trial_index":55,"time_elapsed":276233,"internal_node_id":"0.0-3.0-0.26","subject_id":"5e140712617219a4466291ba","study_id":"607de2837874a824e2e8c6ec","session_id":"60885e46d2d23375a7d73dba","correct":true},{"rt":646.9599999254569,"stimulus":"\n      <p>How sure are you?</p>\n      <p>Rate your confidence in your answer from 1 (pure guess) to 5 (very sure) by pressing the corresponding button.</p>\n     ","response":4,"image":"img/hair_tie_alternate.jpg","task":"confidence","old_or_new":"new","trial_type":"html-button-response","trial_index":56,"time_elapsed":276883,"internal_node_id":"0.0-3.0-1.26","subject_id":"5e140712617219a4466291ba","study_id":"607de2837874a824e2e8c6ec","session_id":"60885e46d2d23375a7d73dba"},{"rt":1601.7850000644103,"stimulus":"img/key_alternate.jpg","response":"n","image":"img/key_alternate.jpg","old_or_new":"new","task":"recognition","trial_type":"image-keyboard-response","trial_index":57,"time_elapsed":278999,"internal_node_id":"0.0-3.0-0.27","subject_id":"5e140712617219a4466291ba","study_id":"607de2837874a824e2e8c6ec","session_id":"60885e46d2d23375a7d73dba","correct":true},{"rt":568.9550000242889,"stimulus":"\n      <p>How sure are you?</p>\n      <p>Rate your confidence in your answer from 1 (pure guess) to 5 (very sure) by pressing the corresponding button.</p>\n     ","response":4,"image":"img/key_alternate.jpg","task":"confidence","old_or_new":"new","trial_type":"html-button-response","trial_index":58,"time_elapsed":279570,"internal_node_id":"0.0-3.0-1.27","subject_id":"5e140712617219a4466291ba","study_id":"607de2837874a824e2e8c6ec","session_id":"60885e46d2d23375a7d73dba"},{"rt":1011.8200000142679,"stimulus":"img/key.jpg","response":"y","image":"img/key.jpg","old_or_new":"old","task":"recognition","trial_type":"image-keyboard-response","trial_index":59,"time_elapsed":281088,"internal_node_id":"0.0-3.0-0.28","subject_id":"5e140712617219a4466291ba","study_id":"607de2837874a824e2e8c6ec","session_id":"60885e46d2d23375a7d73dba","correct":true},{"rt":664.2549999523908,"stimulus":"\n      <p>How sure are you?</p>\n      <p>Rate your confidence in your answer from 1 (pure guess) to 5 (very sure) by pressing the corresponding button.</p>\n     ","response":4,"image":"img/key.jpg","task":"confidence","old_or_new":"old","trial_type":"html-button-response","trial_index":60,"time_elapsed":281755,"internal_node_id":"0.0-3.0-1.28","subject_id":"5e140712617219a4466291ba","study_id":"607de2837874a824e2e8c6ec","session_id":"60885e46d2d23375a7d73dba"},{"rt":1254.5699999900535,"stimulus":"img/globe_alternate.jpg","response":"n","image":"img/globe_alternate.jpg","old_or_new":"new","task":"recognition","trial_type":"image-keyboard-response","trial_index":61,"time_elapsed":283523,"internal_node_id":"0.0-3.0-0.29","subject_id":"5e140712617219a4466291ba","study_id":"607de2837874a824e2e8c6ec","session_id":"60885e46d2d23375a7d73dba","correct":true},{"rt":504.02499991469085,"stimulus":"\n      <p>How sure are you?</p>\n      <p>Rate your confidence in your answer from 1 (pure guess) to 5 (very sure) by pressing the corresponding button.</p>\n     ","response":4,"image":"img/globe_alternate.jpg","task":"confidence","old_or_new":"new","trial_type":"html-button-response","trial_index":62,"time_elapsed":284030,"internal_node_id":"0.0-3.0-1.29","subject_id":"5e140712617219a4466291ba","study_id":"607de2837874a824e2e8c6ec","session_id":"60885e46d2d23375a7d73dba"},{"rt":1354.7300000209361,"stimulus":"img/folder_alternate.jpg","response":"n","image":"img/folder_alternate.jpg","old_or_new":"new","task":"recognition","trial_type":"image-keyboard-response","trial_index":63,"time_elapsed":285902,"internal_node_id":"0.0-3.0-0.30","subject_id":"5e140712617219a4466291ba","study_id":"607de2837874a824e2e8c6ec","session_id":"60885e46d2d23375a7d73dba","correct":true},{"rt":513.4450000477955,"stimulus":"\n      <p>How sure are you?</p>\n      <p>Rate your confidence in your answer from 1 (pure guess) to 5 (very sure) by pressing the corresponding button.</p>\n     ","response":4,"image":"img/folder_alternate.jpg","task":"confidence","old_or_new":"new","trial_type":"html-button-response","trial_index":64,"time_elapsed":286418,"internal_node_id":"0.0-3.0-1.30","subject_id":"5e140712617219a4466291ba","study_id":"607de2837874a824e2e8c6ec","session_id":"60885e46d2d23375a7d73dba"},{"rt":1367.0700000366196,"stimulus":"img/lightbulb.jpg","response":"y","image":"img/lightbulb.jpg","old_or_new":"old","task":"recognition","trial_type":"image-keyboard-response","trial_index":65,"time_elapsed":288292,"internal_node_id":"0.0-3.0-0.31","subject_id":"5e140712617219a4466291ba","study_id":"607de2837874a824e2e8c6ec","session_id":"60885e46d2d23375a7d73dba","correct":true},{"rt":616.0499999532476,"stimulus":"\n      <p>How sure are you?</p>\n      <p>Rate your confidence in your answer from 1 (pure guess) to 5 (very sure) by pressing the corresponding button.</p>\n     ","response":4,"image":"img/lightbulb.jpg","task":"confidence","old_or_new":"old","trial_type":"html-button-response","trial_index":66,"time_elapsed":288910,"internal_node_id":"0.0-3.0-1.31","subject_id":"5e140712617219a4466291ba","study_id":"607de2837874a824e2e8c6ec","session_id":"60885e46d2d23375a7d73dba"},{"rt":1235.4000000050291,"stimulus":"img/backpack_alternate.jpg","response":"n","image":"img/backpack_alternate.jpg","old_or_new":"new","task":"recognition","trial_type":"image-keyboard-response","trial_index":67,"time_elapsed":290658,"internal_node_id":"0.0-3.0-0.32","subject_id":"5e140712617219a4466291ba","study_id":"607de2837874a824e2e8c6ec","session_id":"60885e46d2d23375a7d73dba","correct":true},{"rt":422.6849999977276,"stimulus":"\n      <p>How sure are you?</p>\n      <p>Rate your confidence in your answer from 1 (pure guess) to 5 (very sure) by pressing the corresponding button.</p>\n     ","response":4,"image":"img/backpack_alternate.jpg","task":"confidence","old_or_new":"new","trial_type":"html-button-response","trial_index":68,"time_elapsed":291083,"internal_node_id":"0.0-3.0-1.32","subject_id":"5e140712617219a4466291ba","study_id":"607de2837874a824e2e8c6ec","session_id":"60885e46d2d23375a7d73dba"},{"rt":1050.544999889098,"stimulus":"img/helmet.jpg","response":"y","image":"img/helmet.jpg","old_or_new":"old","task":"recognition","trial_type":"image-keyboard-response","trial_index":69,"time_elapsed":292642,"internal_node_id":"0.0-3.0-0.33","subject_id":"5e140712617219a4466291ba","study_id":"607de2837874a824e2e8c6ec","session_id":"60885e46d2d23375a7d73dba","correct":true},{"rt":668.8699999358505,"stimulus":"\n      <p>How sure are you?</p>\n      <p>Rate your confidence in your answer from 1 (pure guess) to 5 (very sure) by pressing the corresponding button.</p>\n     ","response":4,"image":"img/helmet.jpg","task":"confidence","old_or_new":"old","trial_type":"html-button-response","trial_index":70,"time_elapsed":293313,"internal_node_id":"0.0-3.0-1.33","subject_id":"5e140712617219a4466291ba","study_id":"607de2837874a824e2e8c6ec","session_id":"60885e46d2d23375a7d73dba"},{"rt":2290.8400000305846,"stimulus":"img/drum.jpg","response":"y","image":"img/drum.jpg","old_or_new":"old","task":"recognition","trial_type":"image-keyboard-response","trial_index":71,"time_elapsed":296120,"internal_node_id":"0.0-3.0-0.34","subject_id":"5e140712617219a4466291ba","study_id":"607de2837874a824e2e8c6ec","session_id":"60885e46d2d23375a7d73dba","correct":true},{"rt":674.7200000099838,"stimulus":"\n      <p>How sure are you?</p>\n      <p>Rate your confidence in your answer from 1 (pure guess) to 5 (very sure) by pressing the corresponding button.</p>\n     ","response":4,"image":"img/drum.jpg","task":"confidence","old_or_new":"old","trial_type":"html-button-response","trial_index":72,"time_elapsed":296797,"internal_node_id":"0.0-3.0-1.34","subject_id":"5e140712617219a4466291ba","study_id":"607de2837874a824e2e8c6ec","session_id":"60885e46d2d23375a7d73dba"},{"rt":1228.6300000268966,"stimulus":"img/hair_tie.jpg","response":"y","image":"img/hair_tie.jpg","old_or_new":"old","task":"recognition","trial_type":"image-keyboard-response","trial_index":73,"time_elapsed":298541,"internal_node_id":"0.0-3.0-0.35","subject_id":"5e140712617219a4466291ba","study_id":"607de2837874a824e2e8c6ec","session_id":"60885e46d2d23375a7d73dba","correct":true},{"rt":596.2049999507144,"stimulus":"\n      <p>How sure are you?</p>\n      <p>Rate your confidence in your answer from 1 (pure guess) to 5 (very sure) by pressing the corresponding button.</p>\n     ","response":4,"image":"img/hair_tie.jpg","task":"confidence","old_or_new":"old","trial_type":"html-button-response","trial_index":74,"time_elapsed":299139,"internal_node_id":"0.0-3.0-1.35","subject_id":"5e140712617219a4466291ba","study_id":"607de2837874a824e2e8c6ec","session_id":"60885e46d2d23375a7d73dba"},{"rt":1163.7099999934435,"stimulus":"img/calculator_alternate.jpg","response":"n","image":"img/calculator_alternate.jpg","old_or_new":"new","task":"recognition","trial_type":"image-keyboard-response","trial_index":75,"time_elapsed":300816,"internal_node_id":"0.0-3.0-0.36","subject_id":"5e140712617219a4466291ba","study_id":"607de2837874a824e2e8c6ec","session_id":"60885e46d2d23375a7d73dba","correct":true},{"rt":478.0449999962002,"stimulus":"\n      <p>How sure are you?</p>\n      <p>Rate your confidence in your answer from 1 (pure guess) to 5 (very sure) by pressing the corresponding button.</p>\n     ","response":4,"image":"img/calculator_alternate.jpg","task":"confidence","old_or_new":"new","trial_type":"html-button-response","trial_index":76,"time_elapsed":301296,"internal_node_id":"0.0-3.0-1.36","subject_id":"5e140712617219a4466291ba","study_id":"607de2837874a824e2e8c6ec","session_id":"60885e46d2d23375a7d73dba"},{"rt":1191.385000012815,"stimulus":"img/hat.jpg","response":"y","image":"img/hat.jpg","old_or_new":"old","task":"recognition","trial_type":"image-keyboard-response","trial_index":77,"time_elapsed":302994,"internal_node_id":"0.0-3.0-0.37","subject_id":"5e140712617219a4466291ba","study_id":"607de2837874a824e2e8c6ec","session_id":"60885e46d2d23375a7d73dba","correct":true},{"rt":508.5099999560043,"stimulus":"\n      <p>How sure are you?</p>\n      <p>Rate your confidence in your answer from 1 (pure guess) to 5 (very sure) by pressing the corresponding button.</p>\n     ","response":4,"image":"img/hat.jpg","task":"confidence","old_or_new":"old","trial_type":"html-button-response","trial_index":78,"time_elapsed":303505,"internal_node_id":"0.0-3.0-1.37","subject_id":"5e140712617219a4466291ba","study_id":"607de2837874a824e2e8c6ec","session_id":"60885e46d2d23375a7d73dba"},{"rt":1013.9999999664724,"stimulus":"img/apple_alternate.jpg","response":"n","image":"img/apple_alternate.jpg","old_or_new":"new","task":"recognition","trial_type":"image-keyboard-response","trial_index":79,"time_elapsed":305034,"internal_node_id":"0.0-3.0-0.38","subject_id":"5e140712617219a4466291ba","study_id":"607de2837874a824e2e8c6ec","session_id":"60885e46d2d23375a7d73dba","correct":true},{"rt":404.57999997306615,"stimulus":"\n      <p>How sure are you?</p>\n      <p>Rate your confidence in your answer from 1 (pure guess) to 5 (very sure) by pressing the corresponding button.</p>\n     ","response":4,"image":"img/apple_alternate.jpg","task":"confidence","old_or_new":"new","trial_type":"html-button-response","trial_index":80,"time_elapsed":305441,"internal_node_id":"0.0-3.0-1.38","subject_id":"5e140712617219a4466291ba","study_id":"607de2837874a824e2e8c6ec","session_id":"60885e46d2d23375a7d73dba"},{"rt":1522.5300000747666,"stimulus":"img/hourglass_alternate.jpg","response":"n","image":"img/hourglass_alternate.jpg","old_or_new":"new","task":"recognition","trial_type":"image-keyboard-response","trial_index":81,"time_elapsed":307483,"internal_node_id":"0.0-3.0-0.39","subject_id":"5e140712617219a4466291ba","study_id":"607de2837874a824e2e8c6ec","session_id":"60885e46d2d23375a7d73dba","correct":true},{"rt":381.24999997671694,"stimulus":"\n      <p>How sure are you?</p>\n      <p>Rate your confidence in your answer from 1 (pure guess) to 5 (very sure) by pressing the corresponding button.</p>\n     ","response":4,"image":"img/hourglass_alternate.jpg","task":"confidence","old_or_new":"new","trial_type":"html-button-response","trial_index":82,"time_elapsed":307866,"internal_node_id":"0.0-3.0-1.39","subject_id":"5e140712617219a4466291ba","study_id":"607de2837874a824e2e8c6ec","session_id":"60885e46d2d23375a7d73dba"},{"rt":1178.6550000542775,"stimulus":"img/dryer_alternate.jpg","response":"n","image":"img/dryer_alternate.jpg","old_or_new":"new","task":"recognition","trial_type":"image-keyboard-response","trial_index":83,"time_elapsed":309560,"internal_node_id":"0.0-3.0-0.40","subject_id":"5e140712617219a4466291ba","study_id":"607de2837874a824e2e8c6ec","session_id":"60885e46d2d23375a7d73dba","correct":true},{"rt":451.2800000375137,"stimulus":"\n      <p>How sure are you?</p>\n      <p>Rate your confidence in your answer from 1 (pure guess) to 5 (very sure) by pressing the corresponding button.</p>\n     ","response":4,"image":"img/dryer_alternate.jpg","task":"confidence","old_or_new":"new","trial_type":"html-button-response","trial_index":84,"time_elapsed":310013,"internal_node_id":"0.0-3.0-1.40","subject_id":"5e140712617219a4466291ba","study_id":"607de2837874a824e2e8c6ec","session_id":"60885e46d2d23375a7d73dba"},{"rt":820.8749999757856,"stimulus":"img/chair_alternate.jpg","response":"n","image":"img/chair_alternate.jpg","old_or_new":"new","task":"recognition","trial_type":"image-keyboard-response","trial_index":85,"time_elapsed":311341,"internal_node_id":"0.0-3.0-0.41","subject_id":"5e140712617219a4466291ba","study_id":"607de2837874a824e2e8c6ec","session_id":"60885e46d2d23375a7d73dba","correct":true},{"rt":683.324999990873,"stimulus":"\n      <p>How sure are you?</p>\n      <p>Rate your confidence in your answer from 1 (pure guess) to 5 (very sure) by pressing the corresponding button.</p>\n     ","response":4,"image":"img/chair_alternate.jpg","task":"confidence","old_or_new":"new","trial_type":"html-button-response","trial_index":86,"time_elapsed":312026,"internal_node_id":"0.0-3.0-1.41","subject_id":"5e140712617219a4466291ba","study_id":"607de2837874a824e2e8c6ec","session_id":"60885e46d2d23375a7d73dba"},{"rt":1777.4249999783933,"stimulus":"img/glasses.jpg","response":"y","image":"img/glasses.jpg","old_or_new":"old","task":"recognition","trial_type":"image-keyboard-response","trial_index":87,"time_elapsed":314316,"internal_node_id":"0.0-3.0-0.42","subject_id":"5e140712617219a4466291ba","study_id":"607de2837874a824e2e8c6ec","session_id":"60885e46d2d23375a7d73dba","correct":true},{"rt":396.6350000118837,"stimulus":"\n      <p>How sure are you?</p>\n      <p>Rate your confidence in your answer from 1 (pure guess) to 5 (very sure) by pressing the corresponding button.</p>\n     ","response":4,"image":"img/glasses.jpg","task":"confidence","old_or_new":"old","trial_type":"html-button-response","trial_index":88,"time_elapsed":314714,"internal_node_id":"0.0-3.0-1.42","subject_id":"5e140712617219a4466291ba","study_id":"607de2837874a824e2e8c6ec","session_id":"60885e46d2d23375a7d73dba"},{"rt":1048.5699999844655,"stimulus":"img/coin_alternate.jpg","response":"n","image":"img/coin_alternate.jpg","old_or_new":"new","task":"recognition","trial_type":"image-keyboard-response","trial_index":89,"time_elapsed":316278,"internal_node_id":"0.0-3.0-0.43","subject_id":"5e140712617219a4466291ba","study_id":"607de2837874a824e2e8c6ec","session_id":"60885e46d2d23375a7d73dba","correct":true},{"rt":438.4850000496954,"stimulus":"\n      <p>How sure are you?</p>\n      <p>Rate your confidence in your answer from 1 (pure guess) to 5 (very sure) by pressing the corresponding button.</p>\n     ","response":4,"image":"img/coin_alternate.jpg","task":"confidence","old_or_new":"new","trial_type":"html-button-response","trial_index":90,"time_elapsed":316718,"internal_node_id":"0.0-3.0-1.43","subject_id":"5e140712617219a4466291ba","study_id":"607de2837874a824e2e8c6ec","session_id":"60885e46d2d23375a7d73dba"},{"rt":1201.9800000125542,"stimulus":"img/basket.jpg","response":"y","image":"img/basket.jpg","old_or_new":"old","task":"recognition","trial_type":"image-keyboard-response","trial_index":91,"time_elapsed":318423,"internal_node_id":"0.0-3.0-0.44","subject_id":"5e140712617219a4466291ba","study_id":"607de2837874a824e2e8c6ec","session_id":"60885e46d2d23375a7d73dba","correct":true},{"rt":373.01999994087964,"stimulus":"\n      <p>How sure are you?</p>\n      <p>Rate your confidence in your answer from 1 (pure guess) to 5 (very sure) by pressing the corresponding button.</p>\n     ","response":4,"image":"img/basket.jpg","task":"confidence","old_or_new":"old","trial_type":"html-button-response","trial_index":92,"time_elapsed":318798,"internal_node_id":"0.0-3.0-1.44","subject_id":"5e140712617219a4466291ba","study_id":"607de2837874a824e2e8c6ec","session_id":"60885e46d2d23375a7d73dba"},{"rt":1344.5100000826642,"stimulus":"img/leaf.jpg","response":"y","image":"img/leaf.jpg","old_or_new":"old","task":"recognition","trial_type":"image-keyboard-response","trial_index":93,"time_elapsed":320657,"internal_node_id":"0.0-3.0-0.45","subject_id":"5e140712617219a4466291ba","study_id":"607de2837874a824e2e8c6ec","session_id":"60885e46d2d23375a7d73dba","correct":true},{"rt":362.1100001037121,"stimulus":"\n      <p>How sure are you?</p>\n      <p>Rate your confidence in your answer from 1 (pure guess) to 5 (very sure) by pressing the corresponding button.</p>\n     ","response":4,"image":"img/leaf.jpg","task":"confidence","old_or_new":"old","trial_type":"html-button-response","trial_index":94,"time_elapsed":321021,"internal_node_id":"0.0-3.0-1.45","subject_id":"5e140712617219a4466291ba","study_id":"607de2837874a824e2e8c6ec","session_id":"60885e46d2d23375a7d73dba"},{"rt":1374.2899999488145,"stimulus":"img/fan.jpg","response":"n","image":"img/fan.jpg","old_or_new":"old","task":"recognition","trial_type":"image-keyboard-response","trial_index":95,"time_elapsed":322912,"internal_node_id":"0.0-3.0-0.46","subject_id":"5e140712617219a4466291ba","study_id":"607de2837874a824e2e8c6ec","session_id":"60885e46d2d23375a7d73dba","correct":false},{"rt":683.1900000106543,"stimulus":"\n      <p>How sure are you?</p>\n      <p>Rate your confidence in your answer from 1 (pure guess) to 5 (very sure) by pressing the corresponding button.</p>\n     ","response":4,"image":"img/fan.jpg","task":"confidence","old_or_new":"old","trial_type":"html-button-response","trial_index":96,"time_elapsed":323597,"internal_node_id":"0.0-3.0-1.46","subject_id":"5e140712617219a4466291ba","study_id":"607de2837874a824e2e8c6ec","session_id":"60885e46d2d23375a7d73dba"},{"rt":1384.5450000371784,"stimulus":"img/bowl_alternate.jpg","response":"n","image":"img/bowl_alternate.jpg","old_or_new":"new","task":"recognition","trial_type":"image-keyboard-response","trial_index":97,"time_elapsed":325499,"internal_node_id":"0.0-3.0-0.47","subject_id":"5e140712617219a4466291ba","study_id":"607de2837874a824e2e8c6ec","session_id":"60885e46d2d23375a7d73dba","correct":true},{"rt":453.7599999457598,"stimulus":"\n      <p>How sure are you?</p>\n      <p>Rate your confidence in your answer from 1 (pure guess) to 5 (very sure) by pressing the corresponding button.</p>\n     ","response":4,"image":"img/bowl_alternate.jpg","task":"confidence","old_or_new":"new","trial_type":"html-button-response","trial_index":98,"time_elapsed":325955,"internal_node_id":"0.0-3.0-1.47","subject_id":"5e140712617219a4466291ba","study_id":"607de2837874a824e2e8c6ec","session_id":"60885e46d2d23375a7d73dba"}]