[{"success":true,"timeout":false,"failed_images":[],"failed_audio":[],"failed_video":[],"trial_type":"preload","trial_index":0,"time_elapsed":4760,"internal_node_id":"0.0-0.0","subject_id":"607edd6030f140e8b94d477a","study_id":"606233c0e42b980319b6a18e","session_id":"60883471e7fad5c043f4dbc6"},{"rt":15546,"stimulus":"\n      <div style=\"width:800px; text-align: left;\">\n        <p>Welcome to day 2 of the experiment! Thanks for coming back.</p>\n        <p>You will be presented with a series of images. Images will appear one at a time.</p>\n        <p>Each image will remain on the screen until you press either <span style=\"font-weight: bold;\">\"y\" to indicate you have seen the \n        exact same photo the day before or \"n\" to indicate you have not seen the exact same photo the day before.</span></p>\n        <p>After you answer yes (\"y\") or no (\"n\"), you will then be prompted to rate your certainty on a scale of\n        1 (pure guess) to 5 (very sure).</p>\n      </div>\n    ","response":0,"trial_type":"html-button-response","trial_index":1,"time_elapsed":20307,"internal_node_id":"0.0-1.0","subject_id":"607edd6030f140e8b94d477a","study_id":"606233c0e42b980319b6a18e","session_id":"60883471e7fad5c043f4dbc6"},{"success":true,"trial_type":"fullscreen","trial_index":2,"time_elapsed":25558,"internal_node_id":"0.0-2.0","subject_id":"607edd6030f140e8b94d477a","study_id":"606233c0e42b980319b6a18e","session_id":"60883471e7fad5c043f4dbc6"},{"rt":3670,"stimulus":"img/tv_alternate.jpg","response":"n","image":"img/tv_alternate.jpg","old_or_new":"new","task":"recognition","trial_type":"image-keyboard-response","trial_index":3,"time_elapsed":29234,"internal_node_id":"0.0-3.0-0.0","subject_id":"607edd6030f140e8b94d477a","study_id":"606233c0e42b980319b6a18e","session_id":"60883471e7fad5c043f4dbc6","correct":true},{"rt":7211,"stimulus":"\n      <p>How sure are you?</p>\n      <p>Rate your confidence in your answer from 1 (pure guess) to 5 (very sure) by pressing the corresponding button.</p>\n     ","response":1,"image":"img/tv_alternate.jpg","task":"confidence","old_or_new":"new","trial_type":"html-button-response","trial_index":4,"time_elapsed":36447,"internal_node_id":"0.0-3.0-1.0","subject_id":"607edd6030f140e8b94d477a","study_id":"606233c0e42b980319b6a18e","session_id":"60883471e7fad5c043f4dbc6"},{"rt":2182,"stimulus":"img/pencil_sharpener_alternate.jpg","response":"y","image":"img/pencil_sharpener_alternate.jpg","old_or_new":"new","task":"recognition","trial_type":"image-keyboard-response","trial_index":5,"time_elapsed":39138,"internal_node_id":"0.0-3.0-0.1","subject_id":"607edd6030f140e8b94d477a","study_id":"606233c0e42b980319b6a18e","session_id":"60883471e7fad5c043f4dbc6","correct":false},{"rt":1789,"stimulus":"\n      <p>How sure are you?</p>\n      <p>Rate your confidence in your answer from 1 (pure guess) to 5 (very sure) by pressing the corresponding button.</p>\n     ","response":4,"image":"img/pencil_sharpener_alternate.jpg","task":"confidence","old_or_new":"new","trial_type":"html-button-response","trial_index":6,"time_elapsed":40927,"internal_node_id":"0.0-3.0-1.1","subject_id":"607edd6030f140e8b94d477a","study_id":"606233c0e42b980319b6a18e","session_id":"60883471e7fad5c043f4dbc6"},{"rt":763,"stimulus":"img/seashell.jpg","response":"y","image":"img/seashell.jpg","old_or_new":"old","task":"recognition","trial_type":"image-keyboard-response","trial_index":7,"time_elapsed":42213,"internal_node_id":"0.0-3.0-0.2","subject_id":"607edd6030f140e8b94d477a","study_id":"606233c0e42b980319b6a18e","session_id":"60883471e7fad5c043f4dbc6","correct":true},{"rt":765,"stimulus":"\n      <p>How sure are you?</p>\n      <p>Rate your confidence in your answer from 1 (pure guess) to 5 (very sure) by pressing the corresponding button.</p>\n     ","response":4,"image":"img/seashell.jpg","task":"confidence","old_or_new":"old","trial_type":"html-button-response","trial_index":8,"time_elapsed":42979,"internal_node_id":"0.0-3.0-1.2","subject_id":"607edd6030f140e8b94d477a","study_id":"606233c0e42b980319b6a18e","session_id":"60883471e7fad5c043f4dbc6"},{"rt":3582,"stimulus":"img/seashell_alternate.jpg","response":"n","image":"img/seashell_alternate.jpg","old_or_new":"new","task":"recognition","trial_type":"image-keyboard-response","trial_index":9,"time_elapsed":47070,"internal_node_id":"0.0-3.0-0.3","subject_id":"607edd6030f140e8b94d477a","study_id":"606233c0e42b980319b6a18e","session_id":"60883471e7fad5c043f4dbc6","correct":true},{"rt":1231,"stimulus":"\n      <p>How sure are you?</p>\n      <p>Rate your confidence in your answer from 1 (pure guess) to 5 (very sure) by pressing the corresponding button.</p>\n     ","response":1,"image":"img/seashell_alternate.jpg","task":"confidence","old_or_new":"new","trial_type":"html-button-response","trial_index":10,"time_elapsed":48302,"internal_node_id":"0.0-3.0-1.3","subject_id":"607edd6030f140e8b94d477a","study_id":"606233c0e42b980319b6a18e","session_id":"60883471e7fad5c043f4dbc6"},{"rt":1057,"stimulus":"img/tv.jpg","response":"y","image":"img/tv.jpg","old_or_new":"old","task":"recognition","trial_type":"image-keyboard-response","trial_index":11,"time_elapsed":49871,"internal_node_id":"0.0-3.0-0.4","subject_id":"607edd6030f140e8b94d477a","study_id":"606233c0e42b980319b6a18e","session_id":"60883471e7fad5c043f4dbc6","correct":true},{"rt":843,"stimulus":"\n      <p>How sure are you?</p>\n      <p>Rate your confidence in your answer from 1 (pure guess) to 5 (very sure) by pressing the corresponding button.</p>\n     ","response":4,"image":"img/tv.jpg","task":"confidence","old_or_new":"old","trial_type":"html-button-response","trial_index":12,"time_elapsed":50713,"internal_node_id":"0.0-3.0-1.4","subject_id":"607edd6030f140e8b94d477a","study_id":"606233c0e42b980319b6a18e","session_id":"60883471e7fad5c043f4dbc6"},{"rt":1700,"stimulus":"img/wheel_barrow_alternate.jpg","response":"y","image":"img/wheel_barrow_alternate.jpg","old_or_new":"new","task":"recognition","trial_type":"image-keyboard-response","trial_index":13,"time_elapsed":52918,"internal_node_id":"0.0-3.0-0.5","subject_id":"607edd6030f140e8b94d477a","study_id":"606233c0e42b980319b6a18e","session_id":"60883471e7fad5c043f4dbc6","correct":false},{"rt":819,"stimulus":"\n      <p>How sure are you?</p>\n      <p>Rate your confidence in your answer from 1 (pure guess) to 5 (very sure) by pressing the corresponding button.</p>\n     ","response":4,"image":"img/wheel_barrow_alternate.jpg","task":"confidence","old_or_new":"new","trial_type":"html-button-response","trial_index":14,"time_elapsed":53737,"internal_node_id":"0.0-3.0-1.5","subject_id":"607edd6030f140e8b94d477a","study_id":"606233c0e42b980319b6a18e","session_id":"60883471e7fad5c043f4dbc6"},{"rt":686,"stimulus":"img/shirt.jpg","response":"y","image":"img/shirt.jpg","old_or_new":"old","task":"recognition","trial_type":"image-keyboard-response","trial_index":15,"time_elapsed":54933,"internal_node_id":"0.0-3.0-0.6","subject_id":"607edd6030f140e8b94d477a","study_id":"606233c0e42b980319b6a18e","session_id":"60883471e7fad5c043f4dbc6","correct":true},{"rt":602,"stimulus":"\n      <p>How sure are you?</p>\n      <p>Rate your confidence in your answer from 1 (pure guess) to 5 (very sure) by pressing the corresponding button.</p>\n     ","response":4,"image":"img/shirt.jpg","task":"confidence","old_or_new":"old","trial_type":"html-button-response","trial_index":16,"time_elapsed":55535,"internal_node_id":"0.0-3.0-1.6","subject_id":"607edd6030f140e8b94d477a","study_id":"606233c0e42b980319b6a18e","session_id":"60883471e7fad5c043f4dbc6"},{"rt":3491,"stimulus":"img/knife_alternate.jpg","response":"n","image":"img/knife_alternate.jpg","old_or_new":"new","task":"recognition","trial_type":"image-keyboard-response","trial_index":17,"time_elapsed":59534,"internal_node_id":"0.0-3.0-0.7","subject_id":"607edd6030f140e8b94d477a","study_id":"606233c0e42b980319b6a18e","session_id":"60883471e7fad5c043f4dbc6","correct":true},{"rt":7107,"stimulus":"\n      <p>How sure are you?</p>\n      <p>Rate your confidence in your answer from 1 (pure guess) to 5 (very sure) by pressing the corresponding button.</p>\n     ","response":0,"image":"img/knife_alternate.jpg","task":"confidence","old_or_new":"new","trial_type":"html-button-response","trial_index":18,"time_elapsed":66644,"internal_node_id":"0.0-3.0-1.7","subject_id":"607edd6030f140e8b94d477a","study_id":"606233c0e42b980319b6a18e","session_id":"60883471e7fad5c043f4dbc6"},{"rt":5166,"stimulus":"img/shovel_alternate.jpg","response":"n","image":"img/shovel_alternate.jpg","old_or_new":"new","task":"recognition","trial_type":"image-keyboard-response","trial_index":19,"time_elapsed":72323,"internal_node_id":"0.0-3.0-0.8","subject_id":"607edd6030f140e8b94d477a","study_id":"606233c0e42b980319b6a18e","session_id":"60883471e7fad5c043f4dbc6","correct":true},{"rt":645,"stimulus":"\n      <p>How sure are you?</p>\n      <p>Rate your confidence in your answer from 1 (pure guess) to 5 (very sure) by pressing the corresponding button.</p>\n     ","response":1,"image":"img/shovel_alternate.jpg","task":"confidence","old_or_new":"new","trial_type":"html-button-response","trial_index":20,"time_elapsed":72970,"internal_node_id":"0.0-3.0-1.8","subject_id":"607edd6030f140e8b94d477a","study_id":"606233c0e42b980319b6a18e","session_id":"60883471e7fad5c043f4dbc6"},{"rt":4983,"stimulus":"img/watch_alternate.jpg","response":"y","image":"img/watch_alternate.jpg","old_or_new":"new","task":"recognition","trial_type":"image-keyboard-response","trial_index":21,"time_elapsed":78470,"internal_node_id":"0.0-3.0-0.9","subject_id":"607edd6030f140e8b94d477a","study_id":"606233c0e42b980319b6a18e","session_id":"60883471e7fad5c043f4dbc6","correct":false},{"rt":845,"stimulus":"\n      <p>How sure are you?</p>\n      <p>Rate your confidence in your answer from 1 (pure guess) to 5 (very sure) by pressing the corresponding button.</p>\n     ","response":2,"image":"img/watch_alternate.jpg","task":"confidence","old_or_new":"new","trial_type":"html-button-response","trial_index":22,"time_elapsed":79316,"internal_node_id":"0.0-3.0-1.9","subject_id":"607edd6030f140e8b94d477a","study_id":"606233c0e42b980319b6a18e","session_id":"60883471e7fad5c043f4dbc6"},{"rt":1885,"stimulus":"img/skates.jpg","response":"y","image":"img/skates.jpg","old_or_new":"old","task":"recognition","trial_type":"image-keyboard-response","trial_index":23,"time_elapsed":81707,"internal_node_id":"0.0-3.0-0.10","subject_id":"607edd6030f140e8b94d477a","study_id":"606233c0e42b980319b6a18e","session_id":"60883471e7fad5c043f4dbc6","correct":true},{"rt":559,"stimulus":"\n      <p>How sure are you?</p>\n      <p>Rate your confidence in your answer from 1 (pure guess) to 5 (very sure) by pressing the corresponding button.</p>\n     ","response":4,"image":"img/skates.jpg","task":"confidence","old_or_new":"old","trial_type":"html-button-response","trial_index":24,"time_elapsed":82268,"internal_node_id":"0.0-3.0-1.10","subject_id":"607edd6030f140e8b94d477a","study_id":"606233c0e42b980319b6a18e","session_id":"60883471e7fad5c043f4dbc6"},{"rt":1495,"stimulus":"img/power_cord.jpg","response":"y","image":"img/power_cord.jpg","old_or_new":"old","task":"recognition","trial_type":"image-keyboard-response","trial_index":25,"time_elapsed":84278,"internal_node_id":"0.0-3.0-0.11","subject_id":"607edd6030f140e8b94d477a","study_id":"606233c0e42b980319b6a18e","session_id":"60883471e7fad5c043f4dbc6","correct":true},{"rt":578,"stimulus":"\n      <p>How sure are you?</p>\n      <p>Rate your confidence in your answer from 1 (pure guess) to 5 (very sure) by pressing the corresponding button.</p>\n     ","response":4,"image":"img/power_cord.jpg","task":"confidence","old_or_new":"old","trial_type":"html-button-response","trial_index":26,"time_elapsed":84857,"internal_node_id":"0.0-3.0-1.11","subject_id":"607edd6030f140e8b94d477a","study_id":"606233c0e42b980319b6a18e","session_id":"60883471e7fad5c043f4dbc6"},{"rt":1503,"stimulus":"img/pencil_sharpener.jpg","response":"y","image":"img/pencil_sharpener.jpg","old_or_new":"old","task":"recognition","trial_type":"image-keyboard-response","trial_index":27,"time_elapsed":86865,"internal_node_id":"0.0-3.0-0.12","subject_id":"607edd6030f140e8b94d477a","study_id":"606233c0e42b980319b6a18e","session_id":"60883471e7fad5c043f4dbc6","correct":true},{"rt":574,"stimulus":"\n      <p>How sure are you?</p>\n      <p>Rate your confidence in your answer from 1 (pure guess) to 5 (very sure) by pressing the corresponding button.</p>\n     ","response":4,"image":"img/pencil_sharpener.jpg","task":"confidence","old_or_new":"old","trial_type":"html-button-response","trial_index":28,"time_elapsed":87441,"internal_node_id":"0.0-3.0-1.12","subject_id":"607edd6030f140e8b94d477a","study_id":"606233c0e42b980319b6a18e","session_id":"60883471e7fad5c043f4dbc6"},{"rt":740,"stimulus":"img/plane.jpg","response":"y","image":"img/plane.jpg","old_or_new":"old","task":"recognition","trial_type":"image-keyboard-response","trial_index":29,"time_elapsed":88686,"internal_node_id":"0.0-3.0-0.13","subject_id":"607edd6030f140e8b94d477a","study_id":"606233c0e42b980319b6a18e","session_id":"60883471e7fad5c043f4dbc6","correct":true},{"rt":791,"stimulus":"\n      <p>How sure are you?</p>\n      <p>Rate your confidence in your answer from 1 (pure guess) to 5 (very sure) by pressing the corresponding button.</p>\n     ","response":4,"image":"img/plane.jpg","task":"confidence","old_or_new":"old","trial_type":"html-button-response","trial_index":30,"time_elapsed":89478,"internal_node_id":"0.0-3.0-1.13","subject_id":"607edd6030f140e8b94d477a","study_id":"606233c0e42b980319b6a18e","session_id":"60883471e7fad5c043f4dbc6"},{"rt":2912,"stimulus":"img/shoe.jpg","response":"y","image":"img/shoe.jpg","old_or_new":"old","task":"recognition","trial_type":"image-keyboard-response","trial_index":31,"time_elapsed":92902,"internal_node_id":"0.0-3.0-0.14","subject_id":"607edd6030f140e8b94d477a","study_id":"606233c0e42b980319b6a18e","session_id":"60883471e7fad5c043f4dbc6","correct":true},{"rt":512,"stimulus":"\n      <p>How sure are you?</p>\n      <p>Rate your confidence in your answer from 1 (pure guess) to 5 (very sure) by pressing the corresponding button.</p>\n     ","response":4,"image":"img/shoe.jpg","task":"confidence","old_or_new":"old","trial_type":"html-button-response","trial_index":32,"time_elapsed":93415,"internal_node_id":"0.0-3.0-1.14","subject_id":"607edd6030f140e8b94d477a","study_id":"606233c0e42b980319b6a18e","session_id":"60883471e7fad5c043f4dbc6"},{"rt":1768,"stimulus":"img/knife.jpg","response":"y","image":"img/knife.jpg","old_or_new":"old","task":"recognition","trial_type":"image-keyboard-response","trial_index":33,"time_elapsed":95697,"internal_node_id":"0.0-3.0-0.15","subject_id":"607edd6030f140e8b94d477a","study_id":"606233c0e42b980319b6a18e","session_id":"60883471e7fad5c043f4dbc6","correct":true},{"rt":794,"stimulus":"\n      <p>How sure are you?</p>\n      <p>Rate your confidence in your answer from 1 (pure guess) to 5 (very sure) by pressing the corresponding button.</p>\n     ","response":4,"image":"img/knife.jpg","task":"confidence","old_or_new":"old","trial_type":"html-button-response","trial_index":34,"time_elapsed":96491,"internal_node_id":"0.0-3.0-1.15","subject_id":"607edd6030f140e8b94d477a","study_id":"606233c0e42b980319b6a18e","session_id":"60883471e7fad5c043f4dbc6"},{"rt":10033,"stimulus":"img/wheel_barrow.jpg","response":"n","image":"img/wheel_barrow.jpg","old_or_new":"old","task":"recognition","trial_type":"image-keyboard-response","trial_index":35,"time_elapsed":107029,"internal_node_id":"0.0-3.0-0.16","subject_id":"607edd6030f140e8b94d477a","study_id":"606233c0e42b980319b6a18e","session_id":"60883471e7fad5c043f4dbc6","correct":false},{"rt":1496,"stimulus":"\n      <p>How sure are you?</p>\n      <p>Rate your confidence in your answer from 1 (pure guess) to 5 (very sure) by pressing the corresponding button.</p>\n     ","response":3,"image":"img/wheel_barrow.jpg","task":"confidence","old_or_new":"old","trial_type":"html-button-response","trial_index":36,"time_elapsed":108527,"internal_node_id":"0.0-3.0-1.16","subject_id":"607edd6030f140e8b94d477a","study_id":"606233c0e42b980319b6a18e","session_id":"60883471e7fad5c043f4dbc6"},{"rt":1190,"stimulus":"img/spoon.jpg","response":"y","image":"img/spoon.jpg","old_or_new":"old","task":"recognition","trial_type":"image-keyboard-response","trial_index":37,"time_elapsed":110233,"internal_node_id":"0.0-3.0-0.17","subject_id":"607edd6030f140e8b94d477a","study_id":"606233c0e42b980319b6a18e","session_id":"60883471e7fad5c043f4dbc6","correct":true},{"rt":1073,"stimulus":"\n      <p>How sure are you?</p>\n      <p>Rate your confidence in your answer from 1 (pure guess) to 5 (very sure) by pressing the corresponding button.</p>\n     ","response":4,"image":"img/spoon.jpg","task":"confidence","old_or_new":"old","trial_type":"html-button-response","trial_index":38,"time_elapsed":111306,"internal_node_id":"0.0-3.0-1.17","subject_id":"607edd6030f140e8b94d477a","study_id":"606233c0e42b980319b6a18e","session_id":"60883471e7fad5c043f4dbc6"},{"rt":1405,"stimulus":"img/pizza.jpg","response":"y","image":"img/pizza.jpg","old_or_new":"old","task":"recognition","trial_type":"image-keyboard-response","trial_index":39,"time_elapsed":113226,"internal_node_id":"0.0-3.0-0.18","subject_id":"607edd6030f140e8b94d477a","study_id":"606233c0e42b980319b6a18e","session_id":"60883471e7fad5c043f4dbc6","correct":true},{"rt":810,"stimulus":"\n      <p>How sure are you?</p>\n      <p>Rate your confidence in your answer from 1 (pure guess) to 5 (very sure) by pressing the corresponding button.</p>\n     ","response":4,"image":"img/pizza.jpg","task":"confidence","old_or_new":"old","trial_type":"html-button-response","trial_index":40,"time_elapsed":114037,"internal_node_id":"0.0-3.0-1.18","subject_id":"607edd6030f140e8b94d477a","study_id":"606233c0e42b980319b6a18e","session_id":"60883471e7fad5c043f4dbc6"},{"rt":2234,"stimulus":"img/plate_alternate.jpg","response":"n","image":"img/plate_alternate.jpg","old_or_new":"new","task":"recognition","trial_type":"image-keyboard-response","trial_index":41,"time_elapsed":116778,"internal_node_id":"0.0-3.0-0.19","subject_id":"607edd6030f140e8b94d477a","study_id":"606233c0e42b980319b6a18e","session_id":"60883471e7fad5c043f4dbc6","correct":true},{"rt":1080,"stimulus":"\n      <p>How sure are you?</p>\n      <p>Rate your confidence in your answer from 1 (pure guess) to 5 (very sure) by pressing the corresponding button.</p>\n     ","response":0,"image":"img/plate_alternate.jpg","task":"confidence","old_or_new":"new","trial_type":"html-button-response","trial_index":42,"time_elapsed":117859,"internal_node_id":"0.0-3.0-1.19","subject_id":"607edd6030f140e8b94d477a","study_id":"606233c0e42b980319b6a18e","session_id":"60883471e7fad5c043f4dbc6"},{"rt":2714,"stimulus":"img/rolling_pin_alternate.jpg","response":"n","image":"img/rolling_pin_alternate.jpg","old_or_new":"new","task":"recognition","trial_type":"image-keyboard-response","trial_index":43,"time_elapsed":121078,"internal_node_id":"0.0-3.0-0.20","subject_id":"607edd6030f140e8b94d477a","study_id":"606233c0e42b980319b6a18e","session_id":"60883471e7fad5c043f4dbc6","correct":true},{"rt":1042,"stimulus":"\n      <p>How sure are you?</p>\n      <p>Rate your confidence in your answer from 1 (pure guess) to 5 (very sure) by pressing the corresponding button.</p>\n     ","response":0,"image":"img/rolling_pin_alternate.jpg","task":"confidence","old_or_new":"new","trial_type":"html-button-response","trial_index":44,"time_elapsed":122120,"internal_node_id":"0.0-3.0-1.20","subject_id":"607edd6030f140e8b94d477a","study_id":"606233c0e42b980319b6a18e","session_id":"60883471e7fad5c043f4dbc6"},{"rt":860,"stimulus":"img/toaster.jpg","response":"y","image":"img/toaster.jpg","old_or_new":"old","task":"recognition","trial_type":"image-keyboard-response","trial_index":45,"time_elapsed":123491,"internal_node_id":"0.0-3.0-0.21","subject_id":"607edd6030f140e8b94d477a","study_id":"606233c0e42b980319b6a18e","session_id":"60883471e7fad5c043f4dbc6","correct":true},{"rt":1519,"stimulus":"\n      <p>How sure are you?</p>\n      <p>Rate your confidence in your answer from 1 (pure guess) to 5 (very sure) by pressing the corresponding button.</p>\n     ","response":4,"image":"img/toaster.jpg","task":"confidence","old_or_new":"old","trial_type":"html-button-response","trial_index":46,"time_elapsed":125011,"internal_node_id":"0.0-3.0-1.21","subject_id":"607edd6030f140e8b94d477a","study_id":"606233c0e42b980319b6a18e","session_id":"60883471e7fad5c043f4dbc6"},{"rt":8869,"stimulus":"img/parfait.jpg","response":"n","image":"img/parfait.jpg","old_or_new":"old","task":"recognition","trial_type":"image-keyboard-response","trial_index":47,"time_elapsed":134395,"internal_node_id":"0.0-3.0-0.22","subject_id":"607edd6030f140e8b94d477a","study_id":"606233c0e42b980319b6a18e","session_id":"60883471e7fad5c043f4dbc6","correct":false},{"rt":1491,"stimulus":"\n      <p>How sure are you?</p>\n      <p>Rate your confidence in your answer from 1 (pure guess) to 5 (very sure) by pressing the corresponding button.</p>\n     ","response":0,"image":"img/parfait.jpg","task":"confidence","old_or_new":"old","trial_type":"html-button-response","trial_index":48,"time_elapsed":135888,"internal_node_id":"0.0-3.0-1.22","subject_id":"607edd6030f140e8b94d477a","study_id":"606233c0e42b980319b6a18e","session_id":"60883471e7fad5c043f4dbc6"},{"rt":2746,"stimulus":"img/umbrella.jpg","response":"y","image":"img/umbrella.jpg","old_or_new":"old","task":"recognition","trial_type":"image-keyboard-response","trial_index":49,"time_elapsed":139142,"internal_node_id":"0.0-3.0-0.23","subject_id":"607edd6030f140e8b94d477a","study_id":"606233c0e42b980319b6a18e","session_id":"60883471e7fad5c043f4dbc6","correct":true},{"rt":1902,"stimulus":"\n      <p>How sure are you?</p>\n      <p>Rate your confidence in your answer from 1 (pure guess) to 5 (very sure) by pressing the corresponding button.</p>\n     ","response":3,"image":"img/umbrella.jpg","task":"confidence","old_or_new":"old","trial_type":"html-button-response","trial_index":50,"time_elapsed":141045,"internal_node_id":"0.0-3.0-1.23","subject_id":"607edd6030f140e8b94d477a","study_id":"606233c0e42b980319b6a18e","session_id":"60883471e7fad5c043f4dbc6"},{"rt":5522,"stimulus":"img/spoon_alternate.jpg","response":"n","image":"img/spoon_alternate.jpg","old_or_new":"new","task":"recognition","trial_type":"image-keyboard-response","trial_index":51,"time_elapsed":147077,"internal_node_id":"0.0-3.0-0.24","subject_id":"607edd6030f140e8b94d477a","study_id":"606233c0e42b980319b6a18e","session_id":"60883471e7fad5c043f4dbc6","correct":true},{"rt":1766,"stimulus":"\n      <p>How sure are you?</p>\n      <p>Rate your confidence in your answer from 1 (pure guess) to 5 (very sure) by pressing the corresponding button.</p>\n     ","response":1,"image":"img/spoon_alternate.jpg","task":"confidence","old_or_new":"new","trial_type":"html-button-response","trial_index":52,"time_elapsed":148844,"internal_node_id":"0.0-3.0-1.24","subject_id":"607edd6030f140e8b94d477a","study_id":"606233c0e42b980319b6a18e","session_id":"60883471e7fad5c043f4dbc6"},{"rt":1884,"stimulus":"img/shovel.jpg","response":"y","image":"img/shovel.jpg","old_or_new":"old","task":"recognition","trial_type":"image-keyboard-response","trial_index":53,"time_elapsed":151235,"internal_node_id":"0.0-3.0-0.25","subject_id":"607edd6030f140e8b94d477a","study_id":"606233c0e42b980319b6a18e","session_id":"60883471e7fad5c043f4dbc6","correct":true},{"rt":788,"stimulus":"\n      <p>How sure are you?</p>\n      <p>Rate your confidence in your answer from 1 (pure guess) to 5 (very sure) by pressing the corresponding button.</p>\n     ","response":4,"image":"img/shovel.jpg","task":"confidence","old_or_new":"old","trial_type":"html-button-response","trial_index":54,"time_elapsed":152024,"internal_node_id":"0.0-3.0-1.25","subject_id":"607edd6030f140e8b94d477a","study_id":"606233c0e42b980319b6a18e","session_id":"60883471e7fad5c043f4dbc6"},{"rt":1566,"stimulus":"img/power_cord_alternate.jpg","response":"n","image":"img/power_cord_alternate.jpg","old_or_new":"new","task":"recognition","trial_type":"image-keyboard-response","trial_index":55,"time_elapsed":154099,"internal_node_id":"0.0-3.0-0.26","subject_id":"607edd6030f140e8b94d477a","study_id":"606233c0e42b980319b6a18e","session_id":"60883471e7fad5c043f4dbc6","correct":true},{"rt":2321,"stimulus":"\n      <p>How sure are you?</p>\n      <p>Rate your confidence in your answer from 1 (pure guess) to 5 (very sure) by pressing the corresponding button.</p>\n     ","response":4,"image":"img/power_cord_alternate.jpg","task":"confidence","old_or_new":"new","trial_type":"html-button-response","trial_index":56,"time_elapsed":156420,"internal_node_id":"0.0-3.0-1.26","subject_id":"607edd6030f140e8b94d477a","study_id":"606233c0e42b980319b6a18e","session_id":"60883471e7fad5c043f4dbc6"},{"rt":5264,"stimulus":"img/yarn_alternate.jpg","response":"n","image":"img/yarn_alternate.jpg","old_or_new":"new","task":"recognition","trial_type":"image-keyboard-response","trial_index":57,"time_elapsed":162195,"internal_node_id":"0.0-3.0-0.27","subject_id":"607edd6030f140e8b94d477a","study_id":"606233c0e42b980319b6a18e","session_id":"60883471e7fad5c043f4dbc6","correct":true},{"rt":2395,"stimulus":"\n      <p>How sure are you?</p>\n      <p>Rate your confidence in your answer from 1 (pure guess) to 5 (very sure) by pressing the corresponding button.</p>\n     ","response":4,"image":"img/yarn_alternate.jpg","task":"confidence","old_or_new":"new","trial_type":"html-button-response","trial_index":58,"time_elapsed":164591,"internal_node_id":"0.0-3.0-1.27","subject_id":"607edd6030f140e8b94d477a","study_id":"606233c0e42b980319b6a18e","session_id":"60883471e7fad5c043f4dbc6"},{"rt":1110,"stimulus":"img/yarn.jpg","response":"y","image":"img/yarn.jpg","old_or_new":"old","task":"recognition","trial_type":"image-keyboard-response","trial_index":59,"time_elapsed":166211,"internal_node_id":"0.0-3.0-0.28","subject_id":"607edd6030f140e8b94d477a","study_id":"606233c0e42b980319b6a18e","session_id":"60883471e7fad5c043f4dbc6","correct":true},{"rt":738,"stimulus":"\n      <p>How sure are you?</p>\n      <p>Rate your confidence in your answer from 1 (pure guess) to 5 (very sure) by pressing the corresponding button.</p>\n     ","response":4,"image":"img/yarn.jpg","task":"confidence","old_or_new":"old","trial_type":"html-button-response","trial_index":60,"time_elapsed":166950,"internal_node_id":"0.0-3.0-1.28","subject_id":"607edd6030f140e8b94d477a","study_id":"606233c0e42b980319b6a18e","session_id":"60883471e7fad5c043f4dbc6"},{"rt":1620,"stimulus":"img/umbrella_alternate.jpg","response":"n","image":"img/umbrella_alternate.jpg","old_or_new":"new","task":"recognition","trial_type":"image-keyboard-response","trial_index":61,"time_elapsed":169078,"internal_node_id":"0.0-3.0-0.29","subject_id":"607edd6030f140e8b94d477a","study_id":"606233c0e42b980319b6a18e","session_id":"60883471e7fad5c043f4dbc6","correct":true},{"rt":1203,"stimulus":"\n      <p>How sure are you?</p>\n      <p>Rate your confidence in your answer from 1 (pure guess) to 5 (very sure) by pressing the corresponding button.</p>\n     ","response":4,"image":"img/umbrella_alternate.jpg","task":"confidence","old_or_new":"new","trial_type":"html-button-response","trial_index":62,"time_elapsed":170282,"internal_node_id":"0.0-3.0-1.29","subject_id":"607edd6030f140e8b94d477a","study_id":"606233c0e42b980319b6a18e","session_id":"60883471e7fad5c043f4dbc6"},{"rt":1717,"stimulus":"img/plane_alternate.jpg","response":"n","image":"img/plane_alternate.jpg","old_or_new":"new","task":"recognition","trial_type":"image-keyboard-response","trial_index":63,"time_elapsed":172517,"internal_node_id":"0.0-3.0-0.30","subject_id":"607edd6030f140e8b94d477a","study_id":"606233c0e42b980319b6a18e","session_id":"60883471e7fad5c043f4dbc6","correct":true},{"rt":745,"stimulus":"\n      <p>How sure are you?</p>\n      <p>Rate your confidence in your answer from 1 (pure guess) to 5 (very sure) by pressing the corresponding button.</p>\n     ","response":4,"image":"img/plane_alternate.jpg","task":"confidence","old_or_new":"new","trial_type":"html-button-response","trial_index":64,"time_elapsed":173263,"internal_node_id":"0.0-3.0-1.30","subject_id":"607edd6030f140e8b94d477a","study_id":"606233c0e42b980319b6a18e","session_id":"60883471e7fad5c043f4dbc6"},{"rt":12229,"stimulus":"img/plate.jpg","response":"y","image":"img/plate.jpg","old_or_new":"old","task":"recognition","trial_type":"image-keyboard-response","trial_index":65,"time_elapsed":185996,"internal_node_id":"0.0-3.0-0.31","subject_id":"607edd6030f140e8b94d477a","study_id":"606233c0e42b980319b6a18e","session_id":"60883471e7fad5c043f4dbc6","correct":true},{"rt":801,"stimulus":"\n      <p>How sure are you?</p>\n      <p>Rate your confidence in your answer from 1 (pure guess) to 5 (very sure) by pressing the corresponding button.</p>\n     ","response":2,"image":"img/plate.jpg","task":"confidence","old_or_new":"old","trial_type":"html-button-response","trial_index":66,"time_elapsed":186798,"internal_node_id":"0.0-3.0-1.31","subject_id":"607edd6030f140e8b94d477a","study_id":"606233c0e42b980319b6a18e","session_id":"60883471e7fad5c043f4dbc6"},{"rt":1912,"stimulus":"img/toothbrush.jpg","response":"y","image":"img/toothbrush.jpg","old_or_new":"old","task":"recognition","trial_type":"image-keyboard-response","trial_index":67,"time_elapsed":189227,"internal_node_id":"0.0-3.0-0.32","subject_id":"607edd6030f140e8b94d477a","study_id":"606233c0e42b980319b6a18e","session_id":"60883471e7fad5c043f4dbc6","correct":true},{"rt":1460,"stimulus":"\n      <p>How sure are you?</p>\n      <p>Rate your confidence in your answer from 1 (pure guess) to 5 (very sure) by pressing the corresponding button.</p>\n     ","response":4,"image":"img/toothbrush.jpg","task":"confidence","old_or_new":"old","trial_type":"html-button-response","trial_index":68,"time_elapsed":190687,"internal_node_id":"0.0-3.0-1.32","subject_id":"607edd6030f140e8b94d477a","study_id":"606233c0e42b980319b6a18e","session_id":"60883471e7fad5c043f4dbc6"},{"rt":1951,"stimulus":"img/sink.jpg","response":"y","image":"img/sink.jpg","old_or_new":"old","task":"recognition","trial_type":"image-keyboard-response","trial_index":69,"time_elapsed":193152,"internal_node_id":"0.0-3.0-0.33","subject_id":"607edd6030f140e8b94d477a","study_id":"606233c0e42b980319b6a18e","session_id":"60883471e7fad5c043f4dbc6","correct":true},{"rt":724,"stimulus":"\n      <p>How sure are you?</p>\n      <p>Rate your confidence in your answer from 1 (pure guess) to 5 (very sure) by pressing the corresponding button.</p>\n     ","response":4,"image":"img/sink.jpg","task":"confidence","old_or_new":"old","trial_type":"html-button-response","trial_index":70,"time_elapsed":193880,"internal_node_id":"0.0-3.0-1.33","subject_id":"607edd6030f140e8b94d477a","study_id":"606233c0e42b980319b6a18e","session_id":"60883471e7fad5c043f4dbc6"},{"rt":1814,"stimulus":"img/shoe_alternate.jpg","response":"n","image":"img/shoe_alternate.jpg","old_or_new":"new","task":"recognition","trial_type":"image-keyboard-response","trial_index":71,"time_elapsed":196203,"internal_node_id":"0.0-3.0-0.34","subject_id":"607edd6030f140e8b94d477a","study_id":"606233c0e42b980319b6a18e","session_id":"60883471e7fad5c043f4dbc6","correct":true},{"rt":1345,"stimulus":"\n      <p>How sure are you?</p>\n      <p>Rate your confidence in your answer from 1 (pure guess) to 5 (very sure) by pressing the corresponding button.</p>\n     ","response":3,"image":"img/shoe_alternate.jpg","task":"confidence","old_or_new":"new","trial_type":"html-button-response","trial_index":72,"time_elapsed":197549,"internal_node_id":"0.0-3.0-1.34","subject_id":"607edd6030f140e8b94d477a","study_id":"606233c0e42b980319b6a18e","session_id":"60883471e7fad5c043f4dbc6"},{"rt":6498,"stimulus":"img/scissors_alternate.jpg","response":"n","image":"img/scissors_alternate.jpg","old_or_new":"new","task":"recognition","trial_type":"image-keyboard-response","trial_index":73,"time_elapsed":204554,"internal_node_id":"0.0-3.0-0.35","subject_id":"607edd6030f140e8b94d477a","study_id":"606233c0e42b980319b6a18e","session_id":"60883471e7fad5c043f4dbc6","correct":true},{"rt":1058,"stimulus":"\n      <p>How sure are you?</p>\n      <p>Rate your confidence in your answer from 1 (pure guess) to 5 (very sure) by pressing the corresponding button.</p>\n     ","response":2,"image":"img/scissors_alternate.jpg","task":"confidence","old_or_new":"new","trial_type":"html-button-response","trial_index":74,"time_elapsed":205614,"internal_node_id":"0.0-3.0-1.35","subject_id":"607edd6030f140e8b94d477a","study_id":"606233c0e42b980319b6a18e","session_id":"60883471e7fad5c043f4dbc6"},{"rt":1395,"stimulus":"img/rolling_pin.jpg","response":"y","image":"img/rolling_pin.jpg","old_or_new":"old","task":"recognition","trial_type":"image-keyboard-response","trial_index":75,"time_elapsed":207515,"internal_node_id":"0.0-3.0-0.36","subject_id":"607edd6030f140e8b94d477a","study_id":"606233c0e42b980319b6a18e","session_id":"60883471e7fad5c043f4dbc6","correct":true},{"rt":914,"stimulus":"\n      <p>How sure are you?</p>\n      <p>Rate your confidence in your answer from 1 (pure guess) to 5 (very sure) by pressing the corresponding button.</p>\n     ","response":4,"image":"img/rolling_pin.jpg","task":"confidence","old_or_new":"old","trial_type":"html-button-response","trial_index":76,"time_elapsed":208431,"internal_node_id":"0.0-3.0-1.36","subject_id":"607edd6030f140e8b94d477a","study_id":"606233c0e42b980319b6a18e","session_id":"60883471e7fad5c043f4dbc6"},{"rt":2046,"stimulus":"img/skates_alternate.jpg","response":"n","image":"img/skates_alternate.jpg","old_or_new":"new","task":"recognition","trial_type":"image-keyboard-response","trial_index":77,"time_elapsed":210982,"internal_node_id":"0.0-3.0-0.37","subject_id":"607edd6030f140e8b94d477a","study_id":"606233c0e42b980319b6a18e","session_id":"60883471e7fad5c043f4dbc6","correct":true},{"rt":680,"stimulus":"\n      <p>How sure are you?</p>\n      <p>Rate your confidence in your answer from 1 (pure guess) to 5 (very sure) by pressing the corresponding button.</p>\n     ","response":4,"image":"img/skates_alternate.jpg","task":"confidence","old_or_new":"new","trial_type":"html-button-response","trial_index":78,"time_elapsed":211664,"internal_node_id":"0.0-3.0-1.37","subject_id":"607edd6030f140e8b94d477a","study_id":"606233c0e42b980319b6a18e","session_id":"60883471e7fad5c043f4dbc6"},{"rt":1755,"stimulus":"img/sink_alternate.jpg","response":"n","image":"img/sink_alternate.jpg","old_or_new":"new","task":"recognition","trial_type":"image-keyboard-response","trial_index":79,"time_elapsed":213926,"internal_node_id":"0.0-3.0-0.38","subject_id":"607edd6030f140e8b94d477a","study_id":"606233c0e42b980319b6a18e","session_id":"60883471e7fad5c043f4dbc6","correct":true},{"rt":538,"stimulus":"\n      <p>How sure are you?</p>\n      <p>Rate your confidence in your answer from 1 (pure guess) to 5 (very sure) by pressing the corresponding button.</p>\n     ","response":4,"image":"img/sink_alternate.jpg","task":"confidence","old_or_new":"new","trial_type":"html-button-response","trial_index":80,"time_elapsed":214465,"internal_node_id":"0.0-3.0-1.38","subject_id":"607edd6030f140e8b94d477a","study_id":"606233c0e42b980319b6a18e","session_id":"60883471e7fad5c043f4dbc6"},{"rt":1355,"stimulus":"img/watch.jpg","response":"y","image":"img/watch.jpg","old_or_new":"old","task":"recognition","trial_type":"image-keyboard-response","trial_index":81,"time_elapsed":216328,"internal_node_id":"0.0-3.0-0.39","subject_id":"607edd6030f140e8b94d477a","study_id":"606233c0e42b980319b6a18e","session_id":"60883471e7fad5c043f4dbc6","correct":true},{"rt":640,"stimulus":"\n      <p>How sure are you?</p>\n      <p>Rate your confidence in your answer from 1 (pure guess) to 5 (very sure) by pressing the corresponding button.</p>\n     ","response":4,"image":"img/watch.jpg","task":"confidence","old_or_new":"old","trial_type":"html-button-response","trial_index":82,"time_elapsed":216967,"internal_node_id":"0.0-3.0-1.39","subject_id":"607edd6030f140e8b94d477a","study_id":"606233c0e42b980319b6a18e","session_id":"60883471e7fad5c043f4dbc6"},{"rt":3505,"stimulus":"img/trophy_alternate.jpg","response":"n","image":"img/trophy_alternate.jpg","old_or_new":"new","task":"recognition","trial_type":"image-keyboard-response","trial_index":83,"time_elapsed":220989,"internal_node_id":"0.0-3.0-0.40","subject_id":"607edd6030f140e8b94d477a","study_id":"606233c0e42b980319b6a18e","session_id":"60883471e7fad5c043f4dbc6","correct":true},{"rt":478,"stimulus":"\n      <p>How sure are you?</p>\n      <p>Rate your confidence in your answer from 1 (pure guess) to 5 (very sure) by pressing the corresponding button.</p>\n     ","response":3,"image":"img/trophy_alternate.jpg","task":"confidence","old_or_new":"new","trial_type":"html-button-response","trial_index":84,"time_elapsed":221468,"internal_node_id":"0.0-3.0-1.40","subject_id":"607edd6030f140e8b94d477a","study_id":"606233c0e42b980319b6a18e","session_id":"60883471e7fad5c043f4dbc6"},{"rt":1723,"stimulus":"img/toaster_alternate.jpg","response":"n","image":"img/toaster_alternate.jpg","old_or_new":"new","task":"recognition","trial_type":"image-keyboard-response","trial_index":85,"time_elapsed":223703,"internal_node_id":"0.0-3.0-0.41","subject_id":"607edd6030f140e8b94d477a","study_id":"606233c0e42b980319b6a18e","session_id":"60883471e7fad5c043f4dbc6","correct":true},{"rt":1257,"stimulus":"\n      <p>How sure are you?</p>\n      <p>Rate your confidence in your answer from 1 (pure guess) to 5 (very sure) by pressing the corresponding button.</p>\n     ","response":4,"image":"img/toaster_alternate.jpg","task":"confidence","old_or_new":"new","trial_type":"html-button-response","trial_index":86,"time_elapsed":224959,"internal_node_id":"0.0-3.0-1.41","subject_id":"607edd6030f140e8b94d477a","study_id":"606233c0e42b980319b6a18e","session_id":"60883471e7fad5c043f4dbc6"},{"rt":1379,"stimulus":"img/pizza_alternate.jpg","response":"n","image":"img/pizza_alternate.jpg","old_or_new":"new","task":"recognition","trial_type":"image-keyboard-response","trial_index":87,"time_elapsed":226843,"internal_node_id":"0.0-3.0-0.42","subject_id":"607edd6030f140e8b94d477a","study_id":"606233c0e42b980319b6a18e","session_id":"60883471e7fad5c043f4dbc6","correct":true},{"rt":627,"stimulus":"\n      <p>How sure are you?</p>\n      <p>Rate your confidence in your answer from 1 (pure guess) to 5 (very sure) by pressing the corresponding button.</p>\n     ","response":4,"image":"img/pizza_alternate.jpg","task":"confidence","old_or_new":"new","trial_type":"html-button-response","trial_index":88,"time_elapsed":227471,"internal_node_id":"0.0-3.0-1.42","subject_id":"607edd6030f140e8b94d477a","study_id":"606233c0e42b980319b6a18e","session_id":"60883471e7fad5c043f4dbc6"},{"rt":5648,"stimulus":"img/parfait_alternate.jpg","response":"n","image":"img/parfait_alternate.jpg","old_or_new":"new","task":"recognition","trial_type":"image-keyboard-response","trial_index":89,"time_elapsed":233636,"internal_node_id":"0.0-3.0-0.43","subject_id":"607edd6030f140e8b94d477a","study_id":"606233c0e42b980319b6a18e","session_id":"60883471e7fad5c043f4dbc6","correct":true},{"rt":1015,"stimulus":"\n      <p>How sure are you?</p>\n      <p>Rate your confidence in your answer from 1 (pure guess) to 5 (very sure) by pressing the corresponding button.</p>\n     ","response":4,"image":"img/parfait_alternate.jpg","task":"confidence","old_or_new":"new","trial_type":"html-button-response","trial_index":90,"time_elapsed":234651,"internal_node_id":"0.0-3.0-1.43","subject_id":"607edd6030f140e8b94d477a","study_id":"606233c0e42b980319b6a18e","session_id":"60883471e7fad5c043f4dbc6"},{"rt":1197,"stimulus":"img/shirt_alternate.jpg","response":"n","image":"img/shirt_alternate.jpg","old_or_new":"new","task":"recognition","trial_type":"image-keyboard-response","trial_index":91,"time_elapsed":236366,"internal_node_id":"0.0-3.0-0.44","subject_id":"607edd6030f140e8b94d477a","study_id":"606233c0e42b980319b6a18e","session_id":"60883471e7fad5c043f4dbc6","correct":true},{"rt":973,"stimulus":"\n      <p>How sure are you?</p>\n      <p>Rate your confidence in your answer from 1 (pure guess) to 5 (very sure) by pressing the corresponding button.</p>\n     ","response":4,"image":"img/shirt_alternate.jpg","task":"confidence","old_or_new":"new","trial_type":"html-button-response","trial_index":92,"time_elapsed":237339,"internal_node_id":"0.0-3.0-1.44","subject_id":"607edd6030f140e8b94d477a","study_id":"606233c0e42b980319b6a18e","session_id":"60883471e7fad5c043f4dbc6"},{"rt":837,"stimulus":"img/toothbrush_alternate.jpg","response":"n","image":"img/toothbrush_alternate.jpg","old_or_new":"new","task":"recognition","trial_type":"image-keyboard-response","trial_index":93,"time_elapsed":238685,"internal_node_id":"0.0-3.0-0.45","subject_id":"607edd6030f140e8b94d477a","study_id":"606233c0e42b980319b6a18e","session_id":"60883471e7fad5c043f4dbc6","correct":true},{"rt":629,"stimulus":"\n      <p>How sure are you?</p>\n      <p>Rate your confidence in your answer from 1 (pure guess) to 5 (very sure) by pressing the corresponding button.</p>\n     ","response":4,"image":"img/toothbrush_alternate.jpg","task":"confidence","old_or_new":"new","trial_type":"html-button-response","trial_index":94,"time_elapsed":239314,"internal_node_id":"0.0-3.0-1.45","subject_id":"607edd6030f140e8b94d477a","study_id":"606233c0e42b980319b6a18e","session_id":"60883471e7fad5c043f4dbc6"},{"rt":1428,"stimulus":"img/trophy.jpg","response":"y","image":"img/trophy.jpg","old_or_new":"old","task":"recognition","trial_type":"image-keyboard-response","trial_index":95,"time_elapsed":241249,"internal_node_id":"0.0-3.0-0.46","subject_id":"607edd6030f140e8b94d477a","study_id":"606233c0e42b980319b6a18e","session_id":"60883471e7fad5c043f4dbc6","correct":true},{"rt":727,"stimulus":"\n      <p>How sure are you?</p>\n      <p>Rate your confidence in your answer from 1 (pure guess) to 5 (very sure) by pressing the corresponding button.</p>\n     ","response":4,"image":"img/trophy.jpg","task":"confidence","old_or_new":"old","trial_type":"html-button-response","trial_index":96,"time_elapsed":241977,"internal_node_id":"0.0-3.0-1.46","subject_id":"607edd6030f140e8b94d477a","study_id":"606233c0e42b980319b6a18e","session_id":"60883471e7fad5c043f4dbc6"},{"rt":2708,"stimulus":"img/scissors.jpg","response":"y","image":"img/scissors.jpg","old_or_new":"old","task":"recognition","trial_type":"image-keyboard-response","trial_index":97,"time_elapsed":245196,"internal_node_id":"0.0-3.0-0.47","subject_id":"607edd6030f140e8b94d477a","study_id":"606233c0e42b980319b6a18e","session_id":"60883471e7fad5c043f4dbc6","correct":true},{"rt":1214,"stimulus":"\n      <p>How sure are you?</p>\n      <p>Rate your confidence in your answer from 1 (pure guess) to 5 (very sure) by pressing the corresponding button.</p>\n     ","response":4,"image":"img/scissors.jpg","task":"confidence","old_or_new":"old","trial_type":"html-button-response","trial_index":98,"time_elapsed":246411,"internal_node_id":"0.0-3.0-1.47","subject_id":"607edd6030f140e8b94d477a","study_id":"606233c0e42b980319b6a18e","session_id":"60883471e7fad5c043f4dbc6"}]