[{"success":true,"timeout":false,"failed_images":[],"failed_audio":[],"failed_video":[],"trial_type":"preload","trial_index":0,"time_elapsed":7203,"internal_node_id":"0.0-0.0","subject_id":"5e8e03539acb27066c117f7e","study_id":"606233c0e42b980319b6a18e","session_id":"608834a014dbe7705c08d5cd"},{"rt":13932.200000039302,"stimulus":"\n      <div style=\"width:800px; text-align: left;\">\n        <p>Welcome to day 2 of the experiment! Thanks for coming back.</p>\n        <p>You will be presented with a series of images. Images will appear one at a time.</p>\n        <p>Each image will remain on the screen until you press either <span style=\"font-weight: bold;\">\"y\" to indicate you have seen the \n        exact same photo the day before or \"n\" to indicate you have not seen the exact same photo the day before.</span></p>\n        <p>After you answer yes (\"y\") or no (\"n\"), you will then be prompted to rate your certainty on a scale of\n        1 (pure guess) to 5 (very sure).</p>\n      </div>\n    ","response":0,"trial_type":"html-button-response","trial_index":1,"time_elapsed":21136,"internal_node_id":"0.0-1.0","subject_id":"5e8e03539acb27066c117f7e","study_id":"606233c0e42b980319b6a18e","session_id":"608834a014dbe7705c08d5cd"},{"success":true,"trial_type":"fullscreen","trial_index":2,"time_elapsed":23888,"internal_node_id":"0.0-2.0","subject_id":"5e8e03539acb27066c117f7e","study_id":"606233c0e42b980319b6a18e","session_id":"608834a014dbe7705c08d5cd"},{"rt":1553.38500009384,"stimulus":"img/plane.jpg","response":"y","image":"img/plane.jpg","old_or_new":"old","task":"recognition","trial_type":"image-keyboard-response","trial_index":3,"time_elapsed":25454,"internal_node_id":"0.0-3.0-0.0","subject_id":"5e8e03539acb27066c117f7e","study_id":"606233c0e42b980319b6a18e","session_id":"608834a014dbe7705c08d5cd","correct":true},{"rt":892.8599999053404,"stimulus":"\n      <p>How sure are you?</p>\n      <p>Rate your confidence in your answer from 1 (pure guess) to 5 (very sure) by pressing the corresponding button.</p>\n     ","response":3,"image":"img/plane.jpg","task":"confidence","old_or_new":"old","trial_type":"html-button-response","trial_index":4,"time_elapsed":26348,"internal_node_id":"0.0-3.0-1.0","subject_id":"5e8e03539acb27066c117f7e","study_id":"606233c0e42b980319b6a18e","session_id":"608834a014dbe7705c08d5cd"},{"rt":1170.185000053607,"stimulus":"img/knife_alternate.jpg","response":"n","image":"img/knife_alternate.jpg","old_or_new":"new","task":"recognition","trial_type":"image-keyboard-response","trial_index":5,"time_elapsed":28021,"internal_node_id":"0.0-3.0-0.1","subject_id":"5e8e03539acb27066c117f7e","study_id":"606233c0e42b980319b6a18e","session_id":"608834a014dbe7705c08d5cd","correct":true},{"rt":1256.5350000513718,"stimulus":"\n      <p>How sure are you?</p>\n      <p>Rate your confidence in your answer from 1 (pure guess) to 5 (very sure) by pressing the corresponding button.</p>\n     ","response":4,"image":"img/knife_alternate.jpg","task":"confidence","old_or_new":"new","trial_type":"html-button-response","trial_index":6,"time_elapsed":29279,"internal_node_id":"0.0-3.0-1.1","subject_id":"5e8e03539acb27066c117f7e","study_id":"606233c0e42b980319b6a18e","session_id":"608834a014dbe7705c08d5cd"},{"rt":762.3250000178814,"stimulus":"img/sink_alternate.jpg","response":"n","image":"img/sink_alternate.jpg","old_or_new":"new","task":"recognition","trial_type":"image-keyboard-response","trial_index":7,"time_elapsed":30544,"internal_node_id":"0.0-3.0-0.2","subject_id":"5e8e03539acb27066c117f7e","study_id":"606233c0e42b980319b6a18e","session_id":"608834a014dbe7705c08d5cd","correct":true},{"rt":602.4650000035763,"stimulus":"\n      <p>How sure are you?</p>\n      <p>Rate your confidence in your answer from 1 (pure guess) to 5 (very sure) by pressing the corresponding button.</p>\n     ","response":4,"image":"img/sink_alternate.jpg","task":"confidence","old_or_new":"new","trial_type":"html-button-response","trial_index":8,"time_elapsed":31147,"internal_node_id":"0.0-3.0-1.2","subject_id":"5e8e03539acb27066c117f7e","study_id":"606233c0e42b980319b6a18e","session_id":"608834a014dbe7705c08d5cd"},{"rt":471.87000000849366,"stimulus":"img/shovel.jpg","response":"y","image":"img/shovel.jpg","old_or_new":"old","task":"recognition","trial_type":"image-keyboard-response","trial_index":9,"time_elapsed":32122,"internal_node_id":"0.0-3.0-0.3","subject_id":"5e8e03539acb27066c117f7e","study_id":"606233c0e42b980319b6a18e","session_id":"608834a014dbe7705c08d5cd","correct":true},{"rt":498.920000041835,"stimulus":"\n      <p>How sure are you?</p>\n      <p>Rate your confidence in your answer from 1 (pure guess) to 5 (very sure) by pressing the corresponding button.</p>\n     ","response":4,"image":"img/shovel.jpg","task":"confidence","old_or_new":"old","trial_type":"html-button-response","trial_index":10,"time_elapsed":32622,"internal_node_id":"0.0-3.0-1.3","subject_id":"5e8e03539acb27066c117f7e","study_id":"606233c0e42b980319b6a18e","session_id":"608834a014dbe7705c08d5cd"},{"rt":902.6999999769032,"stimulus":"img/plate_alternate.jpg","response":"n","image":"img/plate_alternate.jpg","old_or_new":"new","task":"recognition","trial_type":"image-keyboard-response","trial_index":11,"time_elapsed":34026,"internal_node_id":"0.0-3.0-0.4","subject_id":"5e8e03539acb27066c117f7e","study_id":"606233c0e42b980319b6a18e","session_id":"608834a014dbe7705c08d5cd","correct":true},{"rt":959.2650000704452,"stimulus":"\n      <p>How sure are you?</p>\n      <p>Rate your confidence in your answer from 1 (pure guess) to 5 (very sure) by pressing the corresponding button.</p>\n     ","response":3,"image":"img/plate_alternate.jpg","task":"confidence","old_or_new":"new","trial_type":"html-button-response","trial_index":12,"time_elapsed":34987,"internal_node_id":"0.0-3.0-1.4","subject_id":"5e8e03539acb27066c117f7e","study_id":"606233c0e42b980319b6a18e","session_id":"608834a014dbe7705c08d5cd"},{"rt":712.3800000408664,"stimulus":"img/watch.jpg","response":"y","image":"img/watch.jpg","old_or_new":"old","task":"recognition","trial_type":"image-keyboard-response","trial_index":13,"time_elapsed":36202,"internal_node_id":"0.0-3.0-0.5","subject_id":"5e8e03539acb27066c117f7e","study_id":"606233c0e42b980319b6a18e","session_id":"608834a014dbe7705c08d5cd","correct":true},{"rt":418.36499993223697,"stimulus":"\n      <p>How sure are you?</p>\n      <p>Rate your confidence in your answer from 1 (pure guess) to 5 (very sure) by pressing the corresponding button.</p>\n     ","response":4,"image":"img/watch.jpg","task":"confidence","old_or_new":"old","trial_type":"html-button-response","trial_index":14,"time_elapsed":36621,"internal_node_id":"0.0-3.0-1.5","subject_id":"5e8e03539acb27066c117f7e","study_id":"606233c0e42b980319b6a18e","session_id":"608834a014dbe7705c08d5cd"},{"rt":631.9599999114871,"stimulus":"img/wheel_barrow.jpg","response":"y","image":"img/wheel_barrow.jpg","old_or_new":"old","task":"recognition","trial_type":"image-keyboard-response","trial_index":15,"time_elapsed":37755,"internal_node_id":"0.0-3.0-0.6","subject_id":"5e8e03539acb27066c117f7e","study_id":"606233c0e42b980319b6a18e","session_id":"608834a014dbe7705c08d5cd","correct":true},{"rt":420.8699999144301,"stimulus":"\n      <p>How sure are you?</p>\n      <p>Rate your confidence in your answer from 1 (pure guess) to 5 (very sure) by pressing the corresponding button.</p>\n     ","response":4,"image":"img/wheel_barrow.jpg","task":"confidence","old_or_new":"old","trial_type":"html-button-response","trial_index":16,"time_elapsed":38177,"internal_node_id":"0.0-3.0-1.6","subject_id":"5e8e03539acb27066c117f7e","study_id":"606233c0e42b980319b6a18e","session_id":"608834a014dbe7705c08d5cd"},{"rt":608.9500000234693,"stimulus":"img/watch_alternate.jpg","response":"n","image":"img/watch_alternate.jpg","old_or_new":"new","task":"recognition","trial_type":"image-keyboard-response","trial_index":17,"time_elapsed":39288,"internal_node_id":"0.0-3.0-0.7","subject_id":"5e8e03539acb27066c117f7e","study_id":"606233c0e42b980319b6a18e","session_id":"608834a014dbe7705c08d5cd","correct":true},{"rt":727.8950000181794,"stimulus":"\n      <p>How sure are you?</p>\n      <p>Rate your confidence in your answer from 1 (pure guess) to 5 (very sure) by pressing the corresponding button.</p>\n     ","response":4,"image":"img/watch_alternate.jpg","task":"confidence","old_or_new":"new","trial_type":"html-button-response","trial_index":18,"time_elapsed":40017,"internal_node_id":"0.0-3.0-1.7","subject_id":"5e8e03539acb27066c117f7e","study_id":"606233c0e42b980319b6a18e","session_id":"608834a014dbe7705c08d5cd"},{"rt":1563.7550000101328,"stimulus":"img/scissors_alternate.jpg","response":"n","image":"img/scissors_alternate.jpg","old_or_new":"new","task":"recognition","trial_type":"image-keyboard-response","trial_index":19,"time_elapsed":42084,"internal_node_id":"0.0-3.0-0.8","subject_id":"5e8e03539acb27066c117f7e","study_id":"606233c0e42b980319b6a18e","session_id":"608834a014dbe7705c08d5cd","correct":true},{"rt":544.0399999497458,"stimulus":"\n      <p>How sure are you?</p>\n      <p>Rate your confidence in your answer from 1 (pure guess) to 5 (very sure) by pressing the corresponding button.</p>\n     ","response":2,"image":"img/scissors_alternate.jpg","task":"confidence","old_or_new":"new","trial_type":"html-button-response","trial_index":20,"time_elapsed":42629,"internal_node_id":"0.0-3.0-1.8","subject_id":"5e8e03539acb27066c117f7e","study_id":"606233c0e42b980319b6a18e","session_id":"608834a014dbe7705c08d5cd"},{"rt":689.4600000232458,"stimulus":"img/pizza_alternate.jpg","response":"n","image":"img/pizza_alternate.jpg","old_or_new":"new","task":"recognition","trial_type":"image-keyboard-response","trial_index":21,"time_elapsed":43821,"internal_node_id":"0.0-3.0-0.9","subject_id":"5e8e03539acb27066c117f7e","study_id":"606233c0e42b980319b6a18e","session_id":"608834a014dbe7705c08d5cd","correct":true},{"rt":1116.9999999692664,"stimulus":"\n      <p>How sure are you?</p>\n      <p>Rate your confidence in your answer from 1 (pure guess) to 5 (very sure) by pressing the corresponding button.</p>\n     ","response":4,"image":"img/pizza_alternate.jpg","task":"confidence","old_or_new":"new","trial_type":"html-button-response","trial_index":22,"time_elapsed":44939,"internal_node_id":"0.0-3.0-1.9","subject_id":"5e8e03539acb27066c117f7e","study_id":"606233c0e42b980319b6a18e","session_id":"608834a014dbe7705c08d5cd"},{"rt":626.4850000152364,"stimulus":"img/pencil_sharpener.jpg","response":"y","image":"img/pencil_sharpener.jpg","old_or_new":"old","task":"recognition","trial_type":"image-keyboard-response","trial_index":23,"time_elapsed":46068,"internal_node_id":"0.0-3.0-0.10","subject_id":"5e8e03539acb27066c117f7e","study_id":"606233c0e42b980319b6a18e","session_id":"608834a014dbe7705c08d5cd","correct":true},{"rt":428.50999999791384,"stimulus":"\n      <p>How sure are you?</p>\n      <p>Rate your confidence in your answer from 1 (pure guess) to 5 (very sure) by pressing the corresponding button.</p>\n     ","response":4,"image":"img/pencil_sharpener.jpg","task":"confidence","old_or_new":"old","trial_type":"html-button-response","trial_index":24,"time_elapsed":46497,"internal_node_id":"0.0-3.0-1.10","subject_id":"5e8e03539acb27066c117f7e","study_id":"606233c0e42b980319b6a18e","session_id":"608834a014dbe7705c08d5cd"},{"rt":734.6400000387803,"stimulus":"img/pencil_sharpener_alternate.jpg","response":"n","image":"img/pencil_sharpener_alternate.jpg","old_or_new":"new","task":"recognition","trial_type":"image-keyboard-response","trial_index":25,"time_elapsed":47734,"internal_node_id":"0.0-3.0-0.11","subject_id":"5e8e03539acb27066c117f7e","study_id":"606233c0e42b980319b6a18e","session_id":"608834a014dbe7705c08d5cd","correct":true},{"rt":462.4100000364706,"stimulus":"\n      <p>How sure are you?</p>\n      <p>Rate your confidence in your answer from 1 (pure guess) to 5 (very sure) by pressing the corresponding button.</p>\n     ","response":4,"image":"img/pencil_sharpener_alternate.jpg","task":"confidence","old_or_new":"new","trial_type":"html-button-response","trial_index":26,"time_elapsed":48198,"internal_node_id":"0.0-3.0-1.11","subject_id":"5e8e03539acb27066c117f7e","study_id":"606233c0e42b980319b6a18e","session_id":"608834a014dbe7705c08d5cd"},{"rt":671.3849999941885,"stimulus":"img/shoe.jpg","response":"y","image":"img/shoe.jpg","old_or_new":"old","task":"recognition","trial_type":"image-keyboard-response","trial_index":27,"time_elapsed":49372,"internal_node_id":"0.0-3.0-0.12","subject_id":"5e8e03539acb27066c117f7e","study_id":"606233c0e42b980319b6a18e","session_id":"608834a014dbe7705c08d5cd","correct":true},{"rt":595.0799999991432,"stimulus":"\n      <p>How sure are you?</p>\n      <p>Rate your confidence in your answer from 1 (pure guess) to 5 (very sure) by pressing the corresponding button.</p>\n     ","response":4,"image":"img/shoe.jpg","task":"confidence","old_or_new":"old","trial_type":"html-button-response","trial_index":28,"time_elapsed":49968,"internal_node_id":"0.0-3.0-1.12","subject_id":"5e8e03539acb27066c117f7e","study_id":"606233c0e42b980319b6a18e","session_id":"608834a014dbe7705c08d5cd"},{"rt":1166.1999999778345,"stimulus":"img/toothbrush_alternate.jpg","response":"n","image":"img/toothbrush_alternate.jpg","old_or_new":"new","task":"recognition","trial_type":"image-keyboard-response","trial_index":29,"time_elapsed":51636,"internal_node_id":"0.0-3.0-0.13","subject_id":"5e8e03539acb27066c117f7e","study_id":"606233c0e42b980319b6a18e","session_id":"608834a014dbe7705c08d5cd","correct":true},{"rt":619.6349998936057,"stimulus":"\n      <p>How sure are you?</p>\n      <p>Rate your confidence in your answer from 1 (pure guess) to 5 (very sure) by pressing the corresponding button.</p>\n     ","response":2,"image":"img/toothbrush_alternate.jpg","task":"confidence","old_or_new":"new","trial_type":"html-button-response","trial_index":30,"time_elapsed":52257,"internal_node_id":"0.0-3.0-1.13","subject_id":"5e8e03539acb27066c117f7e","study_id":"606233c0e42b980319b6a18e","session_id":"608834a014dbe7705c08d5cd"},{"rt":704.4749999186024,"stimulus":"img/wheel_barrow_alternate.jpg","response":"n","image":"img/wheel_barrow_alternate.jpg","old_or_new":"new","task":"recognition","trial_type":"image-keyboard-response","trial_index":31,"time_elapsed":53464,"internal_node_id":"0.0-3.0-0.14","subject_id":"5e8e03539acb27066c117f7e","study_id":"606233c0e42b980319b6a18e","session_id":"608834a014dbe7705c08d5cd","correct":true},{"rt":982.6699999393895,"stimulus":"\n      <p>How sure are you?</p>\n      <p>Rate your confidence in your answer from 1 (pure guess) to 5 (very sure) by pressing the corresponding button.</p>\n     ","response":4,"image":"img/wheel_barrow_alternate.jpg","task":"confidence","old_or_new":"new","trial_type":"html-button-response","trial_index":32,"time_elapsed":54449,"internal_node_id":"0.0-3.0-1.14","subject_id":"5e8e03539acb27066c117f7e","study_id":"606233c0e42b980319b6a18e","session_id":"608834a014dbe7705c08d5cd"},{"rt":1340.5100000090897,"stimulus":"img/yarn_alternate.jpg","response":"n","image":"img/yarn_alternate.jpg","old_or_new":"new","task":"recognition","trial_type":"image-keyboard-response","trial_index":33,"time_elapsed":56292,"internal_node_id":"0.0-3.0-0.15","subject_id":"5e8e03539acb27066c117f7e","study_id":"606233c0e42b980319b6a18e","session_id":"608834a014dbe7705c08d5cd","correct":true},{"rt":587.8149999771267,"stimulus":"\n      <p>How sure are you?</p>\n      <p>Rate your confidence in your answer from 1 (pure guess) to 5 (very sure) by pressing the corresponding button.</p>\n     ","response":4,"image":"img/yarn_alternate.jpg","task":"confidence","old_or_new":"new","trial_type":"html-button-response","trial_index":34,"time_elapsed":56881,"internal_node_id":"0.0-3.0-1.15","subject_id":"5e8e03539acb27066c117f7e","study_id":"606233c0e42b980319b6a18e","session_id":"608834a014dbe7705c08d5cd"},{"rt":719.455000013113,"stimulus":"img/tv.jpg","response":"y","image":"img/tv.jpg","old_or_new":"old","task":"recognition","trial_type":"image-keyboard-response","trial_index":35,"time_elapsed":58111,"internal_node_id":"0.0-3.0-0.16","subject_id":"5e8e03539acb27066c117f7e","study_id":"606233c0e42b980319b6a18e","session_id":"608834a014dbe7705c08d5cd","correct":true},{"rt":695.4149999655783,"stimulus":"\n      <p>How sure are you?</p>\n      <p>Rate your confidence in your answer from 1 (pure guess) to 5 (very sure) by pressing the corresponding button.</p>\n     ","response":4,"image":"img/tv.jpg","task":"confidence","old_or_new":"old","trial_type":"html-button-response","trial_index":36,"time_elapsed":58807,"internal_node_id":"0.0-3.0-1.16","subject_id":"5e8e03539acb27066c117f7e","study_id":"606233c0e42b980319b6a18e","session_id":"608834a014dbe7705c08d5cd"},{"rt":1728.289999999106,"stimulus":"img/pizza.jpg","response":"y","image":"img/pizza.jpg","old_or_new":"old","task":"recognition","trial_type":"image-keyboard-response","trial_index":37,"time_elapsed":61037,"internal_node_id":"0.0-3.0-0.17","subject_id":"5e8e03539acb27066c117f7e","study_id":"606233c0e42b980319b6a18e","session_id":"608834a014dbe7705c08d5cd","correct":true},{"rt":432.1399999316782,"stimulus":"\n      <p>How sure are you?</p>\n      <p>Rate your confidence in your answer from 1 (pure guess) to 5 (very sure) by pressing the corresponding button.</p>\n     ","response":4,"image":"img/pizza.jpg","task":"confidence","old_or_new":"old","trial_type":"html-button-response","trial_index":38,"time_elapsed":61471,"internal_node_id":"0.0-3.0-1.17","subject_id":"5e8e03539acb27066c117f7e","study_id":"606233c0e42b980319b6a18e","session_id":"608834a014dbe7705c08d5cd"},{"rt":749.1099999751896,"stimulus":"img/rolling_pin_alternate.jpg","response":"n","image":"img/rolling_pin_alternate.jpg","old_or_new":"new","task":"recognition","trial_type":"image-keyboard-response","trial_index":39,"time_elapsed":62722,"internal_node_id":"0.0-3.0-0.18","subject_id":"5e8e03539acb27066c117f7e","study_id":"606233c0e42b980319b6a18e","session_id":"608834a014dbe7705c08d5cd","correct":true},{"rt":494.4799999939278,"stimulus":"\n      <p>How sure are you?</p>\n      <p>Rate your confidence in your answer from 1 (pure guess) to 5 (very sure) by pressing the corresponding button.</p>\n     ","response":4,"image":"img/rolling_pin_alternate.jpg","task":"confidence","old_or_new":"new","trial_type":"html-button-response","trial_index":40,"time_elapsed":63217,"internal_node_id":"0.0-3.0-1.18","subject_id":"5e8e03539acb27066c117f7e","study_id":"606233c0e42b980319b6a18e","session_id":"608834a014dbe7705c08d5cd"},{"rt":587.6850000349805,"stimulus":"img/umbrella.jpg","response":"y","image":"img/umbrella.jpg","old_or_new":"old","task":"recognition","trial_type":"image-keyboard-response","trial_index":41,"time_elapsed":64307,"internal_node_id":"0.0-3.0-0.19","subject_id":"5e8e03539acb27066c117f7e","study_id":"606233c0e42b980319b6a18e","session_id":"608834a014dbe7705c08d5cd","correct":true},{"rt":420.1350000221282,"stimulus":"\n      <p>How sure are you?</p>\n      <p>Rate your confidence in your answer from 1 (pure guess) to 5 (very sure) by pressing the corresponding button.</p>\n     ","response":4,"image":"img/umbrella.jpg","task":"confidence","old_or_new":"old","trial_type":"html-button-response","trial_index":42,"time_elapsed":64728,"internal_node_id":"0.0-3.0-1.19","subject_id":"5e8e03539acb27066c117f7e","study_id":"606233c0e42b980319b6a18e","session_id":"608834a014dbe7705c08d5cd"},{"rt":1088.0599999800324,"stimulus":"img/toaster.jpg","response":"y","image":"img/toaster.jpg","old_or_new":"old","task":"recognition","trial_type":"image-keyboard-response","trial_index":43,"time_elapsed":66318,"internal_node_id":"0.0-3.0-0.20","subject_id":"5e8e03539acb27066c117f7e","study_id":"606233c0e42b980319b6a18e","session_id":"608834a014dbe7705c08d5cd","correct":true},{"rt":528.0050000874326,"stimulus":"\n      <p>How sure are you?</p>\n      <p>Rate your confidence in your answer from 1 (pure guess) to 5 (very sure) by pressing the corresponding button.</p>\n     ","response":4,"image":"img/toaster.jpg","task":"confidence","old_or_new":"old","trial_type":"html-button-response","trial_index":44,"time_elapsed":66848,"internal_node_id":"0.0-3.0-1.20","subject_id":"5e8e03539acb27066c117f7e","study_id":"606233c0e42b980319b6a18e","session_id":"608834a014dbe7705c08d5cd"},{"rt":766.3600000087172,"stimulus":"img/yarn.jpg","response":"y","image":"img/yarn.jpg","old_or_new":"old","task":"recognition","trial_type":"image-keyboard-response","trial_index":45,"time_elapsed":68117,"internal_node_id":"0.0-3.0-0.21","subject_id":"5e8e03539acb27066c117f7e","study_id":"606233c0e42b980319b6a18e","session_id":"608834a014dbe7705c08d5cd","correct":true},{"rt":390.91499999631196,"stimulus":"\n      <p>How sure are you?</p>\n      <p>Rate your confidence in your answer from 1 (pure guess) to 5 (very sure) by pressing the corresponding button.</p>\n     ","response":4,"image":"img/yarn.jpg","task":"confidence","old_or_new":"old","trial_type":"html-button-response","trial_index":46,"time_elapsed":68509,"internal_node_id":"0.0-3.0-1.21","subject_id":"5e8e03539acb27066c117f7e","study_id":"606233c0e42b980319b6a18e","session_id":"608834a014dbe7705c08d5cd"},{"rt":582.4799999827519,"stimulus":"img/seashell.jpg","response":"y","image":"img/seashell.jpg","old_or_new":"old","task":"recognition","trial_type":"image-keyboard-response","trial_index":47,"time_elapsed":69594,"internal_node_id":"0.0-3.0-0.22","subject_id":"5e8e03539acb27066c117f7e","study_id":"606233c0e42b980319b6a18e","session_id":"608834a014dbe7705c08d5cd","correct":true},{"rt":383.1800000043586,"stimulus":"\n      <p>How sure are you?</p>\n      <p>Rate your confidence in your answer from 1 (pure guess) to 5 (very sure) by pressing the corresponding button.</p>\n     ","response":4,"image":"img/seashell.jpg","task":"confidence","old_or_new":"old","trial_type":"html-button-response","trial_index":48,"time_elapsed":69978,"internal_node_id":"0.0-3.0-1.22","subject_id":"5e8e03539acb27066c117f7e","study_id":"606233c0e42b980319b6a18e","session_id":"608834a014dbe7705c08d5cd"},{"rt":598.2200000435114,"stimulus":"img/knife.jpg","response":"y","image":"img/knife.jpg","old_or_new":"old","task":"recognition","trial_type":"image-keyboard-response","trial_index":49,"time_elapsed":71080,"internal_node_id":"0.0-3.0-0.23","subject_id":"5e8e03539acb27066c117f7e","study_id":"606233c0e42b980319b6a18e","session_id":"608834a014dbe7705c08d5cd","correct":true},{"rt":442.5349999219179,"stimulus":"\n      <p>How sure are you?</p>\n      <p>Rate your confidence in your answer from 1 (pure guess) to 5 (very sure) by pressing the corresponding button.</p>\n     ","response":4,"image":"img/knife.jpg","task":"confidence","old_or_new":"old","trial_type":"html-button-response","trial_index":50,"time_elapsed":71523,"internal_node_id":"0.0-3.0-1.23","subject_id":"5e8e03539acb27066c117f7e","study_id":"606233c0e42b980319b6a18e","session_id":"608834a014dbe7705c08d5cd"},{"rt":885.6350000714883,"stimulus":"img/toaster_alternate.jpg","response":"n","image":"img/toaster_alternate.jpg","old_or_new":"new","task":"recognition","trial_type":"image-keyboard-response","trial_index":51,"time_elapsed":72911,"internal_node_id":"0.0-3.0-0.24","subject_id":"5e8e03539acb27066c117f7e","study_id":"606233c0e42b980319b6a18e","session_id":"608834a014dbe7705c08d5cd","correct":true},{"rt":504.8249999526888,"stimulus":"\n      <p>How sure are you?</p>\n      <p>Rate your confidence in your answer from 1 (pure guess) to 5 (very sure) by pressing the corresponding button.</p>\n     ","response":4,"image":"img/toaster_alternate.jpg","task":"confidence","old_or_new":"new","trial_type":"html-button-response","trial_index":52,"time_elapsed":73418,"internal_node_id":"0.0-3.0-1.24","subject_id":"5e8e03539acb27066c117f7e","study_id":"606233c0e42b980319b6a18e","session_id":"608834a014dbe7705c08d5cd"},{"rt":1108.3899999503046,"stimulus":"img/seashell_alternate.jpg","response":"n","image":"img/seashell_alternate.jpg","old_or_new":"new","task":"recognition","trial_type":"image-keyboard-response","trial_index":53,"time_elapsed":75028,"internal_node_id":"0.0-3.0-0.25","subject_id":"5e8e03539acb27066c117f7e","study_id":"606233c0e42b980319b6a18e","session_id":"608834a014dbe7705c08d5cd","correct":true},{"rt":740.5850000213832,"stimulus":"\n      <p>How sure are you?</p>\n      <p>Rate your confidence in your answer from 1 (pure guess) to 5 (very sure) by pressing the corresponding button.</p>\n     ","response":2,"image":"img/seashell_alternate.jpg","task":"confidence","old_or_new":"new","trial_type":"html-button-response","trial_index":54,"time_elapsed":75770,"internal_node_id":"0.0-3.0-1.25","subject_id":"5e8e03539acb27066c117f7e","study_id":"606233c0e42b980319b6a18e","session_id":"608834a014dbe7705c08d5cd"},{"rt":1485.8849999727681,"stimulus":"img/shovel_alternate.jpg","response":"n","image":"img/shovel_alternate.jpg","old_or_new":"new","task":"recognition","trial_type":"image-keyboard-response","trial_index":55,"time_elapsed":77758,"internal_node_id":"0.0-3.0-0.26","subject_id":"5e8e03539acb27066c117f7e","study_id":"606233c0e42b980319b6a18e","session_id":"608834a014dbe7705c08d5cd","correct":true},{"rt":377.2849999368191,"stimulus":"\n      <p>How sure are you?</p>\n      <p>Rate your confidence in your answer from 1 (pure guess) to 5 (very sure) by pressing the corresponding button.</p>\n     ","response":4,"image":"img/shovel_alternate.jpg","task":"confidence","old_or_new":"new","trial_type":"html-button-response","trial_index":56,"time_elapsed":78136,"internal_node_id":"0.0-3.0-1.26","subject_id":"5e8e03539acb27066c117f7e","study_id":"606233c0e42b980319b6a18e","session_id":"608834a014dbe7705c08d5cd"},{"rt":1181.3700000056997,"stimulus":"img/scissors.jpg","response":"n","image":"img/scissors.jpg","old_or_new":"old","task":"recognition","trial_type":"image-keyboard-response","trial_index":57,"time_elapsed":79819,"internal_node_id":"0.0-3.0-0.27","subject_id":"5e8e03539acb27066c117f7e","study_id":"606233c0e42b980319b6a18e","session_id":"608834a014dbe7705c08d5cd","correct":false},{"rt":453.04500008933246,"stimulus":"\n      <p>How sure are you?</p>\n      <p>Rate your confidence in your answer from 1 (pure guess) to 5 (very sure) by pressing the corresponding button.</p>\n     ","response":2,"image":"img/scissors.jpg","task":"confidence","old_or_new":"old","trial_type":"html-button-response","trial_index":58,"time_elapsed":80274,"internal_node_id":"0.0-3.0-1.27","subject_id":"5e8e03539acb27066c117f7e","study_id":"606233c0e42b980319b6a18e","session_id":"608834a014dbe7705c08d5cd"},{"rt":648.3200000366196,"stimulus":"img/power_cord.jpg","response":"y","image":"img/power_cord.jpg","old_or_new":"old","task":"recognition","trial_type":"image-keyboard-response","trial_index":59,"time_elapsed":81424,"internal_node_id":"0.0-3.0-0.28","subject_id":"5e8e03539acb27066c117f7e","study_id":"606233c0e42b980319b6a18e","session_id":"608834a014dbe7705c08d5cd","correct":true},{"rt":404.5349999796599,"stimulus":"\n      <p>How sure are you?</p>\n      <p>Rate your confidence in your answer from 1 (pure guess) to 5 (very sure) by pressing the corresponding button.</p>\n     ","response":4,"image":"img/power_cord.jpg","task":"confidence","old_or_new":"old","trial_type":"html-button-response","trial_index":60,"time_elapsed":81830,"internal_node_id":"0.0-3.0-1.28","subject_id":"5e8e03539acb27066c117f7e","study_id":"606233c0e42b980319b6a18e","session_id":"608834a014dbe7705c08d5cd"},{"rt":608.9449999853969,"stimulus":"img/skates.jpg","response":"n","image":"img/skates.jpg","old_or_new":"old","task":"recognition","trial_type":"image-keyboard-response","trial_index":61,"time_elapsed":82941,"internal_node_id":"0.0-3.0-0.29","subject_id":"5e8e03539acb27066c117f7e","study_id":"606233c0e42b980319b6a18e","session_id":"608834a014dbe7705c08d5cd","correct":false},{"rt":1830.2450000774115,"stimulus":"\n      <p>How sure are you?</p>\n      <p>Rate your confidence in your answer from 1 (pure guess) to 5 (very sure) by pressing the corresponding button.</p>\n     ","response":3,"image":"img/skates.jpg","task":"confidence","old_or_new":"old","trial_type":"html-button-response","trial_index":62,"time_elapsed":84772,"internal_node_id":"0.0-3.0-1.29","subject_id":"5e8e03539acb27066c117f7e","study_id":"606233c0e42b980319b6a18e","session_id":"608834a014dbe7705c08d5cd"},{"rt":1020.5149999819696,"stimulus":"img/spoon_alternate.jpg","response":"n","image":"img/spoon_alternate.jpg","old_or_new":"new","task":"recognition","trial_type":"image-keyboard-response","trial_index":63,"time_elapsed":86295,"internal_node_id":"0.0-3.0-0.30","subject_id":"5e8e03539acb27066c117f7e","study_id":"606233c0e42b980319b6a18e","session_id":"608834a014dbe7705c08d5cd","correct":true},{"rt":572.2999999998137,"stimulus":"\n      <p>How sure are you?</p>\n      <p>Rate your confidence in your answer from 1 (pure guess) to 5 (very sure) by pressing the corresponding button.</p>\n     ","response":4,"image":"img/spoon_alternate.jpg","task":"confidence","old_or_new":"new","trial_type":"html-button-response","trial_index":64,"time_elapsed":86869,"internal_node_id":"0.0-3.0-1.30","subject_id":"5e8e03539acb27066c117f7e","study_id":"606233c0e42b980319b6a18e","session_id":"608834a014dbe7705c08d5cd"},{"rt":669.3899999372661,"stimulus":"img/tv_alternate.jpg","response":"n","image":"img/tv_alternate.jpg","old_or_new":"new","task":"recognition","trial_type":"image-keyboard-response","trial_index":65,"time_elapsed":88040,"internal_node_id":"0.0-3.0-0.31","subject_id":"5e8e03539acb27066c117f7e","study_id":"606233c0e42b980319b6a18e","session_id":"608834a014dbe7705c08d5cd","correct":true},{"rt":620.5449999542907,"stimulus":"\n      <p>How sure are you?</p>\n      <p>Rate your confidence in your answer from 1 (pure guess) to 5 (very sure) by pressing the corresponding button.</p>\n     ","response":4,"image":"img/tv_alternate.jpg","task":"confidence","old_or_new":"new","trial_type":"html-button-response","trial_index":66,"time_elapsed":88663,"internal_node_id":"0.0-3.0-1.31","subject_id":"5e8e03539acb27066c117f7e","study_id":"606233c0e42b980319b6a18e","session_id":"608834a014dbe7705c08d5cd"},{"rt":910.4900000384077,"stimulus":"img/shirt.jpg","response":"n","image":"img/shirt.jpg","old_or_new":"old","task":"recognition","trial_type":"image-keyboard-response","trial_index":67,"time_elapsed":90076,"internal_node_id":"0.0-3.0-0.32","subject_id":"5e8e03539acb27066c117f7e","study_id":"606233c0e42b980319b6a18e","session_id":"608834a014dbe7705c08d5cd","correct":false},{"rt":652.5649999966845,"stimulus":"\n      <p>How sure are you?</p>\n      <p>Rate your confidence in your answer from 1 (pure guess) to 5 (very sure) by pressing the corresponding button.</p>\n     ","response":2,"image":"img/shirt.jpg","task":"confidence","old_or_new":"old","trial_type":"html-button-response","trial_index":68,"time_elapsed":90730,"internal_node_id":"0.0-3.0-1.32","subject_id":"5e8e03539acb27066c117f7e","study_id":"606233c0e42b980319b6a18e","session_id":"608834a014dbe7705c08d5cd"},{"rt":681.5349999815226,"stimulus":"img/trophy.jpg","response":"n","image":"img/trophy.jpg","old_or_new":"old","task":"recognition","trial_type":"image-keyboard-response","trial_index":69,"time_elapsed":91913,"internal_node_id":"0.0-3.0-0.33","subject_id":"5e8e03539acb27066c117f7e","study_id":"606233c0e42b980319b6a18e","session_id":"608834a014dbe7705c08d5cd","correct":false},{"rt":928.9649999700487,"stimulus":"\n      <p>How sure are you?</p>\n      <p>Rate your confidence in your answer from 1 (pure guess) to 5 (very sure) by pressing the corresponding button.</p>\n     ","response":3,"image":"img/trophy.jpg","task":"confidence","old_or_new":"old","trial_type":"html-button-response","trial_index":70,"time_elapsed":92846,"internal_node_id":"0.0-3.0-1.33","subject_id":"5e8e03539acb27066c117f7e","study_id":"606233c0e42b980319b6a18e","session_id":"608834a014dbe7705c08d5cd"},{"rt":764.4599999766797,"stimulus":"img/skates_alternate.jpg","response":"n","image":"img/skates_alternate.jpg","old_or_new":"new","task":"recognition","trial_type":"image-keyboard-response","trial_index":71,"time_elapsed":94112,"internal_node_id":"0.0-3.0-0.34","subject_id":"5e8e03539acb27066c117f7e","study_id":"606233c0e42b980319b6a18e","session_id":"608834a014dbe7705c08d5cd","correct":true},{"rt":674.2249999660999,"stimulus":"\n      <p>How sure are you?</p>\n      <p>Rate your confidence in your answer from 1 (pure guess) to 5 (very sure) by pressing the corresponding button.</p>\n     ","response":4,"image":"img/skates_alternate.jpg","task":"confidence","old_or_new":"new","trial_type":"html-button-response","trial_index":72,"time_elapsed":94788,"internal_node_id":"0.0-3.0-1.34","subject_id":"5e8e03539acb27066c117f7e","study_id":"606233c0e42b980319b6a18e","session_id":"608834a014dbe7705c08d5cd"},{"rt":741.7150000110269,"stimulus":"img/toothbrush.jpg","response":"y","image":"img/toothbrush.jpg","old_or_new":"old","task":"recognition","trial_type":"image-keyboard-response","trial_index":73,"time_elapsed":96031,"internal_node_id":"0.0-3.0-0.35","subject_id":"5e8e03539acb27066c117f7e","study_id":"606233c0e42b980319b6a18e","session_id":"608834a014dbe7705c08d5cd","correct":true},{"rt":1176.9300000742078,"stimulus":"\n      <p>How sure are you?</p>\n      <p>Rate your confidence in your answer from 1 (pure guess) to 5 (very sure) by pressing the corresponding button.</p>\n     ","response":2,"image":"img/toothbrush.jpg","task":"confidence","old_or_new":"old","trial_type":"html-button-response","trial_index":74,"time_elapsed":97210,"internal_node_id":"0.0-3.0-1.35","subject_id":"5e8e03539acb27066c117f7e","study_id":"606233c0e42b980319b6a18e","session_id":"608834a014dbe7705c08d5cd"},{"rt":690.0049999821931,"stimulus":"img/umbrella_alternate.jpg","response":"n","image":"img/umbrella_alternate.jpg","old_or_new":"new","task":"recognition","trial_type":"image-keyboard-response","trial_index":75,"time_elapsed":98402,"internal_node_id":"0.0-3.0-0.36","subject_id":"5e8e03539acb27066c117f7e","study_id":"606233c0e42b980319b6a18e","session_id":"608834a014dbe7705c08d5cd","correct":true},{"rt":607.1650000521913,"stimulus":"\n      <p>How sure are you?</p>\n      <p>Rate your confidence in your answer from 1 (pure guess) to 5 (very sure) by pressing the corresponding button.</p>\n     ","response":4,"image":"img/umbrella_alternate.jpg","task":"confidence","old_or_new":"new","trial_type":"html-button-response","trial_index":76,"time_elapsed":99010,"internal_node_id":"0.0-3.0-1.36","subject_id":"5e8e03539acb27066c117f7e","study_id":"606233c0e42b980319b6a18e","session_id":"608834a014dbe7705c08d5cd"},{"rt":606.5800000214949,"stimulus":"img/plane_alternate.jpg","response":"n","image":"img/plane_alternate.jpg","old_or_new":"new","task":"recognition","trial_type":"image-keyboard-response","trial_index":77,"time_elapsed":100119,"internal_node_id":"0.0-3.0-0.37","subject_id":"5e8e03539acb27066c117f7e","study_id":"606233c0e42b980319b6a18e","session_id":"608834a014dbe7705c08d5cd","correct":true},{"rt":1429.7300000907853,"stimulus":"\n      <p>How sure are you?</p>\n      <p>Rate your confidence in your answer from 1 (pure guess) to 5 (very sure) by pressing the corresponding button.</p>\n     ","response":4,"image":"img/plane_alternate.jpg","task":"confidence","old_or_new":"new","trial_type":"html-button-response","trial_index":78,"time_elapsed":101549,"internal_node_id":"0.0-3.0-1.37","subject_id":"5e8e03539acb27066c117f7e","study_id":"606233c0e42b980319b6a18e","session_id":"608834a014dbe7705c08d5cd"},{"rt":641.0599999362603,"stimulus":"img/power_cord_alternate.jpg","response":"n","image":"img/power_cord_alternate.jpg","old_or_new":"new","task":"recognition","trial_type":"image-keyboard-response","trial_index":79,"time_elapsed":102692,"internal_node_id":"0.0-3.0-0.38","subject_id":"5e8e03539acb27066c117f7e","study_id":"606233c0e42b980319b6a18e","session_id":"608834a014dbe7705c08d5cd","correct":true},{"rt":425.20499997772276,"stimulus":"\n      <p>How sure are you?</p>\n      <p>Rate your confidence in your answer from 1 (pure guess) to 5 (very sure) by pressing the corresponding button.</p>\n     ","response":4,"image":"img/power_cord_alternate.jpg","task":"confidence","old_or_new":"new","trial_type":"html-button-response","trial_index":80,"time_elapsed":103119,"internal_node_id":"0.0-3.0-1.38","subject_id":"5e8e03539acb27066c117f7e","study_id":"606233c0e42b980319b6a18e","session_id":"608834a014dbe7705c08d5cd"},{"rt":529.5949999708682,"stimulus":"img/parfait_alternate.jpg","response":"n","image":"img/parfait_alternate.jpg","old_or_new":"new","task":"recognition","trial_type":"image-keyboard-response","trial_index":81,"time_elapsed":104150,"internal_node_id":"0.0-3.0-0.39","subject_id":"5e8e03539acb27066c117f7e","study_id":"606233c0e42b980319b6a18e","session_id":"608834a014dbe7705c08d5cd","correct":true},{"rt":615.8100001048297,"stimulus":"\n      <p>How sure are you?</p>\n      <p>Rate your confidence in your answer from 1 (pure guess) to 5 (very sure) by pressing the corresponding button.</p>\n     ","response":4,"image":"img/parfait_alternate.jpg","task":"confidence","old_or_new":"new","trial_type":"html-button-response","trial_index":82,"time_elapsed":104767,"internal_node_id":"0.0-3.0-1.39","subject_id":"5e8e03539acb27066c117f7e","study_id":"606233c0e42b980319b6a18e","session_id":"608834a014dbe7705c08d5cd"},{"rt":513.7600000016391,"stimulus":"img/rolling_pin.jpg","response":"y","image":"img/rolling_pin.jpg","old_or_new":"old","task":"recognition","trial_type":"image-keyboard-response","trial_index":83,"time_elapsed":105783,"internal_node_id":"0.0-3.0-0.40","subject_id":"5e8e03539acb27066c117f7e","study_id":"606233c0e42b980319b6a18e","session_id":"608834a014dbe7705c08d5cd","correct":true},{"rt":417.6200000802055,"stimulus":"\n      <p>How sure are you?</p>\n      <p>Rate your confidence in your answer from 1 (pure guess) to 5 (very sure) by pressing the corresponding button.</p>\n     ","response":4,"image":"img/rolling_pin.jpg","task":"confidence","old_or_new":"old","trial_type":"html-button-response","trial_index":84,"time_elapsed":106202,"internal_node_id":"0.0-3.0-1.40","subject_id":"5e8e03539acb27066c117f7e","study_id":"606233c0e42b980319b6a18e","session_id":"608834a014dbe7705c08d5cd"},{"rt":1271.4449999621138,"stimulus":"img/trophy_alternate.jpg","response":"n","image":"img/trophy_alternate.jpg","old_or_new":"new","task":"recognition","trial_type":"image-keyboard-response","trial_index":85,"time_elapsed":107975,"internal_node_id":"0.0-3.0-0.41","subject_id":"5e8e03539acb27066c117f7e","study_id":"606233c0e42b980319b6a18e","session_id":"608834a014dbe7705c08d5cd","correct":true},{"rt":943.4900000924245,"stimulus":"\n      <p>How sure are you?</p>\n      <p>Rate your confidence in your answer from 1 (pure guess) to 5 (very sure) by pressing the corresponding button.</p>\n     ","response":3,"image":"img/trophy_alternate.jpg","task":"confidence","old_or_new":"new","trial_type":"html-button-response","trial_index":86,"time_elapsed":108920,"internal_node_id":"0.0-3.0-1.41","subject_id":"5e8e03539acb27066c117f7e","study_id":"606233c0e42b980319b6a18e","session_id":"608834a014dbe7705c08d5cd"},{"rt":767.6099999807775,"stimulus":"img/parfait.jpg","response":"y","image":"img/parfait.jpg","old_or_new":"old","task":"recognition","trial_type":"image-keyboard-response","trial_index":87,"time_elapsed":110189,"internal_node_id":"0.0-3.0-0.42","subject_id":"5e8e03539acb27066c117f7e","study_id":"606233c0e42b980319b6a18e","session_id":"608834a014dbe7705c08d5cd","correct":true},{"rt":555.5299998959526,"stimulus":"\n      <p>How sure are you?</p>\n      <p>Rate your confidence in your answer from 1 (pure guess) to 5 (very sure) by pressing the corresponding button.</p>\n     ","response":4,"image":"img/parfait.jpg","task":"confidence","old_or_new":"old","trial_type":"html-button-response","trial_index":88,"time_elapsed":110746,"internal_node_id":"0.0-3.0-1.42","subject_id":"5e8e03539acb27066c117f7e","study_id":"606233c0e42b980319b6a18e","session_id":"608834a014dbe7705c08d5cd"},{"rt":656.3300000270829,"stimulus":"img/spoon.jpg","response":"y","image":"img/spoon.jpg","old_or_new":"old","task":"recognition","trial_type":"image-keyboard-response","trial_index":89,"time_elapsed":111904,"internal_node_id":"0.0-3.0-0.43","subject_id":"5e8e03539acb27066c117f7e","study_id":"606233c0e42b980319b6a18e","session_id":"608834a014dbe7705c08d5cd","correct":true},{"rt":360.1550000021234,"stimulus":"\n      <p>How sure are you?</p>\n      <p>Rate your confidence in your answer from 1 (pure guess) to 5 (very sure) by pressing the corresponding button.</p>\n     ","response":4,"image":"img/spoon.jpg","task":"confidence","old_or_new":"old","trial_type":"html-button-response","trial_index":90,"time_elapsed":112266,"internal_node_id":"0.0-3.0-1.43","subject_id":"5e8e03539acb27066c117f7e","study_id":"606233c0e42b980319b6a18e","session_id":"608834a014dbe7705c08d5cd"},{"rt":597.1900000004098,"stimulus":"img/sink.jpg","response":"y","image":"img/sink.jpg","old_or_new":"old","task":"recognition","trial_type":"image-keyboard-response","trial_index":91,"time_elapsed":113366,"internal_node_id":"0.0-3.0-0.44","subject_id":"5e8e03539acb27066c117f7e","study_id":"606233c0e42b980319b6a18e","session_id":"608834a014dbe7705c08d5cd","correct":true},{"rt":2337.1050000423566,"stimulus":"\n      <p>How sure are you?</p>\n      <p>Rate your confidence in your answer from 1 (pure guess) to 5 (very sure) by pressing the corresponding button.</p>\n     ","response":2,"image":"img/sink.jpg","task":"confidence","old_or_new":"old","trial_type":"html-button-response","trial_index":92,"time_elapsed":115705,"internal_node_id":"0.0-3.0-1.44","subject_id":"5e8e03539acb27066c117f7e","study_id":"606233c0e42b980319b6a18e","session_id":"608834a014dbe7705c08d5cd"},{"rt":652.8650000691414,"stimulus":"img/plate.jpg","response":"y","image":"img/plate.jpg","old_or_new":"old","task":"recognition","trial_type":"image-keyboard-response","trial_index":93,"time_elapsed":116859,"internal_node_id":"0.0-3.0-0.45","subject_id":"5e8e03539acb27066c117f7e","study_id":"606233c0e42b980319b6a18e","session_id":"608834a014dbe7705c08d5cd","correct":true},{"rt":1004.8200000310317,"stimulus":"\n      <p>How sure are you?</p>\n      <p>Rate your confidence in your answer from 1 (pure guess) to 5 (very sure) by pressing the corresponding button.</p>\n     ","response":4,"image":"img/plate.jpg","task":"confidence","old_or_new":"old","trial_type":"html-button-response","trial_index":94,"time_elapsed":117865,"internal_node_id":"0.0-3.0-1.45","subject_id":"5e8e03539acb27066c117f7e","study_id":"606233c0e42b980319b6a18e","session_id":"608834a014dbe7705c08d5cd"},{"rt":899.8700000811368,"stimulus":"img/shirt_alternate.jpg","response":"n","image":"img/shirt_alternate.jpg","old_or_new":"new","task":"recognition","trial_type":"image-keyboard-response","trial_index":95,"time_elapsed":119266,"internal_node_id":"0.0-3.0-0.46","subject_id":"5e8e03539acb27066c117f7e","study_id":"606233c0e42b980319b6a18e","session_id":"608834a014dbe7705c08d5cd","correct":true},{"rt":776.2349999975413,"stimulus":"\n      <p>How sure are you?</p>\n      <p>Rate your confidence in your answer from 1 (pure guess) to 5 (very sure) by pressing the corresponding button.</p>\n     ","response":2,"image":"img/shirt_alternate.jpg","task":"confidence","old_or_new":"new","trial_type":"html-button-response","trial_index":96,"time_elapsed":120043,"internal_node_id":"0.0-3.0-1.46","subject_id":"5e8e03539acb27066c117f7e","study_id":"606233c0e42b980319b6a18e","session_id":"608834a014dbe7705c08d5cd"},{"rt":607.5750000309199,"stimulus":"img/shoe_alternate.jpg","response":"n","image":"img/shoe_alternate.jpg","old_or_new":"new","task":"recognition","trial_type":"image-keyboard-response","trial_index":97,"time_elapsed":121152,"internal_node_id":"0.0-3.0-0.47","subject_id":"5e8e03539acb27066c117f7e","study_id":"606233c0e42b980319b6a18e","session_id":"608834a014dbe7705c08d5cd","correct":true},{"rt":1075.334999943152,"stimulus":"\n      <p>How sure are you?</p>\n      <p>Rate your confidence in your answer from 1 (pure guess) to 5 (very sure) by pressing the corresponding button.</p>\n     ","response":3,"image":"img/shoe_alternate.jpg","task":"confidence","old_or_new":"new","trial_type":"html-button-response","trial_index":98,"time_elapsed":122228,"internal_node_id":"0.0-3.0-1.47","subject_id":"5e8e03539acb27066c117f7e","study_id":"606233c0e42b980319b6a18e","session_id":"608834a014dbe7705c08d5cd"}]