[{"success":true,"timeout":false,"failed_images":[],"failed_audio":[],"failed_video":[],"trial_type":"preload","trial_index":0,"time_elapsed":4987,"internal_node_id":"0.0-0.0","subject_id":"5ffc5d47cfbe9e000888de2b","study_id":"607de2837874a824e2e8c6ec","session_id":"608920e72ee6013d90bea497"},{"rt":3502.7899999986403,"stimulus":"\n      <div style=\"width:800px; text-align: left;\">\n        <p>Welcome to day 2 of the experiment! Thanks for coming back.</p>\n        <p>You will be presented with a series of images. Images will appear one at a time.</p>\n        <p>Each image will remain on the screen until you press either <span style=\"font-weight: bold;\">\"y\" to indicate you have seen the \n        exact same photo the day before or \"n\" to indicate you have not seen the exact same photo the day before.</span></p>\n        <p>After you answer yes (\"y\") or no (\"n\"), you will then be prompted to rate your certainty on a scale of\n        1 (pure guess) to 5 (very sure).</p>\n      </div>\n    ","response":0,"trial_type":"html-button-response","trial_index":1,"time_elapsed":8492,"internal_node_id":"0.0-1.0","subject_id":"5ffc5d47cfbe9e000888de2b","study_id":"607de2837874a824e2e8c6ec","session_id":"608920e72ee6013d90bea497"},{"success":true,"trial_type":"fullscreen","trial_index":2,"time_elapsed":14007,"internal_node_id":"0.0-2.0","subject_id":"5ffc5d47cfbe9e000888de2b","study_id":"607de2837874a824e2e8c6ec","session_id":"608920e72ee6013d90bea497"},{"rt":6480.074999999488,"stimulus":"img/dryer_alternate.jpg","response":"y","image":"img/dryer_alternate.jpg","old_or_new":"new","task":"recognition","trial_type":"image-keyboard-response","trial_index":3,"time_elapsed":20497,"internal_node_id":"0.0-3.0-0.0","subject_id":"5ffc5d47cfbe9e000888de2b","study_id":"607de2837874a824e2e8c6ec","session_id":"608920e72ee6013d90bea497","correct":false},{"rt":2143.1049999991956,"stimulus":"\n      <p>How sure are you?</p>\n      <p>Rate your confidence in your answer from 1 (pure guess) to 5 (very sure) by pressing the corresponding button.</p>\n     ","response":2,"image":"img/dryer_alternate.jpg","task":"confidence","old_or_new":"new","trial_type":"html-button-response","trial_index":4,"time_elapsed":22642,"internal_node_id":"0.0-3.0-1.0","subject_id":"5ffc5d47cfbe9e000888de2b","study_id":"607de2837874a824e2e8c6ec","session_id":"608920e72ee6013d90bea497"},{"rt":1576.615000001766,"stimulus":"img/camera.jpg","response":"n","image":"img/camera.jpg","old_or_new":"old","task":"recognition","trial_type":"image-keyboard-response","trial_index":5,"time_elapsed":24722,"internal_node_id":"0.0-3.0-0.1","subject_id":"5ffc5d47cfbe9e000888de2b","study_id":"607de2837874a824e2e8c6ec","session_id":"608920e72ee6013d90bea497","correct":false},{"rt":1289.7649999977148,"stimulus":"\n      <p>How sure are you?</p>\n      <p>Rate your confidence in your answer from 1 (pure guess) to 5 (very sure) by pressing the corresponding button.</p>\n     ","response":2,"image":"img/camera.jpg","task":"confidence","old_or_new":"old","trial_type":"html-button-response","trial_index":6,"time_elapsed":26013,"internal_node_id":"0.0-3.0-1.1","subject_id":"5ffc5d47cfbe9e000888de2b","study_id":"607de2837874a824e2e8c6ec","session_id":"608920e72ee6013d90bea497"},{"rt":2393.049999998766,"stimulus":"img/camera_alternate.jpg","response":"n","image":"img/camera_alternate.jpg","old_or_new":"new","task":"recognition","trial_type":"image-keyboard-response","trial_index":7,"time_elapsed":28909,"internal_node_id":"0.0-3.0-0.2","subject_id":"5ffc5d47cfbe9e000888de2b","study_id":"607de2837874a824e2e8c6ec","session_id":"608920e72ee6013d90bea497","correct":true},{"rt":2854.575000001205,"stimulus":"\n      <p>How sure are you?</p>\n      <p>Rate your confidence in your answer from 1 (pure guess) to 5 (very sure) by pressing the corresponding button.</p>\n     ","response":3,"image":"img/camera_alternate.jpg","task":"confidence","old_or_new":"new","trial_type":"html-button-response","trial_index":8,"time_elapsed":31764,"internal_node_id":"0.0-3.0-1.2","subject_id":"5ffc5d47cfbe9e000888de2b","study_id":"607de2837874a824e2e8c6ec","session_id":"608920e72ee6013d90bea497"},{"rt":1456.9650000012189,"stimulus":"img/globe_alternate.jpg","response":"y","image":"img/globe_alternate.jpg","old_or_new":"new","task":"recognition","trial_type":"image-keyboard-response","trial_index":9,"time_elapsed":33724,"internal_node_id":"0.0-3.0-0.3","subject_id":"5ffc5d47cfbe9e000888de2b","study_id":"607de2837874a824e2e8c6ec","session_id":"608920e72ee6013d90bea497","correct":false},{"rt":1047.725000000355,"stimulus":"\n      <p>How sure are you?</p>\n      <p>Rate your confidence in your answer from 1 (pure guess) to 5 (very sure) by pressing the corresponding button.</p>\n     ","response":4,"image":"img/globe_alternate.jpg","task":"confidence","old_or_new":"new","trial_type":"html-button-response","trial_index":10,"time_elapsed":34773,"internal_node_id":"0.0-3.0-1.3","subject_id":"5ffc5d47cfbe9e000888de2b","study_id":"607de2837874a824e2e8c6ec","session_id":"608920e72ee6013d90bea497"},{"rt":1217.7800000026764,"stimulus":"img/globe.jpg","response":"y","image":"img/globe.jpg","old_or_new":"old","task":"recognition","trial_type":"image-keyboard-response","trial_index":11,"time_elapsed":36496,"internal_node_id":"0.0-3.0-0.4","subject_id":"5ffc5d47cfbe9e000888de2b","study_id":"607de2837874a824e2e8c6ec","session_id":"608920e72ee6013d90bea497","correct":true},{"rt":598.9599999993516,"stimulus":"\n      <p>How sure are you?</p>\n      <p>Rate your confidence in your answer from 1 (pure guess) to 5 (very sure) by pressing the corresponding button.</p>\n     ","response":4,"image":"img/globe.jpg","task":"confidence","old_or_new":"old","trial_type":"html-button-response","trial_index":12,"time_elapsed":37097,"internal_node_id":"0.0-3.0-1.4","subject_id":"5ffc5d47cfbe9e000888de2b","study_id":"607de2837874a824e2e8c6ec","session_id":"608920e72ee6013d90bea497"},{"rt":974.1100000028382,"stimulus":"img/key.jpg","response":"y","image":"img/key.jpg","old_or_new":"old","task":"recognition","trial_type":"image-keyboard-response","trial_index":13,"time_elapsed":38574,"internal_node_id":"0.0-3.0-0.5","subject_id":"5ffc5d47cfbe9e000888de2b","study_id":"607de2837874a824e2e8c6ec","session_id":"608920e72ee6013d90bea497","correct":true},{"rt":456.8550000003597,"stimulus":"\n      <p>How sure are you?</p>\n      <p>Rate your confidence in your answer from 1 (pure guess) to 5 (very sure) by pressing the corresponding button.</p>\n     ","response":4,"image":"img/key.jpg","task":"confidence","old_or_new":"old","trial_type":"html-button-response","trial_index":14,"time_elapsed":39032,"internal_node_id":"0.0-3.0-1.5","subject_id":"5ffc5d47cfbe9e000888de2b","study_id":"607de2837874a824e2e8c6ec","session_id":"608920e72ee6013d90bea497"},{"rt":1457.299999998213,"stimulus":"img/bowl.jpg","response":"n","image":"img/bowl.jpg","old_or_new":"old","task":"recognition","trial_type":"image-keyboard-response","trial_index":15,"time_elapsed":40993,"internal_node_id":"0.0-3.0-0.6","subject_id":"5ffc5d47cfbe9e000888de2b","study_id":"607de2837874a824e2e8c6ec","session_id":"608920e72ee6013d90bea497","correct":false},{"rt":1384.4949999984237,"stimulus":"\n      <p>How sure are you?</p>\n      <p>Rate your confidence in your answer from 1 (pure guess) to 5 (very sure) by pressing the corresponding button.</p>\n     ","response":2,"image":"img/bowl.jpg","task":"confidence","old_or_new":"old","trial_type":"html-button-response","trial_index":16,"time_elapsed":42378,"internal_node_id":"0.0-3.0-1.6","subject_id":"5ffc5d47cfbe9e000888de2b","study_id":"607de2837874a824e2e8c6ec","session_id":"608920e72ee6013d90bea497"},{"rt":2170.9699999992154,"stimulus":"img/key_alternate.jpg","response":"n","image":"img/key_alternate.jpg","old_or_new":"new","task":"recognition","trial_type":"image-keyboard-response","trial_index":17,"time_elapsed":45053,"internal_node_id":"0.0-3.0-0.7","subject_id":"5ffc5d47cfbe9e000888de2b","study_id":"607de2837874a824e2e8c6ec","session_id":"608920e72ee6013d90bea497","correct":true},{"rt":821.6749999992317,"stimulus":"\n      <p>How sure are you?</p>\n      <p>Rate your confidence in your answer from 1 (pure guess) to 5 (very sure) by pressing the corresponding button.</p>\n     ","response":2,"image":"img/key_alternate.jpg","task":"confidence","old_or_new":"new","trial_type":"html-button-response","trial_index":18,"time_elapsed":45876,"internal_node_id":"0.0-3.0-1.7","subject_id":"5ffc5d47cfbe9e000888de2b","study_id":"607de2837874a824e2e8c6ec","session_id":"608920e72ee6013d90bea497"},{"rt":1138.2749999975204,"stimulus":"img/ladder.jpg","response":"y","image":"img/ladder.jpg","old_or_new":"old","task":"recognition","trial_type":"image-keyboard-response","trial_index":19,"time_elapsed":47517,"internal_node_id":"0.0-3.0-0.8","subject_id":"5ffc5d47cfbe9e000888de2b","study_id":"607de2837874a824e2e8c6ec","session_id":"608920e72ee6013d90bea497","correct":true},{"rt":994.0500000011525,"stimulus":"\n      <p>How sure are you?</p>\n      <p>Rate your confidence in your answer from 1 (pure guess) to 5 (very sure) by pressing the corresponding button.</p>\n     ","response":4,"image":"img/ladder.jpg","task":"confidence","old_or_new":"old","trial_type":"html-button-response","trial_index":20,"time_elapsed":48513,"internal_node_id":"0.0-3.0-1.8","subject_id":"5ffc5d47cfbe9e000888de2b","study_id":"607de2837874a824e2e8c6ec","session_id":"608920e72ee6013d90bea497"},{"rt":977.920000001177,"stimulus":"img/helmet_alternate.jpg","response":"n","image":"img/helmet_alternate.jpg","old_or_new":"new","task":"recognition","trial_type":"image-keyboard-response","trial_index":21,"time_elapsed":49993,"internal_node_id":"0.0-3.0-0.9","subject_id":"5ffc5d47cfbe9e000888de2b","study_id":"607de2837874a824e2e8c6ec","session_id":"608920e72ee6013d90bea497","correct":true},{"rt":942.204999999376,"stimulus":"\n      <p>How sure are you?</p>\n      <p>Rate your confidence in your answer from 1 (pure guess) to 5 (very sure) by pressing the corresponding button.</p>\n     ","response":1,"image":"img/helmet_alternate.jpg","task":"confidence","old_or_new":"new","trial_type":"html-button-response","trial_index":22,"time_elapsed":50936,"internal_node_id":"0.0-3.0-1.9","subject_id":"5ffc5d47cfbe9e000888de2b","study_id":"607de2837874a824e2e8c6ec","session_id":"608920e72ee6013d90bea497"},{"rt":1419.2700000021432,"stimulus":"img/fan_alternate.jpg","response":"y","image":"img/fan_alternate.jpg","old_or_new":"new","task":"recognition","trial_type":"image-keyboard-response","trial_index":23,"time_elapsed":52862,"internal_node_id":"0.0-3.0-0.10","subject_id":"5ffc5d47cfbe9e000888de2b","study_id":"607de2837874a824e2e8c6ec","session_id":"608920e72ee6013d90bea497","correct":false},{"rt":942.3900000001595,"stimulus":"\n      <p>How sure are you?</p>\n      <p>Rate your confidence in your answer from 1 (pure guess) to 5 (very sure) by pressing the corresponding button.</p>\n     ","response":4,"image":"img/fan_alternate.jpg","task":"confidence","old_or_new":"new","trial_type":"html-button-response","trial_index":24,"time_elapsed":53805,"internal_node_id":"0.0-3.0-1.10","subject_id":"5ffc5d47cfbe9e000888de2b","study_id":"607de2837874a824e2e8c6ec","session_id":"608920e72ee6013d90bea497"},{"rt":1248.394999998709,"stimulus":"img/bowl_alternate.jpg","response":"n","image":"img/bowl_alternate.jpg","old_or_new":"new","task":"recognition","trial_type":"image-keyboard-response","trial_index":25,"time_elapsed":55557,"internal_node_id":"0.0-3.0-0.11","subject_id":"5ffc5d47cfbe9e000888de2b","study_id":"607de2837874a824e2e8c6ec","session_id":"608920e72ee6013d90bea497","correct":true},{"rt":1352.985000001354,"stimulus":"\n      <p>How sure are you?</p>\n      <p>Rate your confidence in your answer from 1 (pure guess) to 5 (very sure) by pressing the corresponding button.</p>\n     ","response":3,"image":"img/bowl_alternate.jpg","task":"confidence","old_or_new":"new","trial_type":"html-button-response","trial_index":26,"time_elapsed":56911,"internal_node_id":"0.0-3.0-1.11","subject_id":"5ffc5d47cfbe9e000888de2b","study_id":"607de2837874a824e2e8c6ec","session_id":"608920e72ee6013d90bea497"},{"rt":1166.3099999968836,"stimulus":"img/leaf_alternate.jpg","response":"n","image":"img/leaf_alternate.jpg","old_or_new":"new","task":"recognition","trial_type":"image-keyboard-response","trial_index":27,"time_elapsed":58580,"internal_node_id":"0.0-3.0-0.12","subject_id":"5ffc5d47cfbe9e000888de2b","study_id":"607de2837874a824e2e8c6ec","session_id":"608920e72ee6013d90bea497","correct":true},{"rt":661.0700000019278,"stimulus":"\n      <p>How sure are you?</p>\n      <p>Rate your confidence in your answer from 1 (pure guess) to 5 (very sure) by pressing the corresponding button.</p>\n     ","response":4,"image":"img/leaf_alternate.jpg","task":"confidence","old_or_new":"new","trial_type":"html-button-response","trial_index":28,"time_elapsed":59242,"internal_node_id":"0.0-3.0-1.12","subject_id":"5ffc5d47cfbe9e000888de2b","study_id":"607de2837874a824e2e8c6ec","session_id":"608920e72ee6013d90bea497"},{"rt":2577.6000000005297,"stimulus":"img/backpack_alternate.jpg","response":"y","image":"img/backpack_alternate.jpg","old_or_new":"new","task":"recognition","trial_type":"image-keyboard-response","trial_index":29,"time_elapsed":62323,"internal_node_id":"0.0-3.0-0.13","subject_id":"5ffc5d47cfbe9e000888de2b","study_id":"607de2837874a824e2e8c6ec","session_id":"608920e72ee6013d90bea497","correct":false},{"rt":838.7900000016089,"stimulus":"\n      <p>How sure are you?</p>\n      <p>Rate your confidence in your answer from 1 (pure guess) to 5 (very sure) by pressing the corresponding button.</p>\n     ","response":2,"image":"img/backpack_alternate.jpg","task":"confidence","old_or_new":"new","trial_type":"html-button-response","trial_index":30,"time_elapsed":63163,"internal_node_id":"0.0-3.0-1.13","subject_id":"5ffc5d47cfbe9e000888de2b","study_id":"607de2837874a824e2e8c6ec","session_id":"608920e72ee6013d90bea497"},{"rt":1079.2550000005576,"stimulus":"img/apple_alternate.jpg","response":"n","image":"img/apple_alternate.jpg","old_or_new":"new","task":"recognition","trial_type":"image-keyboard-response","trial_index":31,"time_elapsed":64746,"internal_node_id":"0.0-3.0-0.14","subject_id":"5ffc5d47cfbe9e000888de2b","study_id":"607de2837874a824e2e8c6ec","session_id":"608920e72ee6013d90bea497","correct":true},{"rt":1032.5750000010885,"stimulus":"\n      <p>How sure are you?</p>\n      <p>Rate your confidence in your answer from 1 (pure guess) to 5 (very sure) by pressing the corresponding button.</p>\n     ","response":2,"image":"img/apple_alternate.jpg","task":"confidence","old_or_new":"new","trial_type":"html-button-response","trial_index":32,"time_elapsed":65779,"internal_node_id":"0.0-3.0-1.14","subject_id":"5ffc5d47cfbe9e000888de2b","study_id":"607de2837874a824e2e8c6ec","session_id":"608920e72ee6013d90bea497"},{"rt":970.3800000024785,"stimulus":"img/fan.jpg","response":"n","image":"img/fan.jpg","old_or_new":"old","task":"recognition","trial_type":"image-keyboard-response","trial_index":33,"time_elapsed":67255,"internal_node_id":"0.0-3.0-0.15","subject_id":"5ffc5d47cfbe9e000888de2b","study_id":"607de2837874a824e2e8c6ec","session_id":"608920e72ee6013d90bea497","correct":false},{"rt":967.3399999992398,"stimulus":"\n      <p>How sure are you?</p>\n      <p>Rate your confidence in your answer from 1 (pure guess) to 5 (very sure) by pressing the corresponding button.</p>\n     ","response":3,"image":"img/fan.jpg","task":"confidence","old_or_new":"old","trial_type":"html-button-response","trial_index":34,"time_elapsed":68223,"internal_node_id":"0.0-3.0-1.15","subject_id":"5ffc5d47cfbe9e000888de2b","study_id":"607de2837874a824e2e8c6ec","session_id":"608920e72ee6013d90bea497"},{"rt":1156.9200000012643,"stimulus":"img/hair_tie_alternate.jpg","response":"n","image":"img/hair_tie_alternate.jpg","old_or_new":"new","task":"recognition","trial_type":"image-keyboard-response","trial_index":35,"time_elapsed":69887,"internal_node_id":"0.0-3.0-0.16","subject_id":"5ffc5d47cfbe9e000888de2b","study_id":"607de2837874a824e2e8c6ec","session_id":"608920e72ee6013d90bea497","correct":true},{"rt":672.4199999989651,"stimulus":"\n      <p>How sure are you?</p>\n      <p>Rate your confidence in your answer from 1 (pure guess) to 5 (very sure) by pressing the corresponding button.</p>\n     ","response":4,"image":"img/hair_tie_alternate.jpg","task":"confidence","old_or_new":"new","trial_type":"html-button-response","trial_index":36,"time_elapsed":70560,"internal_node_id":"0.0-3.0-1.16","subject_id":"5ffc5d47cfbe9e000888de2b","study_id":"607de2837874a824e2e8c6ec","session_id":"608920e72ee6013d90bea497"},{"rt":1009.2550000008487,"stimulus":"img/ladder_alternate.jpg","response":"n","image":"img/ladder_alternate.jpg","old_or_new":"new","task":"recognition","trial_type":"image-keyboard-response","trial_index":37,"time_elapsed":72072,"internal_node_id":"0.0-3.0-0.17","subject_id":"5ffc5d47cfbe9e000888de2b","study_id":"607de2837874a824e2e8c6ec","session_id":"608920e72ee6013d90bea497","correct":true},{"rt":1014.7949999991397,"stimulus":"\n      <p>How sure are you?</p>\n      <p>Rate your confidence in your answer from 1 (pure guess) to 5 (very sure) by pressing the corresponding button.</p>\n     ","response":4,"image":"img/ladder_alternate.jpg","task":"confidence","old_or_new":"new","trial_type":"html-button-response","trial_index":38,"time_elapsed":73088,"internal_node_id":"0.0-3.0-1.17","subject_id":"5ffc5d47cfbe9e000888de2b","study_id":"607de2837874a824e2e8c6ec","session_id":"608920e72ee6013d90bea497"},{"rt":2277.6149999990594,"stimulus":"img/apple.jpg","response":"y","image":"img/apple.jpg","old_or_new":"old","task":"recognition","trial_type":"image-keyboard-response","trial_index":39,"time_elapsed":75867,"internal_node_id":"0.0-3.0-0.18","subject_id":"5ffc5d47cfbe9e000888de2b","study_id":"607de2837874a824e2e8c6ec","session_id":"608920e72ee6013d90bea497","correct":true},{"rt":1147.1550000023853,"stimulus":"\n      <p>How sure are you?</p>\n      <p>Rate your confidence in your answer from 1 (pure guess) to 5 (very sure) by pressing the corresponding button.</p>\n     ","response":4,"image":"img/apple.jpg","task":"confidence","old_or_new":"old","trial_type":"html-button-response","trial_index":40,"time_elapsed":77016,"internal_node_id":"0.0-3.0-1.18","subject_id":"5ffc5d47cfbe9e000888de2b","study_id":"607de2837874a824e2e8c6ec","session_id":"608920e72ee6013d90bea497"},{"rt":2532.6400000012654,"stimulus":"img/dryer.jpg","response":"y","image":"img/dryer.jpg","old_or_new":"old","task":"recognition","trial_type":"image-keyboard-response","trial_index":41,"time_elapsed":80052,"internal_node_id":"0.0-3.0-0.19","subject_id":"5ffc5d47cfbe9e000888de2b","study_id":"607de2837874a824e2e8c6ec","session_id":"608920e72ee6013d90bea497","correct":true},{"rt":510.2100000003702,"stimulus":"\n      <p>How sure are you?</p>\n      <p>Rate your confidence in your answer from 1 (pure guess) to 5 (very sure) by pressing the corresponding button.</p>\n     ","response":4,"image":"img/dryer.jpg","task":"confidence","old_or_new":"old","trial_type":"html-button-response","trial_index":42,"time_elapsed":80563,"internal_node_id":"0.0-3.0-1.19","subject_id":"5ffc5d47cfbe9e000888de2b","study_id":"607de2837874a824e2e8c6ec","session_id":"608920e72ee6013d90bea497"},{"rt":2298.5699999990175,"stimulus":"img/backpack.jpg","response":"y","image":"img/backpack.jpg","old_or_new":"old","task":"recognition","trial_type":"image-keyboard-response","trial_index":43,"time_elapsed":83364,"internal_node_id":"0.0-3.0-0.20","subject_id":"5ffc5d47cfbe9e000888de2b","study_id":"607de2837874a824e2e8c6ec","session_id":"608920e72ee6013d90bea497","correct":true},{"rt":735.1799999996729,"stimulus":"\n      <p>How sure are you?</p>\n      <p>Rate your confidence in your answer from 1 (pure guess) to 5 (very sure) by pressing the corresponding button.</p>\n     ","response":3,"image":"img/backpack.jpg","task":"confidence","old_or_new":"old","trial_type":"html-button-response","trial_index":44,"time_elapsed":84101,"internal_node_id":"0.0-3.0-1.20","subject_id":"5ffc5d47cfbe9e000888de2b","study_id":"607de2837874a824e2e8c6ec","session_id":"608920e72ee6013d90bea497"},{"rt":1586.8350000018836,"stimulus":"img/folder.jpg","response":"n","image":"img/folder.jpg","old_or_new":"old","task":"recognition","trial_type":"image-keyboard-response","trial_index":45,"time_elapsed":86192,"internal_node_id":"0.0-3.0-0.21","subject_id":"5ffc5d47cfbe9e000888de2b","study_id":"607de2837874a824e2e8c6ec","session_id":"608920e72ee6013d90bea497","correct":false},{"rt":794.5699999982025,"stimulus":"\n      <p>How sure are you?</p>\n      <p>Rate your confidence in your answer from 1 (pure guess) to 5 (very sure) by pressing the corresponding button.</p>\n     ","response":2,"image":"img/folder.jpg","task":"confidence","old_or_new":"old","trial_type":"html-button-response","trial_index":46,"time_elapsed":86988,"internal_node_id":"0.0-3.0-1.21","subject_id":"5ffc5d47cfbe9e000888de2b","study_id":"607de2837874a824e2e8c6ec","session_id":"608920e72ee6013d90bea497"},{"rt":855.3749999991851,"stimulus":"img/folder_alternate.jpg","response":"n","image":"img/folder_alternate.jpg","old_or_new":"new","task":"recognition","trial_type":"image-keyboard-response","trial_index":47,"time_elapsed":88348,"internal_node_id":"0.0-3.0-0.22","subject_id":"5ffc5d47cfbe9e000888de2b","study_id":"607de2837874a824e2e8c6ec","session_id":"608920e72ee6013d90bea497","correct":true},{"rt":585.7649999998102,"stimulus":"\n      <p>How sure are you?</p>\n      <p>Rate your confidence in your answer from 1 (pure guess) to 5 (very sure) by pressing the corresponding button.</p>\n     ","response":2,"image":"img/folder_alternate.jpg","task":"confidence","old_or_new":"new","trial_type":"html-button-response","trial_index":48,"time_elapsed":88935,"internal_node_id":"0.0-3.0-1.22","subject_id":"5ffc5d47cfbe9e000888de2b","study_id":"607de2837874a824e2e8c6ec","session_id":"608920e72ee6013d90bea497"},{"rt":861.9949999992969,"stimulus":"img/chair_alternate.jpg","response":"n","image":"img/chair_alternate.jpg","old_or_new":"new","task":"recognition","trial_type":"image-keyboard-response","trial_index":49,"time_elapsed":90300,"internal_node_id":"0.0-3.0-0.23","subject_id":"5ffc5d47cfbe9e000888de2b","study_id":"607de2837874a824e2e8c6ec","session_id":"608920e72ee6013d90bea497","correct":true},{"rt":449.61500000135857,"stimulus":"\n      <p>How sure are you?</p>\n      <p>Rate your confidence in your answer from 1 (pure guess) to 5 (very sure) by pressing the corresponding button.</p>\n     ","response":2,"image":"img/chair_alternate.jpg","task":"confidence","old_or_new":"new","trial_type":"html-button-response","trial_index":50,"time_elapsed":90750,"internal_node_id":"0.0-3.0-1.23","subject_id":"5ffc5d47cfbe9e000888de2b","study_id":"607de2837874a824e2e8c6ec","session_id":"608920e72ee6013d90bea497"},{"rt":1235.0200000000768,"stimulus":"img/coin.jpg","response":"y","image":"img/coin.jpg","old_or_new":"old","task":"recognition","trial_type":"image-keyboard-response","trial_index":51,"time_elapsed":92491,"internal_node_id":"0.0-3.0-0.24","subject_id":"5ffc5d47cfbe9e000888de2b","study_id":"607de2837874a824e2e8c6ec","session_id":"608920e72ee6013d90bea497","correct":true},{"rt":1872.9000000021188,"stimulus":"\n      <p>How sure are you?</p>\n      <p>Rate your confidence in your answer from 1 (pure guess) to 5 (very sure) by pressing the corresponding button.</p>\n     ","response":4,"image":"img/coin.jpg","task":"confidence","old_or_new":"old","trial_type":"html-button-response","trial_index":52,"time_elapsed":94365,"internal_node_id":"0.0-3.0-1.24","subject_id":"5ffc5d47cfbe9e000888de2b","study_id":"607de2837874a824e2e8c6ec","session_id":"608920e72ee6013d90bea497"},{"rt":1195.3549999998359,"stimulus":"img/basket_alternate.jpg","response":"y","image":"img/basket_alternate.jpg","old_or_new":"new","task":"recognition","trial_type":"image-keyboard-response","trial_index":53,"time_elapsed":96067,"internal_node_id":"0.0-3.0-0.25","subject_id":"5ffc5d47cfbe9e000888de2b","study_id":"607de2837874a824e2e8c6ec","session_id":"608920e72ee6013d90bea497","correct":false},{"rt":696.9199999984994,"stimulus":"\n      <p>How sure are you?</p>\n      <p>Rate your confidence in your answer from 1 (pure guess) to 5 (very sure) by pressing the corresponding button.</p>\n     ","response":3,"image":"img/basket_alternate.jpg","task":"confidence","old_or_new":"new","trial_type":"html-button-response","trial_index":54,"time_elapsed":96765,"internal_node_id":"0.0-3.0-1.25","subject_id":"5ffc5d47cfbe9e000888de2b","study_id":"607de2837874a824e2e8c6ec","session_id":"608920e72ee6013d90bea497"},{"rt":946.7549999972107,"stimulus":"img/hourglass.jpg","response":"y","image":"img/hourglass.jpg","old_or_new":"old","task":"recognition","trial_type":"image-keyboard-response","trial_index":55,"time_elapsed":98218,"internal_node_id":"0.0-3.0-0.26","subject_id":"5ffc5d47cfbe9e000888de2b","study_id":"607de2837874a824e2e8c6ec","session_id":"608920e72ee6013d90bea497","correct":true},{"rt":493.68999999933294,"stimulus":"\n      <p>How sure are you?</p>\n      <p>Rate your confidence in your answer from 1 (pure guess) to 5 (very sure) by pressing the corresponding button.</p>\n     ","response":3,"image":"img/hourglass.jpg","task":"confidence","old_or_new":"old","trial_type":"html-button-response","trial_index":56,"time_elapsed":98713,"internal_node_id":"0.0-3.0-1.26","subject_id":"5ffc5d47cfbe9e000888de2b","study_id":"607de2837874a824e2e8c6ec","session_id":"608920e72ee6013d90bea497"},{"rt":1541.6199999999662,"stimulus":"img/calculator.jpg","response":"y","image":"img/calculator.jpg","old_or_new":"old","task":"recognition","trial_type":"image-keyboard-response","trial_index":57,"time_elapsed":100757,"internal_node_id":"0.0-3.0-0.27","subject_id":"5ffc5d47cfbe9e000888de2b","study_id":"607de2837874a824e2e8c6ec","session_id":"608920e72ee6013d90bea497","correct":true},{"rt":731.1900000022433,"stimulus":"\n      <p>How sure are you?</p>\n      <p>Rate your confidence in your answer from 1 (pure guess) to 5 (very sure) by pressing the corresponding button.</p>\n     ","response":4,"image":"img/calculator.jpg","task":"confidence","old_or_new":"old","trial_type":"html-button-response","trial_index":58,"time_elapsed":101489,"internal_node_id":"0.0-3.0-1.27","subject_id":"5ffc5d47cfbe9e000888de2b","study_id":"607de2837874a824e2e8c6ec","session_id":"608920e72ee6013d90bea497"},{"rt":999.1799999988871,"stimulus":"img/hat.jpg","response":"y","image":"img/hat.jpg","old_or_new":"old","task":"recognition","trial_type":"image-keyboard-response","trial_index":59,"time_elapsed":102995,"internal_node_id":"0.0-3.0-0.28","subject_id":"5ffc5d47cfbe9e000888de2b","study_id":"607de2837874a824e2e8c6ec","session_id":"608920e72ee6013d90bea497","correct":true},{"rt":407.07499999916763,"stimulus":"\n      <p>How sure are you?</p>\n      <p>Rate your confidence in your answer from 1 (pure guess) to 5 (very sure) by pressing the corresponding button.</p>\n     ","response":4,"image":"img/hat.jpg","task":"confidence","old_or_new":"old","trial_type":"html-button-response","trial_index":60,"time_elapsed":103403,"internal_node_id":"0.0-3.0-1.28","subject_id":"5ffc5d47cfbe9e000888de2b","study_id":"607de2837874a824e2e8c6ec","session_id":"608920e72ee6013d90bea497"},{"rt":1002.1799999994982,"stimulus":"img/leaf.jpg","response":"n","image":"img/leaf.jpg","old_or_new":"old","task":"recognition","trial_type":"image-keyboard-response","trial_index":61,"time_elapsed":104909,"internal_node_id":"0.0-3.0-0.29","subject_id":"5ffc5d47cfbe9e000888de2b","study_id":"607de2837874a824e2e8c6ec","session_id":"608920e72ee6013d90bea497","correct":false},{"rt":1743.5250000016822,"stimulus":"\n      <p>How sure are you?</p>\n      <p>Rate your confidence in your answer from 1 (pure guess) to 5 (very sure) by pressing the corresponding button.</p>\n     ","response":4,"image":"img/leaf.jpg","task":"confidence","old_or_new":"old","trial_type":"html-button-response","trial_index":62,"time_elapsed":106653,"internal_node_id":"0.0-3.0-1.29","subject_id":"5ffc5d47cfbe9e000888de2b","study_id":"607de2837874a824e2e8c6ec","session_id":"608920e72ee6013d90bea497"},{"rt":2023.8850000023376,"stimulus":"img/drum.jpg","response":"n","image":"img/drum.jpg","old_or_new":"old","task":"recognition","trial_type":"image-keyboard-response","trial_index":63,"time_elapsed":109179,"internal_node_id":"0.0-3.0-0.30","subject_id":"5ffc5d47cfbe9e000888de2b","study_id":"607de2837874a824e2e8c6ec","session_id":"608920e72ee6013d90bea497","correct":false},{"rt":836.6399999977148,"stimulus":"\n      <p>How sure are you?</p>\n      <p>Rate your confidence in your answer from 1 (pure guess) to 5 (very sure) by pressing the corresponding button.</p>\n     ","response":2,"image":"img/drum.jpg","task":"confidence","old_or_new":"old","trial_type":"html-button-response","trial_index":64,"time_elapsed":110018,"internal_node_id":"0.0-3.0-1.30","subject_id":"5ffc5d47cfbe9e000888de2b","study_id":"607de2837874a824e2e8c6ec","session_id":"608920e72ee6013d90bea497"},{"rt":1059.7400000006019,"stimulus":"img/grapes.jpg","response":"y","image":"img/grapes.jpg","old_or_new":"old","task":"recognition","trial_type":"image-keyboard-response","trial_index":65,"time_elapsed":111581,"internal_node_id":"0.0-3.0-0.31","subject_id":"5ffc5d47cfbe9e000888de2b","study_id":"607de2837874a824e2e8c6ec","session_id":"608920e72ee6013d90bea497","correct":true},{"rt":807.280000000901,"stimulus":"\n      <p>How sure are you?</p>\n      <p>Rate your confidence in your answer from 1 (pure guess) to 5 (very sure) by pressing the corresponding button.</p>\n     ","response":4,"image":"img/grapes.jpg","task":"confidence","old_or_new":"old","trial_type":"html-button-response","trial_index":66,"time_elapsed":112389,"internal_node_id":"0.0-3.0-1.31","subject_id":"5ffc5d47cfbe9e000888de2b","study_id":"607de2837874a824e2e8c6ec","session_id":"608920e72ee6013d90bea497"},{"rt":2071.560000000318,"stimulus":"img/hair_tie.jpg","response":"y","image":"img/hair_tie.jpg","old_or_new":"old","task":"recognition","trial_type":"image-keyboard-response","trial_index":67,"time_elapsed":114964,"internal_node_id":"0.0-3.0-0.32","subject_id":"5ffc5d47cfbe9e000888de2b","study_id":"607de2837874a824e2e8c6ec","session_id":"608920e72ee6013d90bea497","correct":true},{"rt":813.0850000015926,"stimulus":"\n      <p>How sure are you?</p>\n      <p>Rate your confidence in your answer from 1 (pure guess) to 5 (very sure) by pressing the corresponding button.</p>\n     ","response":3,"image":"img/hair_tie.jpg","task":"confidence","old_or_new":"old","trial_type":"html-button-response","trial_index":68,"time_elapsed":115778,"internal_node_id":"0.0-3.0-1.32","subject_id":"5ffc5d47cfbe9e000888de2b","study_id":"607de2837874a824e2e8c6ec","session_id":"608920e72ee6013d90bea497"},{"rt":844.0300000002026,"stimulus":"img/lightbulb.jpg","response":"y","image":"img/lightbulb.jpg","old_or_new":"old","task":"recognition","trial_type":"image-keyboard-response","trial_index":69,"time_elapsed":117125,"internal_node_id":"0.0-3.0-0.33","subject_id":"5ffc5d47cfbe9e000888de2b","study_id":"607de2837874a824e2e8c6ec","session_id":"608920e72ee6013d90bea497","correct":true},{"rt":1797.340000000986,"stimulus":"\n      <p>How sure are you?</p>\n      <p>Rate your confidence in your answer from 1 (pure guess) to 5 (very sure) by pressing the corresponding button.</p>\n     ","response":4,"image":"img/lightbulb.jpg","task":"confidence","old_or_new":"old","trial_type":"html-button-response","trial_index":70,"time_elapsed":118924,"internal_node_id":"0.0-3.0-1.33","subject_id":"5ffc5d47cfbe9e000888de2b","study_id":"607de2837874a824e2e8c6ec","session_id":"608920e72ee6013d90bea497"},{"rt":10681.315000001632,"stimulus":"img/hat_alternate.jpg","response":"y","image":"img/hat_alternate.jpg","old_or_new":"new","task":"recognition","trial_type":"image-keyboard-response","trial_index":71,"time_elapsed":130109,"internal_node_id":"0.0-3.0-0.34","subject_id":"5ffc5d47cfbe9e000888de2b","study_id":"607de2837874a824e2e8c6ec","session_id":"608920e72ee6013d90bea497","correct":false},{"rt":902.7949999981502,"stimulus":"\n      <p>How sure are you?</p>\n      <p>Rate your confidence in your answer from 1 (pure guess) to 5 (very sure) by pressing the corresponding button.</p>\n     ","response":3,"image":"img/hat_alternate.jpg","task":"confidence","old_or_new":"new","trial_type":"html-button-response","trial_index":72,"time_elapsed":131013,"internal_node_id":"0.0-3.0-1.34","subject_id":"5ffc5d47cfbe9e000888de2b","study_id":"607de2837874a824e2e8c6ec","session_id":"608920e72ee6013d90bea497"},{"rt":1266.9999999998254,"stimulus":"img/glasses_alternate.jpg","response":"n","image":"img/glasses_alternate.jpg","old_or_new":"new","task":"recognition","trial_type":"image-keyboard-response","trial_index":73,"time_elapsed":132782,"internal_node_id":"0.0-3.0-0.35","subject_id":"5ffc5d47cfbe9e000888de2b","study_id":"607de2837874a824e2e8c6ec","session_id":"608920e72ee6013d90bea497","correct":true},{"rt":2277.9200000004494,"stimulus":"\n      <p>How sure are you?</p>\n      <p>Rate your confidence in your answer from 1 (pure guess) to 5 (very sure) by pressing the corresponding button.</p>\n     ","response":4,"image":"img/glasses_alternate.jpg","task":"confidence","old_or_new":"new","trial_type":"html-button-response","trial_index":74,"time_elapsed":135061,"internal_node_id":"0.0-3.0-1.35","subject_id":"5ffc5d47cfbe9e000888de2b","study_id":"607de2837874a824e2e8c6ec","session_id":"608920e72ee6013d90bea497"},{"rt":1546.1150000010093,"stimulus":"img/chair.jpg","response":"y","image":"img/chair.jpg","old_or_new":"old","task":"recognition","trial_type":"image-keyboard-response","trial_index":75,"time_elapsed":137111,"internal_node_id":"0.0-3.0-0.36","subject_id":"5ffc5d47cfbe9e000888de2b","study_id":"607de2837874a824e2e8c6ec","session_id":"608920e72ee6013d90bea497","correct":true},{"rt":798.1049999980314,"stimulus":"\n      <p>How sure are you?</p>\n      <p>Rate your confidence in your answer from 1 (pure guess) to 5 (very sure) by pressing the corresponding button.</p>\n     ","response":3,"image":"img/chair.jpg","task":"confidence","old_or_new":"old","trial_type":"html-button-response","trial_index":76,"time_elapsed":137910,"internal_node_id":"0.0-3.0-1.36","subject_id":"5ffc5d47cfbe9e000888de2b","study_id":"607de2837874a824e2e8c6ec","session_id":"608920e72ee6013d90bea497"},{"rt":989.2499999987194,"stimulus":"img/hourglass_alternate.jpg","response":"n","image":"img/hourglass_alternate.jpg","old_or_new":"new","task":"recognition","trial_type":"image-keyboard-response","trial_index":77,"time_elapsed":139402,"internal_node_id":"0.0-3.0-0.37","subject_id":"5ffc5d47cfbe9e000888de2b","study_id":"607de2837874a824e2e8c6ec","session_id":"608920e72ee6013d90bea497","correct":true},{"rt":575.1600000003236,"stimulus":"\n      <p>How sure are you?</p>\n      <p>Rate your confidence in your answer from 1 (pure guess) to 5 (very sure) by pressing the corresponding button.</p>\n     ","response":3,"image":"img/hourglass_alternate.jpg","task":"confidence","old_or_new":"new","trial_type":"html-button-response","trial_index":78,"time_elapsed":139978,"internal_node_id":"0.0-3.0-1.37","subject_id":"5ffc5d47cfbe9e000888de2b","study_id":"607de2837874a824e2e8c6ec","session_id":"608920e72ee6013d90bea497"},{"rt":1122.6349999997183,"stimulus":"img/helmet.jpg","response":"n","image":"img/helmet.jpg","old_or_new":"old","task":"recognition","trial_type":"image-keyboard-response","trial_index":79,"time_elapsed":141604,"internal_node_id":"0.0-3.0-0.38","subject_id":"5ffc5d47cfbe9e000888de2b","study_id":"607de2837874a824e2e8c6ec","session_id":"608920e72ee6013d90bea497","correct":false},{"rt":714.7049999985029,"stimulus":"\n      <p>How sure are you?</p>\n      <p>Rate your confidence in your answer from 1 (pure guess) to 5 (very sure) by pressing the corresponding button.</p>\n     ","response":4,"image":"img/helmet.jpg","task":"confidence","old_or_new":"old","trial_type":"html-button-response","trial_index":80,"time_elapsed":142321,"internal_node_id":"0.0-3.0-1.38","subject_id":"5ffc5d47cfbe9e000888de2b","study_id":"607de2837874a824e2e8c6ec","session_id":"608920e72ee6013d90bea497"},{"rt":1778.1299999987823,"stimulus":"img/grapes_alternate.jpg","response":"n","image":"img/grapes_alternate.jpg","old_or_new":"new","task":"recognition","trial_type":"image-keyboard-response","trial_index":81,"time_elapsed":144603,"internal_node_id":"0.0-3.0-0.39","subject_id":"5ffc5d47cfbe9e000888de2b","study_id":"607de2837874a824e2e8c6ec","session_id":"608920e72ee6013d90bea497","correct":true},{"rt":891.0250000008091,"stimulus":"\n      <p>How sure are you?</p>\n      <p>Rate your confidence in your answer from 1 (pure guess) to 5 (very sure) by pressing the corresponding button.</p>\n     ","response":3,"image":"img/grapes_alternate.jpg","task":"confidence","old_or_new":"new","trial_type":"html-button-response","trial_index":82,"time_elapsed":145495,"internal_node_id":"0.0-3.0-1.39","subject_id":"5ffc5d47cfbe9e000888de2b","study_id":"607de2837874a824e2e8c6ec","session_id":"608920e72ee6013d90bea497"},{"rt":1416.400000001886,"stimulus":"img/drum_alternate.jpg","response":"n","image":"img/drum_alternate.jpg","old_or_new":"new","task":"recognition","trial_type":"image-keyboard-response","trial_index":83,"time_elapsed":147414,"internal_node_id":"0.0-3.0-0.40","subject_id":"5ffc5d47cfbe9e000888de2b","study_id":"607de2837874a824e2e8c6ec","session_id":"608920e72ee6013d90bea497","correct":true},{"rt":527.9999999984284,"stimulus":"\n      <p>How sure are you?</p>\n      <p>Rate your confidence in your answer from 1 (pure guess) to 5 (very sure) by pressing the corresponding button.</p>\n     ","response":3,"image":"img/drum_alternate.jpg","task":"confidence","old_or_new":"new","trial_type":"html-button-response","trial_index":84,"time_elapsed":147943,"internal_node_id":"0.0-3.0-1.40","subject_id":"5ffc5d47cfbe9e000888de2b","study_id":"607de2837874a824e2e8c6ec","session_id":"608920e72ee6013d90bea497"},{"rt":999.1049999989627,"stimulus":"img/calculator_alternate.jpg","response":"n","image":"img/calculator_alternate.jpg","old_or_new":"new","task":"recognition","trial_type":"image-keyboard-response","trial_index":85,"time_elapsed":149445,"internal_node_id":"0.0-3.0-0.41","subject_id":"5ffc5d47cfbe9e000888de2b","study_id":"607de2837874a824e2e8c6ec","session_id":"608920e72ee6013d90bea497","correct":true},{"rt":411.9700000010198,"stimulus":"\n      <p>How sure are you?</p>\n      <p>Rate your confidence in your answer from 1 (pure guess) to 5 (very sure) by pressing the corresponding button.</p>\n     ","response":3,"image":"img/calculator_alternate.jpg","task":"confidence","old_or_new":"new","trial_type":"html-button-response","trial_index":86,"time_elapsed":149858,"internal_node_id":"0.0-3.0-1.41","subject_id":"5ffc5d47cfbe9e000888de2b","study_id":"607de2837874a824e2e8c6ec","session_id":"608920e72ee6013d90bea497"},{"rt":1200.8199999982025,"stimulus":"img/hairbrush.jpg","response":"y","image":"img/hairbrush.jpg","old_or_new":"old","task":"recognition","trial_type":"image-keyboard-response","trial_index":87,"time_elapsed":151562,"internal_node_id":"0.0-3.0-0.42","subject_id":"5ffc5d47cfbe9e000888de2b","study_id":"607de2837874a824e2e8c6ec","session_id":"608920e72ee6013d90bea497","correct":true},{"rt":728.4350000008999,"stimulus":"\n      <p>How sure are you?</p>\n      <p>Rate your confidence in your answer from 1 (pure guess) to 5 (very sure) by pressing the corresponding button.</p>\n     ","response":4,"image":"img/hairbrush.jpg","task":"confidence","old_or_new":"old","trial_type":"html-button-response","trial_index":88,"time_elapsed":152291,"internal_node_id":"0.0-3.0-1.42","subject_id":"5ffc5d47cfbe9e000888de2b","study_id":"607de2837874a824e2e8c6ec","session_id":"608920e72ee6013d90bea497"},{"rt":992.5899999980174,"stimulus":"img/hairbrush_alternate.jpg","response":"n","image":"img/hairbrush_alternate.jpg","old_or_new":"new","task":"recognition","trial_type":"image-keyboard-response","trial_index":89,"time_elapsed":153785,"internal_node_id":"0.0-3.0-0.43","subject_id":"5ffc5d47cfbe9e000888de2b","study_id":"607de2837874a824e2e8c6ec","session_id":"608920e72ee6013d90bea497","correct":true},{"rt":613.2700000016484,"stimulus":"\n      <p>How sure are you?</p>\n      <p>Rate your confidence in your answer from 1 (pure guess) to 5 (very sure) by pressing the corresponding button.</p>\n     ","response":3,"image":"img/hairbrush_alternate.jpg","task":"confidence","old_or_new":"new","trial_type":"html-button-response","trial_index":90,"time_elapsed":154399,"internal_node_id":"0.0-3.0-1.43","subject_id":"5ffc5d47cfbe9e000888de2b","study_id":"607de2837874a824e2e8c6ec","session_id":"608920e72ee6013d90bea497"},{"rt":1124.8500000001513,"stimulus":"img/coin_alternate.jpg","response":"n","image":"img/coin_alternate.jpg","old_or_new":"new","task":"recognition","trial_type":"image-keyboard-response","trial_index":91,"time_elapsed":156027,"internal_node_id":"0.0-3.0-0.44","subject_id":"5ffc5d47cfbe9e000888de2b","study_id":"607de2837874a824e2e8c6ec","session_id":"608920e72ee6013d90bea497","correct":true},{"rt":1140.6150000002526,"stimulus":"\n      <p>How sure are you?</p>\n      <p>Rate your confidence in your answer from 1 (pure guess) to 5 (very sure) by pressing the corresponding button.</p>\n     ","response":4,"image":"img/coin_alternate.jpg","task":"confidence","old_or_new":"new","trial_type":"html-button-response","trial_index":92,"time_elapsed":157168,"internal_node_id":"0.0-3.0-1.44","subject_id":"5ffc5d47cfbe9e000888de2b","study_id":"607de2837874a824e2e8c6ec","session_id":"608920e72ee6013d90bea497"},{"rt":873.700000000099,"stimulus":"img/glasses.jpg","response":"n","image":"img/glasses.jpg","old_or_new":"old","task":"recognition","trial_type":"image-keyboard-response","trial_index":93,"time_elapsed":158545,"internal_node_id":"0.0-3.0-0.45","subject_id":"5ffc5d47cfbe9e000888de2b","study_id":"607de2837874a824e2e8c6ec","session_id":"608920e72ee6013d90bea497","correct":false},{"rt":805.7349999980943,"stimulus":"\n      <p>How sure are you?</p>\n      <p>Rate your confidence in your answer from 1 (pure guess) to 5 (very sure) by pressing the corresponding button.</p>\n     ","response":3,"image":"img/glasses.jpg","task":"confidence","old_or_new":"old","trial_type":"html-button-response","trial_index":94,"time_elapsed":159352,"internal_node_id":"0.0-3.0-1.45","subject_id":"5ffc5d47cfbe9e000888de2b","study_id":"607de2837874a824e2e8c6ec","session_id":"608920e72ee6013d90bea497"},{"rt":965.940000001865,"stimulus":"img/lightbulb_alternate.jpg","response":"n","image":"img/lightbulb_alternate.jpg","old_or_new":"new","task":"recognition","trial_type":"image-keyboard-response","trial_index":95,"time_elapsed":160823,"internal_node_id":"0.0-3.0-0.46","subject_id":"5ffc5d47cfbe9e000888de2b","study_id":"607de2837874a824e2e8c6ec","session_id":"608920e72ee6013d90bea497","correct":true},{"rt":595.339999999851,"stimulus":"\n      <p>How sure are you?</p>\n      <p>Rate your confidence in your answer from 1 (pure guess) to 5 (very sure) by pressing the corresponding button.</p>\n     ","response":4,"image":"img/lightbulb_alternate.jpg","task":"confidence","old_or_new":"new","trial_type":"html-button-response","trial_index":96,"time_elapsed":161421,"internal_node_id":"0.0-3.0-1.46","subject_id":"5ffc5d47cfbe9e000888de2b","study_id":"607de2837874a824e2e8c6ec","session_id":"608920e72ee6013d90bea497"},{"rt":1119.845000001078,"stimulus":"img/basket.jpg","response":"n","image":"img/basket.jpg","old_or_new":"old","task":"recognition","trial_type":"image-keyboard-response","trial_index":97,"time_elapsed":163045,"internal_node_id":"0.0-3.0-0.47","subject_id":"5ffc5d47cfbe9e000888de2b","study_id":"607de2837874a824e2e8c6ec","session_id":"608920e72ee6013d90bea497","correct":false},{"rt":726.2749999972584,"stimulus":"\n      <p>How sure are you?</p>\n      <p>Rate your confidence in your answer from 1 (pure guess) to 5 (very sure) by pressing the corresponding button.</p>\n     ","response":2,"image":"img/basket.jpg","task":"confidence","old_or_new":"old","trial_type":"html-button-response","trial_index":98,"time_elapsed":163773,"internal_node_id":"0.0-3.0-1.47","subject_id":"5ffc5d47cfbe9e000888de2b","study_id":"607de2837874a824e2e8c6ec","session_id":"608920e72ee6013d90bea497"}]