[{"success":true,"timeout":false,"failed_images":[],"failed_audio":[],"failed_video":[],"trial_type":"preload","trial_index":0,"time_elapsed":4643,"internal_node_id":"0.0-0.0","subject_id":"6086c720f0b89338b151ad99","study_id":"607de2837874a824e2e8c6ec","session_id":"6088547865f48ff007fdc3e3"},{"rt":34741.47500000254,"stimulus":"\n      <div style=\"width:800px; text-align: left;\">\n        <p>Welcome to day 2 of the experiment! Thanks for coming back.</p>\n        <p>You will be presented with a series of images. Images will appear one at a time.</p>\n        <p>Each image will remain on the screen until you press either <span style=\"font-weight: bold;\">\"y\" to indicate you have seen the \n        exact same photo the day before or \"n\" to indicate you have not seen the exact same photo the day before.</span></p>\n        <p>After you answer yes (\"y\") or no (\"n\"), you will then be prompted to rate your certainty on a scale of\n        1 (pure guess) to 5 (very sure).</p>\n      </div>\n    ","response":0,"trial_type":"html-button-response","trial_index":1,"time_elapsed":39387,"internal_node_id":"0.0-1.0","subject_id":"6086c720f0b89338b151ad99","study_id":"607de2837874a824e2e8c6ec","session_id":"6088547865f48ff007fdc3e3"},{"success":true,"trial_type":"fullscreen","trial_index":2,"time_elapsed":44024,"internal_node_id":"0.0-2.0","subject_id":"6086c720f0b89338b151ad99","study_id":"607de2837874a824e2e8c6ec","session_id":"6088547865f48ff007fdc3e3"},{"rt":859.2649999918649,"stimulus":"img/glasses.jpg","response":"y","image":"img/glasses.jpg","old_or_new":"old","task":"recognition","trial_type":"image-keyboard-response","trial_index":3,"time_elapsed":44899,"internal_node_id":"0.0-3.0-0.0","subject_id":"6086c720f0b89338b151ad99","study_id":"607de2837874a824e2e8c6ec","session_id":"6088547865f48ff007fdc3e3","correct":true},{"rt":3185.9549999935552,"stimulus":"\n      <p>How sure are you?</p>\n      <p>Rate your confidence in your answer from 1 (pure guess) to 5 (very sure) by pressing the corresponding button.</p>\n     ","response":4,"image":"img/glasses.jpg","task":"confidence","old_or_new":"old","trial_type":"html-button-response","trial_index":4,"time_elapsed":48086,"internal_node_id":"0.0-3.0-1.0","subject_id":"6086c720f0b89338b151ad99","study_id":"607de2837874a824e2e8c6ec","session_id":"6088547865f48ff007fdc3e3"},{"rt":936.4800000039395,"stimulus":"img/camera.jpg","response":"y","image":"img/camera.jpg","old_or_new":"old","task":"recognition","trial_type":"image-keyboard-response","trial_index":5,"time_elapsed":49534,"internal_node_id":"0.0-3.0-0.1","subject_id":"6086c720f0b89338b151ad99","study_id":"607de2837874a824e2e8c6ec","session_id":"6088547865f48ff007fdc3e3","correct":true},{"rt":738.0249999987427,"stimulus":"\n      <p>How sure are you?</p>\n      <p>Rate your confidence in your answer from 1 (pure guess) to 5 (very sure) by pressing the corresponding button.</p>\n     ","response":4,"image":"img/camera.jpg","task":"confidence","old_or_new":"old","trial_type":"html-button-response","trial_index":6,"time_elapsed":50273,"internal_node_id":"0.0-3.0-1.1","subject_id":"6086c720f0b89338b151ad99","study_id":"607de2837874a824e2e8c6ec","session_id":"6088547865f48ff007fdc3e3"},{"rt":740.8750000031432,"stimulus":"img/folder.jpg","response":"y","image":"img/folder.jpg","old_or_new":"old","task":"recognition","trial_type":"image-keyboard-response","trial_index":7,"time_elapsed":51517,"internal_node_id":"0.0-3.0-0.2","subject_id":"6086c720f0b89338b151ad99","study_id":"607de2837874a824e2e8c6ec","session_id":"6088547865f48ff007fdc3e3","correct":true},{"rt":397.3249999980908,"stimulus":"\n      <p>How sure are you?</p>\n      <p>Rate your confidence in your answer from 1 (pure guess) to 5 (very sure) by pressing the corresponding button.</p>\n     ","response":4,"image":"img/folder.jpg","task":"confidence","old_or_new":"old","trial_type":"html-button-response","trial_index":8,"time_elapsed":51915,"internal_node_id":"0.0-3.0-1.2","subject_id":"6086c720f0b89338b151ad99","study_id":"607de2837874a824e2e8c6ec","session_id":"6088547865f48ff007fdc3e3"},{"rt":815.8750000002328,"stimulus":"img/basket_alternate.jpg","response":"y","image":"img/basket_alternate.jpg","old_or_new":"new","task":"recognition","trial_type":"image-keyboard-response","trial_index":9,"time_elapsed":53242,"internal_node_id":"0.0-3.0-0.3","subject_id":"6086c720f0b89338b151ad99","study_id":"607de2837874a824e2e8c6ec","session_id":"6088547865f48ff007fdc3e3","correct":false},{"rt":6763.695000001462,"stimulus":"\n      <p>How sure are you?</p>\n      <p>Rate your confidence in your answer from 1 (pure guess) to 5 (very sure) by pressing the corresponding button.</p>\n     ","response":2,"image":"img/basket_alternate.jpg","task":"confidence","old_or_new":"new","trial_type":"html-button-response","trial_index":10,"time_elapsed":60006,"internal_node_id":"0.0-3.0-1.3","subject_id":"6086c720f0b89338b151ad99","study_id":"607de2837874a824e2e8c6ec","session_id":"6088547865f48ff007fdc3e3"},{"rt":1046.3649999874178,"stimulus":"img/coin_alternate.jpg","response":"n","image":"img/coin_alternate.jpg","old_or_new":"new","task":"recognition","trial_type":"image-keyboard-response","trial_index":11,"time_elapsed":61555,"internal_node_id":"0.0-3.0-0.4","subject_id":"6086c720f0b89338b151ad99","study_id":"607de2837874a824e2e8c6ec","session_id":"6088547865f48ff007fdc3e3","correct":true},{"rt":934.5650000032037,"stimulus":"\n      <p>How sure are you?</p>\n      <p>Rate your confidence in your answer from 1 (pure guess) to 5 (very sure) by pressing the corresponding button.</p>\n     ","response":4,"image":"img/coin_alternate.jpg","task":"confidence","old_or_new":"new","trial_type":"html-button-response","trial_index":12,"time_elapsed":62491,"internal_node_id":"0.0-3.0-1.4","subject_id":"6086c720f0b89338b151ad99","study_id":"607de2837874a824e2e8c6ec","session_id":"6088547865f48ff007fdc3e3"},{"rt":561.424999992596,"stimulus":"img/helmet.jpg","response":"y","image":"img/helmet.jpg","old_or_new":"old","task":"recognition","trial_type":"image-keyboard-response","trial_index":13,"time_elapsed":63557,"internal_node_id":"0.0-3.0-0.5","subject_id":"6086c720f0b89338b151ad99","study_id":"607de2837874a824e2e8c6ec","session_id":"6088547865f48ff007fdc3e3","correct":true},{"rt":597.9200000001583,"stimulus":"\n      <p>How sure are you?</p>\n      <p>Rate your confidence in your answer from 1 (pure guess) to 5 (very sure) by pressing the corresponding button.</p>\n     ","response":4,"image":"img/helmet.jpg","task":"confidence","old_or_new":"old","trial_type":"html-button-response","trial_index":14,"time_elapsed":64156,"internal_node_id":"0.0-3.0-1.5","subject_id":"6086c720f0b89338b151ad99","study_id":"607de2837874a824e2e8c6ec","session_id":"6088547865f48ff007fdc3e3"},{"rt":564.1049999976531,"stimulus":"img/ladder.jpg","response":"y","image":"img/ladder.jpg","old_or_new":"old","task":"recognition","trial_type":"image-keyboard-response","trial_index":15,"time_elapsed":65223,"internal_node_id":"0.0-3.0-0.6","subject_id":"6086c720f0b89338b151ad99","study_id":"607de2837874a824e2e8c6ec","session_id":"6088547865f48ff007fdc3e3","correct":true},{"rt":438.7799999967683,"stimulus":"\n      <p>How sure are you?</p>\n      <p>Rate your confidence in your answer from 1 (pure guess) to 5 (very sure) by pressing the corresponding button.</p>\n     ","response":4,"image":"img/ladder.jpg","task":"confidence","old_or_new":"old","trial_type":"html-button-response","trial_index":16,"time_elapsed":65663,"internal_node_id":"0.0-3.0-1.6","subject_id":"6086c720f0b89338b151ad99","study_id":"607de2837874a824e2e8c6ec","session_id":"6088547865f48ff007fdc3e3"},{"rt":867.5900000089314,"stimulus":"img/dryer_alternate.jpg","response":"y","image":"img/dryer_alternate.jpg","old_or_new":"new","task":"recognition","trial_type":"image-keyboard-response","trial_index":17,"time_elapsed":67033,"internal_node_id":"0.0-3.0-0.7","subject_id":"6086c720f0b89338b151ad99","study_id":"607de2837874a824e2e8c6ec","session_id":"6088547865f48ff007fdc3e3","correct":false},{"rt":2181.2649999919813,"stimulus":"\n      <p>How sure are you?</p>\n      <p>Rate your confidence in your answer from 1 (pure guess) to 5 (very sure) by pressing the corresponding button.</p>\n     ","response":2,"image":"img/dryer_alternate.jpg","task":"confidence","old_or_new":"new","trial_type":"html-button-response","trial_index":18,"time_elapsed":69216,"internal_node_id":"0.0-3.0-1.7","subject_id":"6086c720f0b89338b151ad99","study_id":"607de2837874a824e2e8c6ec","session_id":"6088547865f48ff007fdc3e3"},{"rt":1082.3600000003353,"stimulus":"img/drum_alternate.jpg","response":"n","image":"img/drum_alternate.jpg","old_or_new":"new","task":"recognition","trial_type":"image-keyboard-response","trial_index":19,"time_elapsed":70802,"internal_node_id":"0.0-3.0-0.8","subject_id":"6086c720f0b89338b151ad99","study_id":"607de2837874a824e2e8c6ec","session_id":"6088547865f48ff007fdc3e3","correct":true},{"rt":812.3150000028545,"stimulus":"\n      <p>How sure are you?</p>\n      <p>Rate your confidence in your answer from 1 (pure guess) to 5 (very sure) by pressing the corresponding button.</p>\n     ","response":4,"image":"img/drum_alternate.jpg","task":"confidence","old_or_new":"new","trial_type":"html-button-response","trial_index":20,"time_elapsed":71615,"internal_node_id":"0.0-3.0-1.8","subject_id":"6086c720f0b89338b151ad99","study_id":"607de2837874a824e2e8c6ec","session_id":"6088547865f48ff007fdc3e3"},{"rt":706.62500000617,"stimulus":"img/lightbulb.jpg","response":"y","image":"img/lightbulb.jpg","old_or_new":"old","task":"recognition","trial_type":"image-keyboard-response","trial_index":21,"time_elapsed":72825,"internal_node_id":"0.0-3.0-0.9","subject_id":"6086c720f0b89338b151ad99","study_id":"607de2837874a824e2e8c6ec","session_id":"6088547865f48ff007fdc3e3","correct":true},{"rt":493.23500000173226,"stimulus":"\n      <p>How sure are you?</p>\n      <p>Rate your confidence in your answer from 1 (pure guess) to 5 (very sure) by pressing the corresponding button.</p>\n     ","response":4,"image":"img/lightbulb.jpg","task":"confidence","old_or_new":"old","trial_type":"html-button-response","trial_index":22,"time_elapsed":73320,"internal_node_id":"0.0-3.0-1.9","subject_id":"6086c720f0b89338b151ad99","study_id":"607de2837874a824e2e8c6ec","session_id":"6088547865f48ff007fdc3e3"},{"rt":1101.4549999963492,"stimulus":"img/helmet_alternate.jpg","response":"n","image":"img/helmet_alternate.jpg","old_or_new":"new","task":"recognition","trial_type":"image-keyboard-response","trial_index":23,"time_elapsed":74924,"internal_node_id":"0.0-3.0-0.10","subject_id":"6086c720f0b89338b151ad99","study_id":"607de2837874a824e2e8c6ec","session_id":"6088547865f48ff007fdc3e3","correct":true},{"rt":883.2399999955669,"stimulus":"\n      <p>How sure are you?</p>\n      <p>Rate your confidence in your answer from 1 (pure guess) to 5 (very sure) by pressing the corresponding button.</p>\n     ","response":4,"image":"img/helmet_alternate.jpg","task":"confidence","old_or_new":"new","trial_type":"html-button-response","trial_index":24,"time_elapsed":75810,"internal_node_id":"0.0-3.0-1.10","subject_id":"6086c720f0b89338b151ad99","study_id":"607de2837874a824e2e8c6ec","session_id":"6088547865f48ff007fdc3e3"},{"rt":781.8349999870406,"stimulus":"img/ladder_alternate.jpg","response":"n","image":"img/ladder_alternate.jpg","old_or_new":"new","task":"recognition","trial_type":"image-keyboard-response","trial_index":25,"time_elapsed":77094,"internal_node_id":"0.0-3.0-0.11","subject_id":"6086c720f0b89338b151ad99","study_id":"607de2837874a824e2e8c6ec","session_id":"6088547865f48ff007fdc3e3","correct":true},{"rt":587.96999999322,"stimulus":"\n      <p>How sure are you?</p>\n      <p>Rate your confidence in your answer from 1 (pure guess) to 5 (very sure) by pressing the corresponding button.</p>\n     ","response":4,"image":"img/ladder_alternate.jpg","task":"confidence","old_or_new":"new","trial_type":"html-button-response","trial_index":26,"time_elapsed":77684,"internal_node_id":"0.0-3.0-1.11","subject_id":"6086c720f0b89338b151ad99","study_id":"607de2837874a824e2e8c6ec","session_id":"6088547865f48ff007fdc3e3"},{"rt":979.1600000025937,"stimulus":"img/hair_tie_alternate.jpg","response":"n","image":"img/hair_tie_alternate.jpg","old_or_new":"new","task":"recognition","trial_type":"image-keyboard-response","trial_index":27,"time_elapsed":79166,"internal_node_id":"0.0-3.0-0.12","subject_id":"6086c720f0b89338b151ad99","study_id":"607de2837874a824e2e8c6ec","session_id":"6088547865f48ff007fdc3e3","correct":true},{"rt":749.1599999921164,"stimulus":"\n      <p>How sure are you?</p>\n      <p>Rate your confidence in your answer from 1 (pure guess) to 5 (very sure) by pressing the corresponding button.</p>\n     ","response":4,"image":"img/hair_tie_alternate.jpg","task":"confidence","old_or_new":"new","trial_type":"html-button-response","trial_index":28,"time_elapsed":79916,"internal_node_id":"0.0-3.0-1.12","subject_id":"6086c720f0b89338b151ad99","study_id":"607de2837874a824e2e8c6ec","session_id":"6088547865f48ff007fdc3e3"},{"rt":775.5049999977928,"stimulus":"img/apple.jpg","response":"y","image":"img/apple.jpg","old_or_new":"old","task":"recognition","trial_type":"image-keyboard-response","trial_index":29,"time_elapsed":81195,"internal_node_id":"0.0-3.0-0.13","subject_id":"6086c720f0b89338b151ad99","study_id":"607de2837874a824e2e8c6ec","session_id":"6088547865f48ff007fdc3e3","correct":true},{"rt":518.2500000082655,"stimulus":"\n      <p>How sure are you?</p>\n      <p>Rate your confidence in your answer from 1 (pure guess) to 5 (very sure) by pressing the corresponding button.</p>\n     ","response":4,"image":"img/apple.jpg","task":"confidence","old_or_new":"old","trial_type":"html-button-response","trial_index":30,"time_elapsed":81715,"internal_node_id":"0.0-3.0-1.13","subject_id":"6086c720f0b89338b151ad99","study_id":"607de2837874a824e2e8c6ec","session_id":"6088547865f48ff007fdc3e3"},{"rt":970.4400000046007,"stimulus":"img/hairbrush_alternate.jpg","response":"n","image":"img/hairbrush_alternate.jpg","old_or_new":"new","task":"recognition","trial_type":"image-keyboard-response","trial_index":31,"time_elapsed":83187,"internal_node_id":"0.0-3.0-0.14","subject_id":"6086c720f0b89338b151ad99","study_id":"607de2837874a824e2e8c6ec","session_id":"6088547865f48ff007fdc3e3","correct":true},{"rt":3088.6650000029476,"stimulus":"\n      <p>How sure are you?</p>\n      <p>Rate your confidence in your answer from 1 (pure guess) to 5 (very sure) by pressing the corresponding button.</p>\n     ","response":4,"image":"img/hairbrush_alternate.jpg","task":"confidence","old_or_new":"new","trial_type":"html-button-response","trial_index":32,"time_elapsed":86277,"internal_node_id":"0.0-3.0-1.14","subject_id":"6086c720f0b89338b151ad99","study_id":"607de2837874a824e2e8c6ec","session_id":"6088547865f48ff007fdc3e3"},{"rt":931.8650000059279,"stimulus":"img/bowl.jpg","response":"y","image":"img/bowl.jpg","old_or_new":"old","task":"recognition","trial_type":"image-keyboard-response","trial_index":33,"time_elapsed":87712,"internal_node_id":"0.0-3.0-0.15","subject_id":"6086c720f0b89338b151ad99","study_id":"607de2837874a824e2e8c6ec","session_id":"6088547865f48ff007fdc3e3","correct":true},{"rt":602.1850000106497,"stimulus":"\n      <p>How sure are you?</p>\n      <p>Rate your confidence in your answer from 1 (pure guess) to 5 (very sure) by pressing the corresponding button.</p>\n     ","response":4,"image":"img/bowl.jpg","task":"confidence","old_or_new":"old","trial_type":"html-button-response","trial_index":34,"time_elapsed":88315,"internal_node_id":"0.0-3.0-1.15","subject_id":"6086c720f0b89338b151ad99","study_id":"607de2837874a824e2e8c6ec","session_id":"6088547865f48ff007fdc3e3"},{"rt":811.8350000004284,"stimulus":"img/calculator_alternate.jpg","response":"n","image":"img/calculator_alternate.jpg","old_or_new":"new","task":"recognition","trial_type":"image-keyboard-response","trial_index":35,"time_elapsed":89631,"internal_node_id":"0.0-3.0-0.16","subject_id":"6086c720f0b89338b151ad99","study_id":"607de2837874a824e2e8c6ec","session_id":"6088547865f48ff007fdc3e3","correct":true},{"rt":505.0500000070315,"stimulus":"\n      <p>How sure are you?</p>\n      <p>Rate your confidence in your answer from 1 (pure guess) to 5 (very sure) by pressing the corresponding button.</p>\n     ","response":4,"image":"img/calculator_alternate.jpg","task":"confidence","old_or_new":"new","trial_type":"html-button-response","trial_index":36,"time_elapsed":90138,"internal_node_id":"0.0-3.0-1.16","subject_id":"6086c720f0b89338b151ad99","study_id":"607de2837874a824e2e8c6ec","session_id":"6088547865f48ff007fdc3e3"},{"rt":770.7249999948544,"stimulus":"img/hourglass_alternate.jpg","response":"n","image":"img/hourglass_alternate.jpg","old_or_new":"new","task":"recognition","trial_type":"image-keyboard-response","trial_index":37,"time_elapsed":91412,"internal_node_id":"0.0-3.0-0.17","subject_id":"6086c720f0b89338b151ad99","study_id":"607de2837874a824e2e8c6ec","session_id":"6088547865f48ff007fdc3e3","correct":true},{"rt":597.25000000617,"stimulus":"\n      <p>How sure are you?</p>\n      <p>Rate your confidence in your answer from 1 (pure guess) to 5 (very sure) by pressing the corresponding button.</p>\n     ","response":4,"image":"img/hourglass_alternate.jpg","task":"confidence","old_or_new":"new","trial_type":"html-button-response","trial_index":38,"time_elapsed":92012,"internal_node_id":"0.0-3.0-1.17","subject_id":"6086c720f0b89338b151ad99","study_id":"607de2837874a824e2e8c6ec","session_id":"6088547865f48ff007fdc3e3"},{"rt":2423.7900000007357,"stimulus":"img/folder_alternate.jpg","response":"n","image":"img/folder_alternate.jpg","old_or_new":"new","task":"recognition","trial_type":"image-keyboard-response","trial_index":39,"time_elapsed":94938,"internal_node_id":"0.0-3.0-0.18","subject_id":"6086c720f0b89338b151ad99","study_id":"607de2837874a824e2e8c6ec","session_id":"6088547865f48ff007fdc3e3","correct":true},{"rt":523.3250000019325,"stimulus":"\n      <p>How sure are you?</p>\n      <p>Rate your confidence in your answer from 1 (pure guess) to 5 (very sure) by pressing the corresponding button.</p>\n     ","response":4,"image":"img/folder_alternate.jpg","task":"confidence","old_or_new":"new","trial_type":"html-button-response","trial_index":40,"time_elapsed":95462,"internal_node_id":"0.0-3.0-1.18","subject_id":"6086c720f0b89338b151ad99","study_id":"607de2837874a824e2e8c6ec","session_id":"6088547865f48ff007fdc3e3"},{"rt":3946.330000006128,"stimulus":"img/hat_alternate.jpg","response":"n","image":"img/hat_alternate.jpg","old_or_new":"new","task":"recognition","trial_type":"image-keyboard-response","trial_index":41,"time_elapsed":99911,"internal_node_id":"0.0-3.0-0.19","subject_id":"6086c720f0b89338b151ad99","study_id":"607de2837874a824e2e8c6ec","session_id":"6088547865f48ff007fdc3e3","correct":true},{"rt":491.9850000005681,"stimulus":"\n      <p>How sure are you?</p>\n      <p>Rate your confidence in your answer from 1 (pure guess) to 5 (very sure) by pressing the corresponding button.</p>\n     ","response":4,"image":"img/hat_alternate.jpg","task":"confidence","old_or_new":"new","trial_type":"html-button-response","trial_index":42,"time_elapsed":100405,"internal_node_id":"0.0-3.0-1.19","subject_id":"6086c720f0b89338b151ad99","study_id":"607de2837874a824e2e8c6ec","session_id":"6088547865f48ff007fdc3e3"},{"rt":721.0000000050059,"stimulus":"img/grapes.jpg","response":"y","image":"img/grapes.jpg","old_or_new":"old","task":"recognition","trial_type":"image-keyboard-response","trial_index":43,"time_elapsed":101630,"internal_node_id":"0.0-3.0-0.20","subject_id":"6086c720f0b89338b151ad99","study_id":"607de2837874a824e2e8c6ec","session_id":"6088547865f48ff007fdc3e3","correct":true},{"rt":487.8400000015972,"stimulus":"\n      <p>How sure are you?</p>\n      <p>Rate your confidence in your answer from 1 (pure guess) to 5 (very sure) by pressing the corresponding button.</p>\n     ","response":4,"image":"img/grapes.jpg","task":"confidence","old_or_new":"old","trial_type":"html-button-response","trial_index":44,"time_elapsed":102119,"internal_node_id":"0.0-3.0-1.20","subject_id":"6086c720f0b89338b151ad99","study_id":"607de2837874a824e2e8c6ec","session_id":"6088547865f48ff007fdc3e3"},{"rt":831.6550000017742,"stimulus":"img/apple_alternate.jpg","response":"n","image":"img/apple_alternate.jpg","old_or_new":"new","task":"recognition","trial_type":"image-keyboard-response","trial_index":45,"time_elapsed":103453,"internal_node_id":"0.0-3.0-0.21","subject_id":"6086c720f0b89338b151ad99","study_id":"607de2837874a824e2e8c6ec","session_id":"6088547865f48ff007fdc3e3","correct":true},{"rt":505.5750000028638,"stimulus":"\n      <p>How sure are you?</p>\n      <p>Rate your confidence in your answer from 1 (pure guess) to 5 (very sure) by pressing the corresponding button.</p>\n     ","response":4,"image":"img/apple_alternate.jpg","task":"confidence","old_or_new":"new","trial_type":"html-button-response","trial_index":46,"time_elapsed":103959,"internal_node_id":"0.0-3.0-1.21","subject_id":"6086c720f0b89338b151ad99","study_id":"607de2837874a824e2e8c6ec","session_id":"6088547865f48ff007fdc3e3"},{"rt":1958.8599999988219,"stimulus":"img/fan_alternate.jpg","response":"n","image":"img/fan_alternate.jpg","old_or_new":"new","task":"recognition","trial_type":"image-keyboard-response","trial_index":47,"time_elapsed":106420,"internal_node_id":"0.0-3.0-0.22","subject_id":"6086c720f0b89338b151ad99","study_id":"607de2837874a824e2e8c6ec","session_id":"6088547865f48ff007fdc3e3","correct":true},{"rt":439.51000001106877,"stimulus":"\n      <p>How sure are you?</p>\n      <p>Rate your confidence in your answer from 1 (pure guess) to 5 (very sure) by pressing the corresponding button.</p>\n     ","response":4,"image":"img/fan_alternate.jpg","task":"confidence","old_or_new":"new","trial_type":"html-button-response","trial_index":48,"time_elapsed":106861,"internal_node_id":"0.0-3.0-1.22","subject_id":"6086c720f0b89338b151ad99","study_id":"607de2837874a824e2e8c6ec","session_id":"6088547865f48ff007fdc3e3"},{"rt":944.5350000023609,"stimulus":"img/hairbrush.jpg","response":"y","image":"img/hairbrush.jpg","old_or_new":"old","task":"recognition","trial_type":"image-keyboard-response","trial_index":49,"time_elapsed":108315,"internal_node_id":"0.0-3.0-0.23","subject_id":"6086c720f0b89338b151ad99","study_id":"607de2837874a824e2e8c6ec","session_id":"6088547865f48ff007fdc3e3","correct":true},{"rt":446.89500000094995,"stimulus":"\n      <p>How sure are you?</p>\n      <p>Rate your confidence in your answer from 1 (pure guess) to 5 (very sure) by pressing the corresponding button.</p>\n     ","response":4,"image":"img/hairbrush.jpg","task":"confidence","old_or_new":"old","trial_type":"html-button-response","trial_index":50,"time_elapsed":108765,"internal_node_id":"0.0-3.0-1.23","subject_id":"6086c720f0b89338b151ad99","study_id":"607de2837874a824e2e8c6ec","session_id":"6088547865f48ff007fdc3e3"},{"rt":965.7000000006519,"stimulus":"img/dryer.jpg","response":"y","image":"img/dryer.jpg","old_or_new":"old","task":"recognition","trial_type":"image-keyboard-response","trial_index":51,"time_elapsed":110235,"internal_node_id":"0.0-3.0-0.24","subject_id":"6086c720f0b89338b151ad99","study_id":"607de2837874a824e2e8c6ec","session_id":"6088547865f48ff007fdc3e3","correct":true},{"rt":460.76000000175554,"stimulus":"\n      <p>How sure are you?</p>\n      <p>Rate your confidence in your answer from 1 (pure guess) to 5 (very sure) by pressing the corresponding button.</p>\n     ","response":4,"image":"img/dryer.jpg","task":"confidence","old_or_new":"old","trial_type":"html-button-response","trial_index":52,"time_elapsed":110697,"internal_node_id":"0.0-3.0-1.24","subject_id":"6086c720f0b89338b151ad99","study_id":"607de2837874a824e2e8c6ec","session_id":"6088547865f48ff007fdc3e3"},{"rt":694.405000002007,"stimulus":"img/hat.jpg","response":"y","image":"img/hat.jpg","old_or_new":"old","task":"recognition","trial_type":"image-keyboard-response","trial_index":53,"time_elapsed":111894,"internal_node_id":"0.0-3.0-0.25","subject_id":"6086c720f0b89338b151ad99","study_id":"607de2837874a824e2e8c6ec","session_id":"6088547865f48ff007fdc3e3","correct":true},{"rt":509.1300000058254,"stimulus":"\n      <p>How sure are you?</p>\n      <p>Rate your confidence in your answer from 1 (pure guess) to 5 (very sure) by pressing the corresponding button.</p>\n     ","response":4,"image":"img/hat.jpg","task":"confidence","old_or_new":"old","trial_type":"html-button-response","trial_index":54,"time_elapsed":112405,"internal_node_id":"0.0-3.0-1.25","subject_id":"6086c720f0b89338b151ad99","study_id":"607de2837874a824e2e8c6ec","session_id":"6088547865f48ff007fdc3e3"},{"rt":940.0500000047032,"stimulus":"img/camera_alternate.jpg","response":"n","image":"img/camera_alternate.jpg","old_or_new":"new","task":"recognition","trial_type":"image-keyboard-response","trial_index":55,"time_elapsed":113848,"internal_node_id":"0.0-3.0-0.26","subject_id":"6086c720f0b89338b151ad99","study_id":"607de2837874a824e2e8c6ec","session_id":"6088547865f48ff007fdc3e3","correct":true},{"rt":1062.0049999997718,"stimulus":"\n      <p>How sure are you?</p>\n      <p>Rate your confidence in your answer from 1 (pure guess) to 5 (very sure) by pressing the corresponding button.</p>\n     ","response":4,"image":"img/camera_alternate.jpg","task":"confidence","old_or_new":"new","trial_type":"html-button-response","trial_index":56,"time_elapsed":114911,"internal_node_id":"0.0-3.0-1.26","subject_id":"6086c720f0b89338b151ad99","study_id":"607de2837874a824e2e8c6ec","session_id":"6088547865f48ff007fdc3e3"},{"rt":734.905000004801,"stimulus":"img/lightbulb_alternate.jpg","response":"n","image":"img/lightbulb_alternate.jpg","old_or_new":"new","task":"recognition","trial_type":"image-keyboard-response","trial_index":57,"time_elapsed":116149,"internal_node_id":"0.0-3.0-0.27","subject_id":"6086c720f0b89338b151ad99","study_id":"607de2837874a824e2e8c6ec","session_id":"6088547865f48ff007fdc3e3","correct":true},{"rt":437.3699999996461,"stimulus":"\n      <p>How sure are you?</p>\n      <p>Rate your confidence in your answer from 1 (pure guess) to 5 (very sure) by pressing the corresponding button.</p>\n     ","response":4,"image":"img/lightbulb_alternate.jpg","task":"confidence","old_or_new":"new","trial_type":"html-button-response","trial_index":58,"time_elapsed":116588,"internal_node_id":"0.0-3.0-1.27","subject_id":"6086c720f0b89338b151ad99","study_id":"607de2837874a824e2e8c6ec","session_id":"6088547865f48ff007fdc3e3"},{"rt":907.0950000023004,"stimulus":"img/calculator.jpg","response":"y","image":"img/calculator.jpg","old_or_new":"old","task":"recognition","trial_type":"image-keyboard-response","trial_index":59,"time_elapsed":117996,"internal_node_id":"0.0-3.0-0.28","subject_id":"6086c720f0b89338b151ad99","study_id":"607de2837874a824e2e8c6ec","session_id":"6088547865f48ff007fdc3e3","correct":true},{"rt":437.4299999908544,"stimulus":"\n      <p>How sure are you?</p>\n      <p>Rate your confidence in your answer from 1 (pure guess) to 5 (very sure) by pressing the corresponding button.</p>\n     ","response":4,"image":"img/calculator.jpg","task":"confidence","old_or_new":"old","trial_type":"html-button-response","trial_index":60,"time_elapsed":118435,"internal_node_id":"0.0-3.0-1.28","subject_id":"6086c720f0b89338b151ad99","study_id":"607de2837874a824e2e8c6ec","session_id":"6088547865f48ff007fdc3e3"},{"rt":761.4400000020396,"stimulus":"img/leaf.jpg","response":"y","image":"img/leaf.jpg","old_or_new":"old","task":"recognition","trial_type":"image-keyboard-response","trial_index":61,"time_elapsed":119707,"internal_node_id":"0.0-3.0-0.29","subject_id":"6086c720f0b89338b151ad99","study_id":"607de2837874a824e2e8c6ec","session_id":"6088547865f48ff007fdc3e3","correct":true},{"rt":410.4000000079395,"stimulus":"\n      <p>How sure are you?</p>\n      <p>Rate your confidence in your answer from 1 (pure guess) to 5 (very sure) by pressing the corresponding button.</p>\n     ","response":4,"image":"img/leaf.jpg","task":"confidence","old_or_new":"old","trial_type":"html-button-response","trial_index":62,"time_elapsed":120118,"internal_node_id":"0.0-3.0-1.29","subject_id":"6086c720f0b89338b151ad99","study_id":"607de2837874a824e2e8c6ec","session_id":"6088547865f48ff007fdc3e3"},{"rt":1917.7599999966333,"stimulus":"img/drum.jpg","response":"y","image":"img/drum.jpg","old_or_new":"old","task":"recognition","trial_type":"image-keyboard-response","trial_index":63,"time_elapsed":122539,"internal_node_id":"0.0-3.0-0.30","subject_id":"6086c720f0b89338b151ad99","study_id":"607de2837874a824e2e8c6ec","session_id":"6088547865f48ff007fdc3e3","correct":true},{"rt":878.2700000010664,"stimulus":"\n      <p>How sure are you?</p>\n      <p>Rate your confidence in your answer from 1 (pure guess) to 5 (very sure) by pressing the corresponding button.</p>\n     ","response":2,"image":"img/drum.jpg","task":"confidence","old_or_new":"old","trial_type":"html-button-response","trial_index":64,"time_elapsed":123418,"internal_node_id":"0.0-3.0-1.30","subject_id":"6086c720f0b89338b151ad99","study_id":"607de2837874a824e2e8c6ec","session_id":"6088547865f48ff007fdc3e3"},{"rt":781.7099999956554,"stimulus":"img/fan.jpg","response":"y","image":"img/fan.jpg","old_or_new":"old","task":"recognition","trial_type":"image-keyboard-response","trial_index":65,"time_elapsed":124702,"internal_node_id":"0.0-3.0-0.31","subject_id":"6086c720f0b89338b151ad99","study_id":"607de2837874a824e2e8c6ec","session_id":"6088547865f48ff007fdc3e3","correct":true},{"rt":1183.7549999909243,"stimulus":"\n      <p>How sure are you?</p>\n      <p>Rate your confidence in your answer from 1 (pure guess) to 5 (very sure) by pressing the corresponding button.</p>\n     ","response":4,"image":"img/fan.jpg","task":"confidence","old_or_new":"old","trial_type":"html-button-response","trial_index":66,"time_elapsed":125887,"internal_node_id":"0.0-3.0-1.31","subject_id":"6086c720f0b89338b151ad99","study_id":"607de2837874a824e2e8c6ec","session_id":"6088547865f48ff007fdc3e3"},{"rt":634.2250000016065,"stimulus":"img/coin.jpg","response":"y","image":"img/coin.jpg","old_or_new":"old","task":"recognition","trial_type":"image-keyboard-response","trial_index":67,"time_elapsed":127024,"internal_node_id":"0.0-3.0-0.32","subject_id":"6086c720f0b89338b151ad99","study_id":"607de2837874a824e2e8c6ec","session_id":"6088547865f48ff007fdc3e3","correct":true},{"rt":399.6999999944819,"stimulus":"\n      <p>How sure are you?</p>\n      <p>Rate your confidence in your answer from 1 (pure guess) to 5 (very sure) by pressing the corresponding button.</p>\n     ","response":4,"image":"img/coin.jpg","task":"confidence","old_or_new":"old","trial_type":"html-button-response","trial_index":68,"time_elapsed":127425,"internal_node_id":"0.0-3.0-1.32","subject_id":"6086c720f0b89338b151ad99","study_id":"607de2837874a824e2e8c6ec","session_id":"6088547865f48ff007fdc3e3"},{"rt":559.2650000035064,"stimulus":"img/hourglass.jpg","response":"y","image":"img/hourglass.jpg","old_or_new":"old","task":"recognition","trial_type":"image-keyboard-response","trial_index":69,"time_elapsed":128488,"internal_node_id":"0.0-3.0-0.33","subject_id":"6086c720f0b89338b151ad99","study_id":"607de2837874a824e2e8c6ec","session_id":"6088547865f48ff007fdc3e3","correct":true},{"rt":645.4650000086986,"stimulus":"\n      <p>How sure are you?</p>\n      <p>Rate your confidence in your answer from 1 (pure guess) to 5 (very sure) by pressing the corresponding button.</p>\n     ","response":4,"image":"img/hourglass.jpg","task":"confidence","old_or_new":"old","trial_type":"html-button-response","trial_index":70,"time_elapsed":129135,"internal_node_id":"0.0-3.0-1.33","subject_id":"6086c720f0b89338b151ad99","study_id":"607de2837874a824e2e8c6ec","session_id":"6088547865f48ff007fdc3e3"},{"rt":967.8449999919394,"stimulus":"img/basket.jpg","response":"y","image":"img/basket.jpg","old_or_new":"old","task":"recognition","trial_type":"image-keyboard-response","trial_index":71,"time_elapsed":130605,"internal_node_id":"0.0-3.0-0.34","subject_id":"6086c720f0b89338b151ad99","study_id":"607de2837874a824e2e8c6ec","session_id":"6088547865f48ff007fdc3e3","correct":true},{"rt":517.4499999993714,"stimulus":"\n      <p>How sure are you?</p>\n      <p>Rate your confidence in your answer from 1 (pure guess) to 5 (very sure) by pressing the corresponding button.</p>\n     ","response":4,"image":"img/basket.jpg","task":"confidence","old_or_new":"old","trial_type":"html-button-response","trial_index":72,"time_elapsed":131124,"internal_node_id":"0.0-3.0-1.34","subject_id":"6086c720f0b89338b151ad99","study_id":"607de2837874a824e2e8c6ec","session_id":"6088547865f48ff007fdc3e3"},{"rt":1036.3549999892712,"stimulus":"img/hair_tie.jpg","response":"y","image":"img/hair_tie.jpg","old_or_new":"old","task":"recognition","trial_type":"image-keyboard-response","trial_index":73,"time_elapsed":132663,"internal_node_id":"0.0-3.0-0.35","subject_id":"6086c720f0b89338b151ad99","study_id":"607de2837874a824e2e8c6ec","session_id":"6088547865f48ff007fdc3e3","correct":true},{"rt":410.66500000306405,"stimulus":"\n      <p>How sure are you?</p>\n      <p>Rate your confidence in your answer from 1 (pure guess) to 5 (very sure) by pressing the corresponding button.</p>\n     ","response":4,"image":"img/hair_tie.jpg","task":"confidence","old_or_new":"old","trial_type":"html-button-response","trial_index":74,"time_elapsed":133075,"internal_node_id":"0.0-3.0-1.35","subject_id":"6086c720f0b89338b151ad99","study_id":"607de2837874a824e2e8c6ec","session_id":"6088547865f48ff007fdc3e3"},{"rt":1089.254999998957,"stimulus":"img/glasses_alternate.jpg","response":"n","image":"img/glasses_alternate.jpg","old_or_new":"new","task":"recognition","trial_type":"image-keyboard-response","trial_index":75,"time_elapsed":134667,"internal_node_id":"0.0-3.0-0.36","subject_id":"6086c720f0b89338b151ad99","study_id":"607de2837874a824e2e8c6ec","session_id":"6088547865f48ff007fdc3e3","correct":true},{"rt":1896.439999996801,"stimulus":"\n      <p>How sure are you?</p>\n      <p>Rate your confidence in your answer from 1 (pure guess) to 5 (very sure) by pressing the corresponding button.</p>\n     ","response":4,"image":"img/glasses_alternate.jpg","task":"confidence","old_or_new":"new","trial_type":"html-button-response","trial_index":76,"time_elapsed":136564,"internal_node_id":"0.0-3.0-1.36","subject_id":"6086c720f0b89338b151ad99","study_id":"607de2837874a824e2e8c6ec","session_id":"6088547865f48ff007fdc3e3"},{"rt":818.1400000030408,"stimulus":"img/key.jpg","response":"y","image":"img/key.jpg","old_or_new":"old","task":"recognition","trial_type":"image-keyboard-response","trial_index":77,"time_elapsed":137892,"internal_node_id":"0.0-3.0-0.37","subject_id":"6086c720f0b89338b151ad99","study_id":"607de2837874a824e2e8c6ec","session_id":"6088547865f48ff007fdc3e3","correct":true},{"rt":399.6600000100443,"stimulus":"\n      <p>How sure are you?</p>\n      <p>Rate your confidence in your answer from 1 (pure guess) to 5 (very sure) by pressing the corresponding button.</p>\n     ","response":4,"image":"img/key.jpg","task":"confidence","old_or_new":"old","trial_type":"html-button-response","trial_index":78,"time_elapsed":138293,"internal_node_id":"0.0-3.0-1.37","subject_id":"6086c720f0b89338b151ad99","study_id":"607de2837874a824e2e8c6ec","session_id":"6088547865f48ff007fdc3e3"},{"rt":1284.1049999988172,"stimulus":"img/bowl_alternate.jpg","response":"n","image":"img/bowl_alternate.jpg","old_or_new":"new","task":"recognition","trial_type":"image-keyboard-response","trial_index":79,"time_elapsed":140080,"internal_node_id":"0.0-3.0-0.38","subject_id":"6086c720f0b89338b151ad99","study_id":"607de2837874a824e2e8c6ec","session_id":"6088547865f48ff007fdc3e3","correct":true},{"rt":463.20500000729226,"stimulus":"\n      <p>How sure are you?</p>\n      <p>Rate your confidence in your answer from 1 (pure guess) to 5 (very sure) by pressing the corresponding button.</p>\n     ","response":4,"image":"img/bowl_alternate.jpg","task":"confidence","old_or_new":"new","trial_type":"html-button-response","trial_index":80,"time_elapsed":140544,"internal_node_id":"0.0-3.0-1.38","subject_id":"6086c720f0b89338b151ad99","study_id":"607de2837874a824e2e8c6ec","session_id":"6088547865f48ff007fdc3e3"},{"rt":948.8450000062585,"stimulus":"img/grapes_alternate.jpg","response":"n","image":"img/grapes_alternate.jpg","old_or_new":"new","task":"recognition","trial_type":"image-keyboard-response","trial_index":81,"time_elapsed":141994,"internal_node_id":"0.0-3.0-0.39","subject_id":"6086c720f0b89338b151ad99","study_id":"607de2837874a824e2e8c6ec","session_id":"6088547865f48ff007fdc3e3","correct":true},{"rt":436.23000000661705,"stimulus":"\n      <p>How sure are you?</p>\n      <p>Rate your confidence in your answer from 1 (pure guess) to 5 (very sure) by pressing the corresponding button.</p>\n     ","response":4,"image":"img/grapes_alternate.jpg","task":"confidence","old_or_new":"new","trial_type":"html-button-response","trial_index":82,"time_elapsed":142432,"internal_node_id":"0.0-3.0-1.39","subject_id":"6086c720f0b89338b151ad99","study_id":"607de2837874a824e2e8c6ec","session_id":"6088547865f48ff007fdc3e3"},{"rt":811.0699999961071,"stimulus":"img/leaf_alternate.jpg","response":"n","image":"img/leaf_alternate.jpg","old_or_new":"new","task":"recognition","trial_type":"image-keyboard-response","trial_index":83,"time_elapsed":143746,"internal_node_id":"0.0-3.0-0.40","subject_id":"6086c720f0b89338b151ad99","study_id":"607de2837874a824e2e8c6ec","session_id":"6088547865f48ff007fdc3e3","correct":true},{"rt":462.7749999926891,"stimulus":"\n      <p>How sure are you?</p>\n      <p>Rate your confidence in your answer from 1 (pure guess) to 5 (very sure) by pressing the corresponding button.</p>\n     ","response":4,"image":"img/leaf_alternate.jpg","task":"confidence","old_or_new":"new","trial_type":"html-button-response","trial_index":84,"time_elapsed":144210,"internal_node_id":"0.0-3.0-1.40","subject_id":"6086c720f0b89338b151ad99","study_id":"607de2837874a824e2e8c6ec","session_id":"6088547865f48ff007fdc3e3"},{"rt":802.865000005113,"stimulus":"img/chair_alternate.jpg","response":"n","image":"img/chair_alternate.jpg","old_or_new":"new","task":"recognition","trial_type":"image-keyboard-response","trial_index":85,"time_elapsed":145516,"internal_node_id":"0.0-3.0-0.41","subject_id":"6086c720f0b89338b151ad99","study_id":"607de2837874a824e2e8c6ec","session_id":"6088547865f48ff007fdc3e3","correct":true},{"rt":427.71999999240506,"stimulus":"\n      <p>How sure are you?</p>\n      <p>Rate your confidence in your answer from 1 (pure guess) to 5 (very sure) by pressing the corresponding button.</p>\n     ","response":4,"image":"img/chair_alternate.jpg","task":"confidence","old_or_new":"new","trial_type":"html-button-response","trial_index":86,"time_elapsed":145945,"internal_node_id":"0.0-3.0-1.41","subject_id":"6086c720f0b89338b151ad99","study_id":"607de2837874a824e2e8c6ec","session_id":"6088547865f48ff007fdc3e3"},{"rt":751.0099999926751,"stimulus":"img/backpack.jpg","response":"y","image":"img/backpack.jpg","old_or_new":"old","task":"recognition","trial_type":"image-keyboard-response","trial_index":87,"time_elapsed":147200,"internal_node_id":"0.0-3.0-0.42","subject_id":"6086c720f0b89338b151ad99","study_id":"607de2837874a824e2e8c6ec","session_id":"6088547865f48ff007fdc3e3","correct":true},{"rt":442.2599999961676,"stimulus":"\n      <p>How sure are you?</p>\n      <p>Rate your confidence in your answer from 1 (pure guess) to 5 (very sure) by pressing the corresponding button.</p>\n     ","response":4,"image":"img/backpack.jpg","task":"confidence","old_or_new":"old","trial_type":"html-button-response","trial_index":88,"time_elapsed":147643,"internal_node_id":"0.0-3.0-1.42","subject_id":"6086c720f0b89338b151ad99","study_id":"607de2837874a824e2e8c6ec","session_id":"6088547865f48ff007fdc3e3"},{"rt":883.78499999817,"stimulus":"img/globe_alternate.jpg","response":"n","image":"img/globe_alternate.jpg","old_or_new":"new","task":"recognition","trial_type":"image-keyboard-response","trial_index":89,"time_elapsed":149029,"internal_node_id":"0.0-3.0-0.43","subject_id":"6086c720f0b89338b151ad99","study_id":"607de2837874a824e2e8c6ec","session_id":"6088547865f48ff007fdc3e3","correct":true},{"rt":425.6699999968987,"stimulus":"\n      <p>How sure are you?</p>\n      <p>Rate your confidence in your answer from 1 (pure guess) to 5 (very sure) by pressing the corresponding button.</p>\n     ","response":4,"image":"img/globe_alternate.jpg","task":"confidence","old_or_new":"new","trial_type":"html-button-response","trial_index":90,"time_elapsed":149456,"internal_node_id":"0.0-3.0-1.43","subject_id":"6086c720f0b89338b151ad99","study_id":"607de2837874a824e2e8c6ec","session_id":"6088547865f48ff007fdc3e3"},{"rt":566.2149999989197,"stimulus":"img/globe.jpg","response":"y","image":"img/globe.jpg","old_or_new":"old","task":"recognition","trial_type":"image-keyboard-response","trial_index":91,"time_elapsed":150525,"internal_node_id":"0.0-3.0-0.44","subject_id":"6086c720f0b89338b151ad99","study_id":"607de2837874a824e2e8c6ec","session_id":"6088547865f48ff007fdc3e3","correct":true},{"rt":462.0849999919301,"stimulus":"\n      <p>How sure are you?</p>\n      <p>Rate your confidence in your answer from 1 (pure guess) to 5 (very sure) by pressing the corresponding button.</p>\n     ","response":4,"image":"img/globe.jpg","task":"confidence","old_or_new":"old","trial_type":"html-button-response","trial_index":92,"time_elapsed":150988,"internal_node_id":"0.0-3.0-1.44","subject_id":"6086c720f0b89338b151ad99","study_id":"607de2837874a824e2e8c6ec","session_id":"6088547865f48ff007fdc3e3"},{"rt":1390.8450000017183,"stimulus":"img/key_alternate.jpg","response":"n","image":"img/key_alternate.jpg","old_or_new":"new","task":"recognition","trial_type":"image-keyboard-response","trial_index":93,"time_elapsed":152882,"internal_node_id":"0.0-3.0-0.45","subject_id":"6086c720f0b89338b151ad99","study_id":"607de2837874a824e2e8c6ec","session_id":"6088547865f48ff007fdc3e3","correct":true},{"rt":619.1399999952409,"stimulus":"\n      <p>How sure are you?</p>\n      <p>Rate your confidence in your answer from 1 (pure guess) to 5 (very sure) by pressing the corresponding button.</p>\n     ","response":4,"image":"img/key_alternate.jpg","task":"confidence","old_or_new":"new","trial_type":"html-button-response","trial_index":94,"time_elapsed":153502,"internal_node_id":"0.0-3.0-1.45","subject_id":"6086c720f0b89338b151ad99","study_id":"607de2837874a824e2e8c6ec","session_id":"6088547865f48ff007fdc3e3"},{"rt":2898.109999994631,"stimulus":"img/chair.jpg","response":"y","image":"img/chair.jpg","old_or_new":"old","task":"recognition","trial_type":"image-keyboard-response","trial_index":95,"time_elapsed":156902,"internal_node_id":"0.0-3.0-0.46","subject_id":"6086c720f0b89338b151ad99","study_id":"607de2837874a824e2e8c6ec","session_id":"6088547865f48ff007fdc3e3","correct":true},{"rt":562.9300000000512,"stimulus":"\n      <p>How sure are you?</p>\n      <p>Rate your confidence in your answer from 1 (pure guess) to 5 (very sure) by pressing the corresponding button.</p>\n     ","response":4,"image":"img/chair.jpg","task":"confidence","old_or_new":"old","trial_type":"html-button-response","trial_index":96,"time_elapsed":157467,"internal_node_id":"0.0-3.0-1.46","subject_id":"6086c720f0b89338b151ad99","study_id":"607de2837874a824e2e8c6ec","session_id":"6088547865f48ff007fdc3e3"},{"rt":1019.5200000016484,"stimulus":"img/backpack_alternate.jpg","response":"n","image":"img/backpack_alternate.jpg","old_or_new":"new","task":"recognition","trial_type":"image-keyboard-response","trial_index":97,"time_elapsed":158989,"internal_node_id":"0.0-3.0-0.47","subject_id":"6086c720f0b89338b151ad99","study_id":"607de2837874a824e2e8c6ec","session_id":"6088547865f48ff007fdc3e3","correct":true},{"rt":433.5549999959767,"stimulus":"\n      <p>How sure are you?</p>\n      <p>Rate your confidence in your answer from 1 (pure guess) to 5 (very sure) by pressing the corresponding button.</p>\n     ","response":4,"image":"img/backpack_alternate.jpg","task":"confidence","old_or_new":"new","trial_type":"html-button-response","trial_index":98,"time_elapsed":159423,"internal_node_id":"0.0-3.0-1.47","subject_id":"6086c720f0b89338b151ad99","study_id":"607de2837874a824e2e8c6ec","session_id":"6088547865f48ff007fdc3e3"}]