[{"success":true,"timeout":false,"failed_images":[],"failed_audio":[],"failed_video":[],"trial_type":"preload","trial_index":0,"time_elapsed":4368,"internal_node_id":"0.0-0.0","subject_id":"5f4925af11cd1a3080f136b0","study_id":"606233c0e42b980319b6a18e","session_id":"608834b85ccc4679581254df"},{"rt":13801.974999951199,"stimulus":"\n      <div style=\"width:800px; text-align: left;\">\n        <p>Welcome to day 2 of the experiment! Thanks for coming back.</p>\n        <p>You will be presented with a series of images. Images will appear one at a time.</p>\n        <p>Each image will remain on the screen until you press either <span style=\"font-weight: bold;\">\"y\" to indicate you have seen the \n        exact same photo the day before or \"n\" to indicate you have not seen the exact same photo the day before.</span></p>\n        <p>After you answer yes (\"y\") or no (\"n\"), you will then be prompted to rate your certainty on a scale of\n        1 (pure guess) to 5 (very sure).</p>\n      </div>\n    ","response":0,"trial_type":"html-button-response","trial_index":1,"time_elapsed":18172,"internal_node_id":"0.0-1.0","subject_id":"5f4925af11cd1a3080f136b0","study_id":"606233c0e42b980319b6a18e","session_id":"608834b85ccc4679581254df"},{"success":true,"trial_type":"fullscreen","trial_index":2,"time_elapsed":20911,"internal_node_id":"0.0-2.0","subject_id":"5f4925af11cd1a3080f136b0","study_id":"606233c0e42b980319b6a18e","session_id":"608834b85ccc4679581254df"},{"rt":1056.624999968335,"stimulus":"img/sink.jpg","response":"y","image":"img/sink.jpg","old_or_new":"old","task":"recognition","trial_type":"image-keyboard-response","trial_index":3,"time_elapsed":21979,"internal_node_id":"0.0-3.0-0.0","subject_id":"5f4925af11cd1a3080f136b0","study_id":"606233c0e42b980319b6a18e","session_id":"608834b85ccc4679581254df","correct":true},{"rt":2960.579999955371,"stimulus":"\n      <p>How sure are you?</p>\n      <p>Rate your confidence in your answer from 1 (pure guess) to 5 (very sure) by pressing the corresponding button.</p>\n     ","response":4,"image":"img/sink.jpg","task":"confidence","old_or_new":"old","trial_type":"html-button-response","trial_index":4,"time_elapsed":24942,"internal_node_id":"0.0-3.0-1.0","subject_id":"5f4925af11cd1a3080f136b0","study_id":"606233c0e42b980319b6a18e","session_id":"608834b85ccc4679581254df"},{"rt":1180.980000179261,"stimulus":"img/shoe_alternate.jpg","response":"n","image":"img/shoe_alternate.jpg","old_or_new":"new","task":"recognition","trial_type":"image-keyboard-response","trial_index":5,"time_elapsed":26636,"internal_node_id":"0.0-3.0-0.1","subject_id":"5f4925af11cd1a3080f136b0","study_id":"606233c0e42b980319b6a18e","session_id":"608834b85ccc4679581254df","correct":true},{"rt":908.6249999236315,"stimulus":"\n      <p>How sure are you?</p>\n      <p>Rate your confidence in your answer from 1 (pure guess) to 5 (very sure) by pressing the corresponding button.</p>\n     ","response":2,"image":"img/shoe_alternate.jpg","task":"confidence","old_or_new":"new","trial_type":"html-button-response","trial_index":6,"time_elapsed":27546,"internal_node_id":"0.0-3.0-1.1","subject_id":"5f4925af11cd1a3080f136b0","study_id":"606233c0e42b980319b6a18e","session_id":"608834b85ccc4679581254df"},{"rt":655.99500015378,"stimulus":"img/power_cord.jpg","response":"y","image":"img/power_cord.jpg","old_or_new":"old","task":"recognition","trial_type":"image-keyboard-response","trial_index":7,"time_elapsed":28712,"internal_node_id":"0.0-3.0-0.2","subject_id":"5f4925af11cd1a3080f136b0","study_id":"606233c0e42b980319b6a18e","session_id":"608834b85ccc4679581254df","correct":true},{"rt":740.1250000111759,"stimulus":"\n      <p>How sure are you?</p>\n      <p>Rate your confidence in your answer from 1 (pure guess) to 5 (very sure) by pressing the corresponding button.</p>\n     ","response":4,"image":"img/power_cord.jpg","task":"confidence","old_or_new":"old","trial_type":"html-button-response","trial_index":8,"time_elapsed":29454,"internal_node_id":"0.0-3.0-1.2","subject_id":"5f4925af11cd1a3080f136b0","study_id":"606233c0e42b980319b6a18e","session_id":"608834b85ccc4679581254df"},{"rt":775.6100001279265,"stimulus":"img/yarn.jpg","response":"y","image":"img/yarn.jpg","old_or_new":"old","task":"recognition","trial_type":"image-keyboard-response","trial_index":9,"time_elapsed":30741,"internal_node_id":"0.0-3.0-0.3","subject_id":"5f4925af11cd1a3080f136b0","study_id":"606233c0e42b980319b6a18e","session_id":"608834b85ccc4679581254df","correct":true},{"rt":933.309999993071,"stimulus":"\n      <p>How sure are you?</p>\n      <p>Rate your confidence in your answer from 1 (pure guess) to 5 (very sure) by pressing the corresponding button.</p>\n     ","response":4,"image":"img/yarn.jpg","task":"confidence","old_or_new":"old","trial_type":"html-button-response","trial_index":10,"time_elapsed":31676,"internal_node_id":"0.0-3.0-1.3","subject_id":"5f4925af11cd1a3080f136b0","study_id":"606233c0e42b980319b6a18e","session_id":"608834b85ccc4679581254df"},{"rt":1195.405000122264,"stimulus":"img/shirt_alternate.jpg","response":"n","image":"img/shirt_alternate.jpg","old_or_new":"new","task":"recognition","trial_type":"image-keyboard-response","trial_index":11,"time_elapsed":33380,"internal_node_id":"0.0-3.0-0.4","subject_id":"5f4925af11cd1a3080f136b0","study_id":"606233c0e42b980319b6a18e","session_id":"608834b85ccc4679581254df","correct":true},{"rt":1414.4550000783056,"stimulus":"\n      <p>How sure are you?</p>\n      <p>Rate your confidence in your answer from 1 (pure guess) to 5 (very sure) by pressing the corresponding button.</p>\n     ","response":2,"image":"img/shirt_alternate.jpg","task":"confidence","old_or_new":"new","trial_type":"html-button-response","trial_index":12,"time_elapsed":34796,"internal_node_id":"0.0-3.0-1.4","subject_id":"5f4925af11cd1a3080f136b0","study_id":"606233c0e42b980319b6a18e","session_id":"608834b85ccc4679581254df"},{"rt":864.5649999380112,"stimulus":"img/knife.jpg","response":"y","image":"img/knife.jpg","old_or_new":"old","task":"recognition","trial_type":"image-keyboard-response","trial_index":13,"time_elapsed":36168,"internal_node_id":"0.0-3.0-0.5","subject_id":"5f4925af11cd1a3080f136b0","study_id":"606233c0e42b980319b6a18e","session_id":"608834b85ccc4679581254df","correct":true},{"rt":790.1699999347329,"stimulus":"\n      <p>How sure are you?</p>\n      <p>Rate your confidence in your answer from 1 (pure guess) to 5 (very sure) by pressing the corresponding button.</p>\n     ","response":4,"image":"img/knife.jpg","task":"confidence","old_or_new":"old","trial_type":"html-button-response","trial_index":14,"time_elapsed":36960,"internal_node_id":"0.0-3.0-1.5","subject_id":"5f4925af11cd1a3080f136b0","study_id":"606233c0e42b980319b6a18e","session_id":"608834b85ccc4679581254df"},{"rt":877.0949998870492,"stimulus":"img/power_cord_alternate.jpg","response":"n","image":"img/power_cord_alternate.jpg","old_or_new":"new","task":"recognition","trial_type":"image-keyboard-response","trial_index":15,"time_elapsed":38344,"internal_node_id":"0.0-3.0-0.6","subject_id":"5f4925af11cd1a3080f136b0","study_id":"606233c0e42b980319b6a18e","session_id":"608834b85ccc4679581254df","correct":true},{"rt":1257.915000198409,"stimulus":"\n      <p>How sure are you?</p>\n      <p>Rate your confidence in your answer from 1 (pure guess) to 5 (very sure) by pressing the corresponding button.</p>\n     ","response":1,"image":"img/power_cord_alternate.jpg","task":"confidence","old_or_new":"new","trial_type":"html-button-response","trial_index":16,"time_elapsed":39603,"internal_node_id":"0.0-3.0-1.6","subject_id":"5f4925af11cd1a3080f136b0","study_id":"606233c0e42b980319b6a18e","session_id":"608834b85ccc4679581254df"},{"rt":1303.7650000769645,"stimulus":"img/plane_alternate.jpg","response":"n","image":"img/plane_alternate.jpg","old_or_new":"new","task":"recognition","trial_type":"image-keyboard-response","trial_index":17,"time_elapsed":41425,"internal_node_id":"0.0-3.0-0.7","subject_id":"5f4925af11cd1a3080f136b0","study_id":"606233c0e42b980319b6a18e","session_id":"608834b85ccc4679581254df","correct":true},{"rt":755.2750001195818,"stimulus":"\n      <p>How sure are you?</p>\n      <p>Rate your confidence in your answer from 1 (pure guess) to 5 (very sure) by pressing the corresponding button.</p>\n     ","response":1,"image":"img/plane_alternate.jpg","task":"confidence","old_or_new":"new","trial_type":"html-button-response","trial_index":18,"time_elapsed":42181,"internal_node_id":"0.0-3.0-1.7","subject_id":"5f4925af11cd1a3080f136b0","study_id":"606233c0e42b980319b6a18e","session_id":"608834b85ccc4679581254df"},{"rt":643.0600001476705,"stimulus":"img/seashell.jpg","response":"y","image":"img/seashell.jpg","old_or_new":"old","task":"recognition","trial_type":"image-keyboard-response","trial_index":19,"time_elapsed":43339,"internal_node_id":"0.0-3.0-0.8","subject_id":"5f4925af11cd1a3080f136b0","study_id":"606233c0e42b980319b6a18e","session_id":"608834b85ccc4679581254df","correct":true},{"rt":663.8149998616427,"stimulus":"\n      <p>How sure are you?</p>\n      <p>Rate your confidence in your answer from 1 (pure guess) to 5 (very sure) by pressing the corresponding button.</p>\n     ","response":4,"image":"img/seashell.jpg","task":"confidence","old_or_new":"old","trial_type":"html-button-response","trial_index":20,"time_elapsed":44003,"internal_node_id":"0.0-3.0-1.8","subject_id":"5f4925af11cd1a3080f136b0","study_id":"606233c0e42b980319b6a18e","session_id":"608834b85ccc4679581254df"},{"rt":1569.7600001003593,"stimulus":"img/spoon_alternate.jpg","response":"n","image":"img/spoon_alternate.jpg","old_or_new":"new","task":"recognition","trial_type":"image-keyboard-response","trial_index":21,"time_elapsed":46082,"internal_node_id":"0.0-3.0-0.9","subject_id":"5f4925af11cd1a3080f136b0","study_id":"606233c0e42b980319b6a18e","session_id":"608834b85ccc4679581254df","correct":true},{"rt":999.4149999693036,"stimulus":"\n      <p>How sure are you?</p>\n      <p>Rate your confidence in your answer from 1 (pure guess) to 5 (very sure) by pressing the corresponding button.</p>\n     ","response":1,"image":"img/spoon_alternate.jpg","task":"confidence","old_or_new":"new","trial_type":"html-button-response","trial_index":22,"time_elapsed":47083,"internal_node_id":"0.0-3.0-1.9","subject_id":"5f4925af11cd1a3080f136b0","study_id":"606233c0e42b980319b6a18e","session_id":"608834b85ccc4679581254df"},{"rt":629.190000006929,"stimulus":"img/tv.jpg","response":"y","image":"img/tv.jpg","old_or_new":"old","task":"recognition","trial_type":"image-keyboard-response","trial_index":23,"time_elapsed":48227,"internal_node_id":"0.0-3.0-0.10","subject_id":"5f4925af11cd1a3080f136b0","study_id":"606233c0e42b980319b6a18e","session_id":"608834b85ccc4679581254df","correct":true},{"rt":582.9600000288337,"stimulus":"\n      <p>How sure are you?</p>\n      <p>Rate your confidence in your answer from 1 (pure guess) to 5 (very sure) by pressing the corresponding button.</p>\n     ","response":4,"image":"img/tv.jpg","task":"confidence","old_or_new":"old","trial_type":"html-button-response","trial_index":24,"time_elapsed":48811,"internal_node_id":"0.0-3.0-1.10","subject_id":"5f4925af11cd1a3080f136b0","study_id":"606233c0e42b980319b6a18e","session_id":"608834b85ccc4679581254df"},{"rt":763.6049999855459,"stimulus":"img/tv_alternate.jpg","response":"n","image":"img/tv_alternate.jpg","old_or_new":"new","task":"recognition","trial_type":"image-keyboard-response","trial_index":25,"time_elapsed":50077,"internal_node_id":"0.0-3.0-0.11","subject_id":"5f4925af11cd1a3080f136b0","study_id":"606233c0e42b980319b6a18e","session_id":"608834b85ccc4679581254df","correct":true},{"rt":913.1700000725687,"stimulus":"\n      <p>How sure are you?</p>\n      <p>Rate your confidence in your answer from 1 (pure guess) to 5 (very sure) by pressing the corresponding button.</p>\n     ","response":4,"image":"img/tv_alternate.jpg","task":"confidence","old_or_new":"new","trial_type":"html-button-response","trial_index":26,"time_elapsed":50992,"internal_node_id":"0.0-3.0-1.11","subject_id":"5f4925af11cd1a3080f136b0","study_id":"606233c0e42b980319b6a18e","session_id":"608834b85ccc4679581254df"},{"rt":788.4249999187887,"stimulus":"img/seashell_alternate.jpg","response":"n","image":"img/seashell_alternate.jpg","old_or_new":"new","task":"recognition","trial_type":"image-keyboard-response","trial_index":27,"time_elapsed":52293,"internal_node_id":"0.0-3.0-0.12","subject_id":"5f4925af11cd1a3080f136b0","study_id":"606233c0e42b980319b6a18e","session_id":"608834b85ccc4679581254df","correct":true},{"rt":683.5449999198318,"stimulus":"\n      <p>How sure are you?</p>\n      <p>Rate your confidence in your answer from 1 (pure guess) to 5 (very sure) by pressing the corresponding button.</p>\n     ","response":4,"image":"img/seashell_alternate.jpg","task":"confidence","old_or_new":"new","trial_type":"html-button-response","trial_index":28,"time_elapsed":52978,"internal_node_id":"0.0-3.0-1.12","subject_id":"5f4925af11cd1a3080f136b0","study_id":"606233c0e42b980319b6a18e","session_id":"608834b85ccc4679581254df"},{"rt":790.9450000151992,"stimulus":"img/pizza.jpg","response":"n","image":"img/pizza.jpg","old_or_new":"old","task":"recognition","trial_type":"image-keyboard-response","trial_index":29,"time_elapsed":54281,"internal_node_id":"0.0-3.0-0.13","subject_id":"5f4925af11cd1a3080f136b0","study_id":"606233c0e42b980319b6a18e","session_id":"608834b85ccc4679581254df","correct":false},{"rt":1795.410000020638,"stimulus":"\n      <p>How sure are you?</p>\n      <p>Rate your confidence in your answer from 1 (pure guess) to 5 (very sure) by pressing the corresponding button.</p>\n     ","response":0,"image":"img/pizza.jpg","task":"confidence","old_or_new":"old","trial_type":"html-button-response","trial_index":30,"time_elapsed":56078,"internal_node_id":"0.0-3.0-1.13","subject_id":"5f4925af11cd1a3080f136b0","study_id":"606233c0e42b980319b6a18e","session_id":"608834b85ccc4679581254df"},{"rt":971.6550000011921,"stimulus":"img/watch_alternate.jpg","response":"n","image":"img/watch_alternate.jpg","old_or_new":"new","task":"recognition","trial_type":"image-keyboard-response","trial_index":31,"time_elapsed":57556,"internal_node_id":"0.0-3.0-0.14","subject_id":"5f4925af11cd1a3080f136b0","study_id":"606233c0e42b980319b6a18e","session_id":"608834b85ccc4679581254df","correct":true},{"rt":813.1450000219047,"stimulus":"\n      <p>How sure are you?</p>\n      <p>Rate your confidence in your answer from 1 (pure guess) to 5 (very sure) by pressing the corresponding button.</p>\n     ","response":2,"image":"img/watch_alternate.jpg","task":"confidence","old_or_new":"new","trial_type":"html-button-response","trial_index":32,"time_elapsed":58370,"internal_node_id":"0.0-3.0-1.14","subject_id":"5f4925af11cd1a3080f136b0","study_id":"606233c0e42b980319b6a18e","session_id":"608834b85ccc4679581254df"},{"rt":805.7450000196695,"stimulus":"img/toaster.jpg","response":"n","image":"img/toaster.jpg","old_or_new":"old","task":"recognition","trial_type":"image-keyboard-response","trial_index":33,"time_elapsed":59679,"internal_node_id":"0.0-3.0-0.15","subject_id":"5f4925af11cd1a3080f136b0","study_id":"606233c0e42b980319b6a18e","session_id":"608834b85ccc4679581254df","correct":false},{"rt":815.3799998108298,"stimulus":"\n      <p>How sure are you?</p>\n      <p>Rate your confidence in your answer from 1 (pure guess) to 5 (very sure) by pressing the corresponding button.</p>\n     ","response":2,"image":"img/toaster.jpg","task":"confidence","old_or_new":"old","trial_type":"html-button-response","trial_index":34,"time_elapsed":60496,"internal_node_id":"0.0-3.0-1.15","subject_id":"5f4925af11cd1a3080f136b0","study_id":"606233c0e42b980319b6a18e","session_id":"608834b85ccc4679581254df"},{"rt":758.2300000358373,"stimulus":"img/scissors.jpg","response":"n","image":"img/scissors.jpg","old_or_new":"old","task":"recognition","trial_type":"image-keyboard-response","trial_index":35,"time_elapsed":61764,"internal_node_id":"0.0-3.0-0.16","subject_id":"5f4925af11cd1a3080f136b0","study_id":"606233c0e42b980319b6a18e","session_id":"608834b85ccc4679581254df","correct":false},{"rt":606.944999890402,"stimulus":"\n      <p>How sure are you?</p>\n      <p>Rate your confidence in your answer from 1 (pure guess) to 5 (very sure) by pressing the corresponding button.</p>\n     ","response":2,"image":"img/scissors.jpg","task":"confidence","old_or_new":"old","trial_type":"html-button-response","trial_index":36,"time_elapsed":62372,"internal_node_id":"0.0-3.0-1.16","subject_id":"5f4925af11cd1a3080f136b0","study_id":"606233c0e42b980319b6a18e","session_id":"608834b85ccc4679581254df"},{"rt":1308.3750000223517,"stimulus":"img/toaster_alternate.jpg","response":"y","image":"img/toaster_alternate.jpg","old_or_new":"new","task":"recognition","trial_type":"image-keyboard-response","trial_index":37,"time_elapsed":64189,"internal_node_id":"0.0-3.0-0.17","subject_id":"5f4925af11cd1a3080f136b0","study_id":"606233c0e42b980319b6a18e","session_id":"608834b85ccc4679581254df","correct":false},{"rt":587.9949999507517,"stimulus":"\n      <p>How sure are you?</p>\n      <p>Rate your confidence in your answer from 1 (pure guess) to 5 (very sure) by pressing the corresponding button.</p>\n     ","response":2,"image":"img/toaster_alternate.jpg","task":"confidence","old_or_new":"new","trial_type":"html-button-response","trial_index":38,"time_elapsed":64778,"internal_node_id":"0.0-3.0-1.17","subject_id":"5f4925af11cd1a3080f136b0","study_id":"606233c0e42b980319b6a18e","session_id":"608834b85ccc4679581254df"},{"rt":605.5949998553842,"stimulus":"img/parfait_alternate.jpg","response":"n","image":"img/parfait_alternate.jpg","old_or_new":"new","task":"recognition","trial_type":"image-keyboard-response","trial_index":39,"time_elapsed":65901,"internal_node_id":"0.0-3.0-0.18","subject_id":"5f4925af11cd1a3080f136b0","study_id":"606233c0e42b980319b6a18e","session_id":"608834b85ccc4679581254df","correct":true},{"rt":900.5199999082834,"stimulus":"\n      <p>How sure are you?</p>\n      <p>Rate your confidence in your answer from 1 (pure guess) to 5 (very sure) by pressing the corresponding button.</p>\n     ","response":2,"image":"img/parfait_alternate.jpg","task":"confidence","old_or_new":"new","trial_type":"html-button-response","trial_index":40,"time_elapsed":66802,"internal_node_id":"0.0-3.0-1.18","subject_id":"5f4925af11cd1a3080f136b0","study_id":"606233c0e42b980319b6a18e","session_id":"608834b85ccc4679581254df"},{"rt":828.8199999369681,"stimulus":"img/shoe.jpg","response":"n","image":"img/shoe.jpg","old_or_new":"old","task":"recognition","trial_type":"image-keyboard-response","trial_index":41,"time_elapsed":68141,"internal_node_id":"0.0-3.0-0.19","subject_id":"5f4925af11cd1a3080f136b0","study_id":"606233c0e42b980319b6a18e","session_id":"608834b85ccc4679581254df","correct":false},{"rt":769.5500000845641,"stimulus":"\n      <p>How sure are you?</p>\n      <p>Rate your confidence in your answer from 1 (pure guess) to 5 (very sure) by pressing the corresponding button.</p>\n     ","response":1,"image":"img/shoe.jpg","task":"confidence","old_or_new":"old","trial_type":"html-button-response","trial_index":42,"time_elapsed":68912,"internal_node_id":"0.0-3.0-1.19","subject_id":"5f4925af11cd1a3080f136b0","study_id":"606233c0e42b980319b6a18e","session_id":"608834b85ccc4679581254df"},{"rt":1192.7750001195818,"stimulus":"img/skates_alternate.jpg","response":"n","image":"img/skates_alternate.jpg","old_or_new":"new","task":"recognition","trial_type":"image-keyboard-response","trial_index":43,"time_elapsed":70611,"internal_node_id":"0.0-3.0-0.20","subject_id":"5f4925af11cd1a3080f136b0","study_id":"606233c0e42b980319b6a18e","session_id":"608834b85ccc4679581254df","correct":true},{"rt":651.6350000165403,"stimulus":"\n      <p>How sure are you?</p>\n      <p>Rate your confidence in your answer from 1 (pure guess) to 5 (very sure) by pressing the corresponding button.</p>\n     ","response":1,"image":"img/skates_alternate.jpg","task":"confidence","old_or_new":"new","trial_type":"html-button-response","trial_index":44,"time_elapsed":71264,"internal_node_id":"0.0-3.0-1.20","subject_id":"5f4925af11cd1a3080f136b0","study_id":"606233c0e42b980319b6a18e","session_id":"608834b85ccc4679581254df"},{"rt":1129.1800001636147,"stimulus":"img/trophy_alternate.jpg","response":"y","image":"img/trophy_alternate.jpg","old_or_new":"new","task":"recognition","trial_type":"image-keyboard-response","trial_index":45,"time_elapsed":72899,"internal_node_id":"0.0-3.0-0.21","subject_id":"5f4925af11cd1a3080f136b0","study_id":"606233c0e42b980319b6a18e","session_id":"608834b85ccc4679581254df","correct":false},{"rt":906.2649998813868,"stimulus":"\n      <p>How sure are you?</p>\n      <p>Rate your confidence in your answer from 1 (pure guess) to 5 (very sure) by pressing the corresponding button.</p>\n     ","response":2,"image":"img/trophy_alternate.jpg","task":"confidence","old_or_new":"new","trial_type":"html-button-response","trial_index":46,"time_elapsed":73806,"internal_node_id":"0.0-3.0-1.21","subject_id":"5f4925af11cd1a3080f136b0","study_id":"606233c0e42b980319b6a18e","session_id":"608834b85ccc4679581254df"},{"rt":1241.6550000198185,"stimulus":"img/toothbrush_alternate.jpg","response":"n","image":"img/toothbrush_alternate.jpg","old_or_new":"new","task":"recognition","trial_type":"image-keyboard-response","trial_index":47,"time_elapsed":75563,"internal_node_id":"0.0-3.0-0.22","subject_id":"5f4925af11cd1a3080f136b0","study_id":"606233c0e42b980319b6a18e","session_id":"608834b85ccc4679581254df","correct":true},{"rt":549.9400000553578,"stimulus":"\n      <p>How sure are you?</p>\n      <p>Rate your confidence in your answer from 1 (pure guess) to 5 (very sure) by pressing the corresponding button.</p>\n     ","response":3,"image":"img/toothbrush_alternate.jpg","task":"confidence","old_or_new":"new","trial_type":"html-button-response","trial_index":48,"time_elapsed":76114,"internal_node_id":"0.0-3.0-1.22","subject_id":"5f4925af11cd1a3080f136b0","study_id":"606233c0e42b980319b6a18e","session_id":"608834b85ccc4679581254df"},{"rt":932.3950000107288,"stimulus":"img/knife_alternate.jpg","response":"n","image":"img/knife_alternate.jpg","old_or_new":"new","task":"recognition","trial_type":"image-keyboard-response","trial_index":49,"time_elapsed":77551,"internal_node_id":"0.0-3.0-0.23","subject_id":"5f4925af11cd1a3080f136b0","study_id":"606233c0e42b980319b6a18e","session_id":"608834b85ccc4679581254df","correct":true},{"rt":507.4199999216944,"stimulus":"\n      <p>How sure are you?</p>\n      <p>Rate your confidence in your answer from 1 (pure guess) to 5 (very sure) by pressing the corresponding button.</p>\n     ","response":3,"image":"img/knife_alternate.jpg","task":"confidence","old_or_new":"new","trial_type":"html-button-response","trial_index":50,"time_elapsed":78060,"internal_node_id":"0.0-3.0-1.23","subject_id":"5f4925af11cd1a3080f136b0","study_id":"606233c0e42b980319b6a18e","session_id":"608834b85ccc4679581254df"},{"rt":1298.4199998900294,"stimulus":"img/sink_alternate.jpg","response":"n","image":"img/sink_alternate.jpg","old_or_new":"new","task":"recognition","trial_type":"image-keyboard-response","trial_index":51,"time_elapsed":79865,"internal_node_id":"0.0-3.0-0.24","subject_id":"5f4925af11cd1a3080f136b0","study_id":"606233c0e42b980319b6a18e","session_id":"608834b85ccc4679581254df","correct":true},{"rt":561.2550000660121,"stimulus":"\n      <p>How sure are you?</p>\n      <p>Rate your confidence in your answer from 1 (pure guess) to 5 (very sure) by pressing the corresponding button.</p>\n     ","response":4,"image":"img/sink_alternate.jpg","task":"confidence","old_or_new":"new","trial_type":"html-button-response","trial_index":52,"time_elapsed":80428,"internal_node_id":"0.0-3.0-1.24","subject_id":"5f4925af11cd1a3080f136b0","study_id":"606233c0e42b980319b6a18e","session_id":"608834b85ccc4679581254df"},{"rt":579.6600000467151,"stimulus":"img/skates.jpg","response":"n","image":"img/skates.jpg","old_or_new":"old","task":"recognition","trial_type":"image-keyboard-response","trial_index":53,"time_elapsed":81512,"internal_node_id":"0.0-3.0-0.25","subject_id":"5f4925af11cd1a3080f136b0","study_id":"606233c0e42b980319b6a18e","session_id":"608834b85ccc4679581254df","correct":false},{"rt":1483.849999960512,"stimulus":"\n      <p>How sure are you?</p>\n      <p>Rate your confidence in your answer from 1 (pure guess) to 5 (very sure) by pressing the corresponding button.</p>\n     ","response":0,"image":"img/skates.jpg","task":"confidence","old_or_new":"old","trial_type":"html-button-response","trial_index":54,"time_elapsed":82998,"internal_node_id":"0.0-3.0-1.25","subject_id":"5f4925af11cd1a3080f136b0","study_id":"606233c0e42b980319b6a18e","session_id":"608834b85ccc4679581254df"},{"rt":638.6700000148267,"stimulus":"img/wheel_barrow.jpg","response":"y","image":"img/wheel_barrow.jpg","old_or_new":"old","task":"recognition","trial_type":"image-keyboard-response","trial_index":55,"time_elapsed":84140,"internal_node_id":"0.0-3.0-0.26","subject_id":"5f4925af11cd1a3080f136b0","study_id":"606233c0e42b980319b6a18e","session_id":"608834b85ccc4679581254df","correct":true},{"rt":810.4099999181926,"stimulus":"\n      <p>How sure are you?</p>\n      <p>Rate your confidence in your answer from 1 (pure guess) to 5 (very sure) by pressing the corresponding button.</p>\n     ","response":4,"image":"img/wheel_barrow.jpg","task":"confidence","old_or_new":"old","trial_type":"html-button-response","trial_index":56,"time_elapsed":84952,"internal_node_id":"0.0-3.0-1.26","subject_id":"5f4925af11cd1a3080f136b0","study_id":"606233c0e42b980319b6a18e","session_id":"608834b85ccc4679581254df"},{"rt":950.3900001291186,"stimulus":"img/plane.jpg","response":"n","image":"img/plane.jpg","old_or_new":"old","task":"recognition","trial_type":"image-keyboard-response","trial_index":57,"time_elapsed":86406,"internal_node_id":"0.0-3.0-0.27","subject_id":"5f4925af11cd1a3080f136b0","study_id":"606233c0e42b980319b6a18e","session_id":"608834b85ccc4679581254df","correct":false},{"rt":642.5650001037866,"stimulus":"\n      <p>How sure are you?</p>\n      <p>Rate your confidence in your answer from 1 (pure guess) to 5 (very sure) by pressing the corresponding button.</p>\n     ","response":2,"image":"img/plane.jpg","task":"confidence","old_or_new":"old","trial_type":"html-button-response","trial_index":58,"time_elapsed":87050,"internal_node_id":"0.0-3.0-1.27","subject_id":"5f4925af11cd1a3080f136b0","study_id":"606233c0e42b980319b6a18e","session_id":"608834b85ccc4679581254df"},{"rt":757.6500000432134,"stimulus":"img/parfait.jpg","response":"n","image":"img/parfait.jpg","old_or_new":"old","task":"recognition","trial_type":"image-keyboard-response","trial_index":59,"time_elapsed":88320,"internal_node_id":"0.0-3.0-0.28","subject_id":"5f4925af11cd1a3080f136b0","study_id":"606233c0e42b980319b6a18e","session_id":"608834b85ccc4679581254df","correct":false},{"rt":502.99499998800457,"stimulus":"\n      <p>How sure are you?</p>\n      <p>Rate your confidence in your answer from 1 (pure guess) to 5 (very sure) by pressing the corresponding button.</p>\n     ","response":3,"image":"img/parfait.jpg","task":"confidence","old_or_new":"old","trial_type":"html-button-response","trial_index":60,"time_elapsed":88824,"internal_node_id":"0.0-3.0-1.28","subject_id":"5f4925af11cd1a3080f136b0","study_id":"606233c0e42b980319b6a18e","session_id":"608834b85ccc4679581254df"},{"rt":805.9600000269711,"stimulus":"img/plate.jpg","response":"y","image":"img/plate.jpg","old_or_new":"old","task":"recognition","trial_type":"image-keyboard-response","trial_index":61,"time_elapsed":90133,"internal_node_id":"0.0-3.0-0.29","subject_id":"5f4925af11cd1a3080f136b0","study_id":"606233c0e42b980319b6a18e","session_id":"608834b85ccc4679581254df","correct":true},{"rt":675.3749998752028,"stimulus":"\n      <p>How sure are you?</p>\n      <p>Rate your confidence in your answer from 1 (pure guess) to 5 (very sure) by pressing the corresponding button.</p>\n     ","response":3,"image":"img/plate.jpg","task":"confidence","old_or_new":"old","trial_type":"html-button-response","trial_index":62,"time_elapsed":90810,"internal_node_id":"0.0-3.0-1.29","subject_id":"5f4925af11cd1a3080f136b0","study_id":"606233c0e42b980319b6a18e","session_id":"608834b85ccc4679581254df"},{"rt":572.5099998526275,"stimulus":"img/spoon.jpg","response":"y","image":"img/spoon.jpg","old_or_new":"old","task":"recognition","trial_type":"image-keyboard-response","trial_index":63,"time_elapsed":91887,"internal_node_id":"0.0-3.0-0.30","subject_id":"5f4925af11cd1a3080f136b0","study_id":"606233c0e42b980319b6a18e","session_id":"608834b85ccc4679581254df","correct":true},{"rt":867.3399998806417,"stimulus":"\n      <p>How sure are you?</p>\n      <p>Rate your confidence in your answer from 1 (pure guess) to 5 (very sure) by pressing the corresponding button.</p>\n     ","response":4,"image":"img/spoon.jpg","task":"confidence","old_or_new":"old","trial_type":"html-button-response","trial_index":64,"time_elapsed":92756,"internal_node_id":"0.0-3.0-1.30","subject_id":"5f4925af11cd1a3080f136b0","study_id":"606233c0e42b980319b6a18e","session_id":"608834b85ccc4679581254df"},{"rt":590.8050001598895,"stimulus":"img/rolling_pin.jpg","response":"y","image":"img/rolling_pin.jpg","old_or_new":"old","task":"recognition","trial_type":"image-keyboard-response","trial_index":65,"time_elapsed":93855,"internal_node_id":"0.0-3.0-0.31","subject_id":"5f4925af11cd1a3080f136b0","study_id":"606233c0e42b980319b6a18e","session_id":"608834b85ccc4679581254df","correct":true},{"rt":495.8200000692159,"stimulus":"\n      <p>How sure are you?</p>\n      <p>Rate your confidence in your answer from 1 (pure guess) to 5 (very sure) by pressing the corresponding button.</p>\n     ","response":4,"image":"img/rolling_pin.jpg","task":"confidence","old_or_new":"old","trial_type":"html-button-response","trial_index":66,"time_elapsed":94352,"internal_node_id":"0.0-3.0-1.31","subject_id":"5f4925af11cd1a3080f136b0","study_id":"606233c0e42b980319b6a18e","session_id":"608834b85ccc4679581254df"},{"rt":451.8250001128763,"stimulus":"img/shovel_alternate.jpg","response":"y","image":"img/shovel_alternate.jpg","old_or_new":"new","task":"recognition","trial_type":"image-keyboard-response","trial_index":67,"time_elapsed":95309,"internal_node_id":"0.0-3.0-0.32","subject_id":"5f4925af11cd1a3080f136b0","study_id":"606233c0e42b980319b6a18e","session_id":"608834b85ccc4679581254df","correct":false},{"rt":499.2499998770654,"stimulus":"\n      <p>How sure are you?</p>\n      <p>Rate your confidence in your answer from 1 (pure guess) to 5 (very sure) by pressing the corresponding button.</p>\n     ","response":4,"image":"img/shovel_alternate.jpg","task":"confidence","old_or_new":"new","trial_type":"html-button-response","trial_index":68,"time_elapsed":95810,"internal_node_id":"0.0-3.0-1.32","subject_id":"5f4925af11cd1a3080f136b0","study_id":"606233c0e42b980319b6a18e","session_id":"608834b85ccc4679581254df"},{"rt":534.5850000157952,"stimulus":"img/trophy.jpg","response":"y","image":"img/trophy.jpg","old_or_new":"old","task":"recognition","trial_type":"image-keyboard-response","trial_index":69,"time_elapsed":96858,"internal_node_id":"0.0-3.0-0.33","subject_id":"5f4925af11cd1a3080f136b0","study_id":"606233c0e42b980319b6a18e","session_id":"608834b85ccc4679581254df","correct":true},{"rt":405.08000017143786,"stimulus":"\n      <p>How sure are you?</p>\n      <p>Rate your confidence in your answer from 1 (pure guess) to 5 (very sure) by pressing the corresponding button.</p>\n     ","response":4,"image":"img/trophy.jpg","task":"confidence","old_or_new":"old","trial_type":"html-button-response","trial_index":70,"time_elapsed":97264,"internal_node_id":"0.0-3.0-1.33","subject_id":"5f4925af11cd1a3080f136b0","study_id":"606233c0e42b980319b6a18e","session_id":"608834b85ccc4679581254df"},{"rt":432.2099999990314,"stimulus":"img/pizza_alternate.jpg","response":"y","image":"img/pizza_alternate.jpg","old_or_new":"new","task":"recognition","trial_type":"image-keyboard-response","trial_index":71,"time_elapsed":98203,"internal_node_id":"0.0-3.0-0.34","subject_id":"5f4925af11cd1a3080f136b0","study_id":"606233c0e42b980319b6a18e","session_id":"608834b85ccc4679581254df","correct":false},{"rt":479.2249999009073,"stimulus":"\n      <p>How sure are you?</p>\n      <p>Rate your confidence in your answer from 1 (pure guess) to 5 (very sure) by pressing the corresponding button.</p>\n     ","response":4,"image":"img/pizza_alternate.jpg","task":"confidence","old_or_new":"new","trial_type":"html-button-response","trial_index":72,"time_elapsed":98684,"internal_node_id":"0.0-3.0-1.34","subject_id":"5f4925af11cd1a3080f136b0","study_id":"606233c0e42b980319b6a18e","session_id":"608834b85ccc4679581254df"},{"rt":636.0199998598546,"stimulus":"img/wheel_barrow_alternate.jpg","response":"y","image":"img/wheel_barrow_alternate.jpg","old_or_new":"new","task":"recognition","trial_type":"image-keyboard-response","trial_index":73,"time_elapsed":99826,"internal_node_id":"0.0-3.0-0.35","subject_id":"5f4925af11cd1a3080f136b0","study_id":"606233c0e42b980319b6a18e","session_id":"608834b85ccc4679581254df","correct":false},{"rt":1512.9949999973178,"stimulus":"\n      <p>How sure are you?</p>\n      <p>Rate your confidence in your answer from 1 (pure guess) to 5 (very sure) by pressing the corresponding button.</p>\n     ","response":0,"image":"img/wheel_barrow_alternate.jpg","task":"confidence","old_or_new":"new","trial_type":"html-button-response","trial_index":74,"time_elapsed":101340,"internal_node_id":"0.0-3.0-1.35","subject_id":"5f4925af11cd1a3080f136b0","study_id":"606233c0e42b980319b6a18e","session_id":"608834b85ccc4679581254df"},{"rt":1301.6749999951571,"stimulus":"img/toothbrush.jpg","response":"y","image":"img/toothbrush.jpg","old_or_new":"old","task":"recognition","trial_type":"image-keyboard-response","trial_index":75,"time_elapsed":103149,"internal_node_id":"0.0-3.0-0.36","subject_id":"5f4925af11cd1a3080f136b0","study_id":"606233c0e42b980319b6a18e","session_id":"608834b85ccc4679581254df","correct":true},{"rt":1883.3000001031905,"stimulus":"\n      <p>How sure are you?</p>\n      <p>Rate your confidence in your answer from 1 (pure guess) to 5 (very sure) by pressing the corresponding button.</p>\n     ","response":0,"image":"img/toothbrush.jpg","task":"confidence","old_or_new":"old","trial_type":"html-button-response","trial_index":76,"time_elapsed":105034,"internal_node_id":"0.0-3.0-1.36","subject_id":"5f4925af11cd1a3080f136b0","study_id":"606233c0e42b980319b6a18e","session_id":"608834b85ccc4679581254df"},{"rt":907.9299999866635,"stimulus":"img/scissors_alternate.jpg","response":"n","image":"img/scissors_alternate.jpg","old_or_new":"new","task":"recognition","trial_type":"image-keyboard-response","trial_index":77,"time_elapsed":106453,"internal_node_id":"0.0-3.0-0.37","subject_id":"5f4925af11cd1a3080f136b0","study_id":"606233c0e42b980319b6a18e","session_id":"608834b85ccc4679581254df","correct":true},{"rt":662.0849999599159,"stimulus":"\n      <p>How sure are you?</p>\n      <p>Rate your confidence in your answer from 1 (pure guess) to 5 (very sure) by pressing the corresponding button.</p>\n     ","response":2,"image":"img/scissors_alternate.jpg","task":"confidence","old_or_new":"new","trial_type":"html-button-response","trial_index":78,"time_elapsed":107116,"internal_node_id":"0.0-3.0-1.37","subject_id":"5f4925af11cd1a3080f136b0","study_id":"606233c0e42b980319b6a18e","session_id":"608834b85ccc4679581254df"},{"rt":988.9049998018891,"stimulus":"img/pencil_sharpener.jpg","response":"y","image":"img/pencil_sharpener.jpg","old_or_new":"old","task":"recognition","trial_type":"image-keyboard-response","trial_index":79,"time_elapsed":108616,"internal_node_id":"0.0-3.0-0.38","subject_id":"5f4925af11cd1a3080f136b0","study_id":"606233c0e42b980319b6a18e","session_id":"608834b85ccc4679581254df","correct":true},{"rt":838.0850001703948,"stimulus":"\n      <p>How sure are you?</p>\n      <p>Rate your confidence in your answer from 1 (pure guess) to 5 (very sure) by pressing the corresponding button.</p>\n     ","response":3,"image":"img/pencil_sharpener.jpg","task":"confidence","old_or_new":"old","trial_type":"html-button-response","trial_index":80,"time_elapsed":109456,"internal_node_id":"0.0-3.0-1.38","subject_id":"5f4925af11cd1a3080f136b0","study_id":"606233c0e42b980319b6a18e","session_id":"608834b85ccc4679581254df"},{"rt":956.2399999704212,"stimulus":"img/umbrella_alternate.jpg","response":"n","image":"img/umbrella_alternate.jpg","old_or_new":"new","task":"recognition","trial_type":"image-keyboard-response","trial_index":81,"time_elapsed":110927,"internal_node_id":"0.0-3.0-0.39","subject_id":"5f4925af11cd1a3080f136b0","study_id":"606233c0e42b980319b6a18e","session_id":"608834b85ccc4679581254df","correct":true},{"rt":526.3999998569489,"stimulus":"\n      <p>How sure are you?</p>\n      <p>Rate your confidence in your answer from 1 (pure guess) to 5 (very sure) by pressing the corresponding button.</p>\n     ","response":3,"image":"img/umbrella_alternate.jpg","task":"confidence","old_or_new":"new","trial_type":"html-button-response","trial_index":82,"time_elapsed":111454,"internal_node_id":"0.0-3.0-1.39","subject_id":"5f4925af11cd1a3080f136b0","study_id":"606233c0e42b980319b6a18e","session_id":"608834b85ccc4679581254df"},{"rt":1143.6649998649955,"stimulus":"img/shovel.jpg","response":"y","image":"img/shovel.jpg","old_or_new":"old","task":"recognition","trial_type":"image-keyboard-response","trial_index":83,"time_elapsed":113114,"internal_node_id":"0.0-3.0-0.40","subject_id":"5f4925af11cd1a3080f136b0","study_id":"606233c0e42b980319b6a18e","session_id":"608834b85ccc4679581254df","correct":true},{"rt":563.9499998651445,"stimulus":"\n      <p>How sure are you?</p>\n      <p>Rate your confidence in your answer from 1 (pure guess) to 5 (very sure) by pressing the corresponding button.</p>\n     ","response":3,"image":"img/shovel.jpg","task":"confidence","old_or_new":"old","trial_type":"html-button-response","trial_index":84,"time_elapsed":113680,"internal_node_id":"0.0-3.0-1.40","subject_id":"5f4925af11cd1a3080f136b0","study_id":"606233c0e42b980319b6a18e","session_id":"608834b85ccc4679581254df"},{"rt":705.3499999456108,"stimulus":"img/watch.jpg","response":"n","image":"img/watch.jpg","old_or_new":"old","task":"recognition","trial_type":"image-keyboard-response","trial_index":85,"time_elapsed":114889,"internal_node_id":"0.0-3.0-0.41","subject_id":"5f4925af11cd1a3080f136b0","study_id":"606233c0e42b980319b6a18e","session_id":"608834b85ccc4679581254df","correct":false},{"rt":525.6549997720867,"stimulus":"\n      <p>How sure are you?</p>\n      <p>Rate your confidence in your answer from 1 (pure guess) to 5 (very sure) by pressing the corresponding button.</p>\n     ","response":3,"image":"img/watch.jpg","task":"confidence","old_or_new":"old","trial_type":"html-button-response","trial_index":86,"time_elapsed":115416,"internal_node_id":"0.0-3.0-1.41","subject_id":"5f4925af11cd1a3080f136b0","study_id":"606233c0e42b980319b6a18e","session_id":"608834b85ccc4679581254df"},{"rt":1162.5050001312047,"stimulus":"img/plate_alternate.jpg","response":"n","image":"img/plate_alternate.jpg","old_or_new":"new","task":"recognition","trial_type":"image-keyboard-response","trial_index":87,"time_elapsed":117096,"internal_node_id":"0.0-3.0-0.42","subject_id":"5f4925af11cd1a3080f136b0","study_id":"606233c0e42b980319b6a18e","session_id":"608834b85ccc4679581254df","correct":true},{"rt":686.710000038147,"stimulus":"\n      <p>How sure are you?</p>\n      <p>Rate your confidence in your answer from 1 (pure guess) to 5 (very sure) by pressing the corresponding button.</p>\n     ","response":2,"image":"img/plate_alternate.jpg","task":"confidence","old_or_new":"new","trial_type":"html-button-response","trial_index":88,"time_elapsed":117783,"internal_node_id":"0.0-3.0-1.42","subject_id":"5f4925af11cd1a3080f136b0","study_id":"606233c0e42b980319b6a18e","session_id":"608834b85ccc4679581254df"},{"rt":1059.6050000749528,"stimulus":"img/umbrella.jpg","response":"n","image":"img/umbrella.jpg","old_or_new":"old","task":"recognition","trial_type":"image-keyboard-response","trial_index":89,"time_elapsed":119349,"internal_node_id":"0.0-3.0-0.43","subject_id":"5f4925af11cd1a3080f136b0","study_id":"606233c0e42b980319b6a18e","session_id":"608834b85ccc4679581254df","correct":false},{"rt":605.0299999769777,"stimulus":"\n      <p>How sure are you?</p>\n      <p>Rate your confidence in your answer from 1 (pure guess) to 5 (very sure) by pressing the corresponding button.</p>\n     ","response":2,"image":"img/umbrella.jpg","task":"confidence","old_or_new":"old","trial_type":"html-button-response","trial_index":90,"time_elapsed":119955,"internal_node_id":"0.0-3.0-1.43","subject_id":"5f4925af11cd1a3080f136b0","study_id":"606233c0e42b980319b6a18e","session_id":"608834b85ccc4679581254df"},{"rt":1060.4499999899417,"stimulus":"img/shirt.jpg","response":"y","image":"img/shirt.jpg","old_or_new":"old","task":"recognition","trial_type":"image-keyboard-response","trial_index":91,"time_elapsed":121525,"internal_node_id":"0.0-3.0-0.44","subject_id":"5f4925af11cd1a3080f136b0","study_id":"606233c0e42b980319b6a18e","session_id":"608834b85ccc4679581254df","correct":true},{"rt":706.9049999117851,"stimulus":"\n      <p>How sure are you?</p>\n      <p>Rate your confidence in your answer from 1 (pure guess) to 5 (very sure) by pressing the corresponding button.</p>\n     ","response":4,"image":"img/shirt.jpg","task":"confidence","old_or_new":"old","trial_type":"html-button-response","trial_index":92,"time_elapsed":122233,"internal_node_id":"0.0-3.0-1.44","subject_id":"5f4925af11cd1a3080f136b0","study_id":"606233c0e42b980319b6a18e","session_id":"608834b85ccc4679581254df"},{"rt":628.5650001373142,"stimulus":"img/pencil_sharpener_alternate.jpg","response":"n","image":"img/pencil_sharpener_alternate.jpg","old_or_new":"new","task":"recognition","trial_type":"image-keyboard-response","trial_index":93,"time_elapsed":123365,"internal_node_id":"0.0-3.0-0.45","subject_id":"5f4925af11cd1a3080f136b0","study_id":"606233c0e42b980319b6a18e","session_id":"608834b85ccc4679581254df","correct":true},{"rt":821.9649998936802,"stimulus":"\n      <p>How sure are you?</p>\n      <p>Rate your confidence in your answer from 1 (pure guess) to 5 (very sure) by pressing the corresponding button.</p>\n     ","response":3,"image":"img/pencil_sharpener_alternate.jpg","task":"confidence","old_or_new":"new","trial_type":"html-button-response","trial_index":94,"time_elapsed":124187,"internal_node_id":"0.0-3.0-1.45","subject_id":"5f4925af11cd1a3080f136b0","study_id":"606233c0e42b980319b6a18e","session_id":"608834b85ccc4679581254df"},{"rt":840.1000001467764,"stimulus":"img/rolling_pin_alternate.jpg","response":"n","image":"img/rolling_pin_alternate.jpg","old_or_new":"new","task":"recognition","trial_type":"image-keyboard-response","trial_index":95,"time_elapsed":125538,"internal_node_id":"0.0-3.0-0.46","subject_id":"5f4925af11cd1a3080f136b0","study_id":"606233c0e42b980319b6a18e","session_id":"608834b85ccc4679581254df","correct":true},{"rt":784.9850000347942,"stimulus":"\n      <p>How sure are you?</p>\n      <p>Rate your confidence in your answer from 1 (pure guess) to 5 (very sure) by pressing the corresponding button.</p>\n     ","response":3,"image":"img/rolling_pin_alternate.jpg","task":"confidence","old_or_new":"new","trial_type":"html-button-response","trial_index":96,"time_elapsed":126324,"internal_node_id":"0.0-3.0-1.46","subject_id":"5f4925af11cd1a3080f136b0","study_id":"606233c0e42b980319b6a18e","session_id":"608834b85ccc4679581254df"},{"rt":1337.8099999390543,"stimulus":"img/yarn_alternate.jpg","response":"n","image":"img/yarn_alternate.jpg","old_or_new":"new","task":"recognition","trial_type":"image-keyboard-response","trial_index":97,"time_elapsed":128163,"internal_node_id":"0.0-3.0-0.47","subject_id":"5f4925af11cd1a3080f136b0","study_id":"606233c0e42b980319b6a18e","session_id":"608834b85ccc4679581254df","correct":true},{"rt":469.55000003799796,"stimulus":"\n      <p>How sure are you?</p>\n      <p>Rate your confidence in your answer from 1 (pure guess) to 5 (very sure) by pressing the corresponding button.</p>\n     ","response":3,"image":"img/yarn_alternate.jpg","task":"confidence","old_or_new":"new","trial_type":"html-button-response","trial_index":98,"time_elapsed":128634,"internal_node_id":"0.0-3.0-1.47","subject_id":"5f4925af11cd1a3080f136b0","study_id":"606233c0e42b980319b6a18e","session_id":"608834b85ccc4679581254df"}]