[{"success":true,"timeout":false,"failed_images":[],"failed_audio":[],"failed_video":[],"trial_type":"preload","trial_index":0,"time_elapsed":9274,"internal_node_id":"0.0-0.0","subject_id":"603e1f4d5275b9ddf4c4763d","study_id":"607de2837874a824e2e8c6ec","session_id":"60891a72d629960ed1056eea"},{"rt":27877.65500001842,"stimulus":"\n      <div style=\"width:800px; text-align: left;\">\n        <p>Welcome to day 2 of the experiment! Thanks for coming back.</p>\n        <p>You will be presented with a series of images. Images will appear one at a time.</p>\n        <p>Each image will remain on the screen until you press either <span style=\"font-weight: bold;\">\"y\" to indicate you have seen the \n        exact same photo the day before or \"n\" to indicate you have not seen the exact same photo the day before.</span></p>\n        <p>After you answer yes (\"y\") or no (\"n\"), you will then be prompted to rate your certainty on a scale of\n        1 (pure guess) to 5 (very sure).</p>\n      </div>\n    ","response":0,"trial_type":"html-button-response","trial_index":1,"time_elapsed":37157,"internal_node_id":"0.0-1.0","subject_id":"603e1f4d5275b9ddf4c4763d","study_id":"607de2837874a824e2e8c6ec","session_id":"60891a72d629960ed1056eea"},{"success":true,"trial_type":"fullscreen","trial_index":2,"time_elapsed":52052,"internal_node_id":"0.0-2.0","subject_id":"603e1f4d5275b9ddf4c4763d","study_id":"607de2837874a824e2e8c6ec","session_id":"60891a72d629960ed1056eea"},{"rt":1828.1899999710731,"stimulus":"img/hair_tie.jpg","response":"y","image":"img/hair_tie.jpg","old_or_new":"old","task":"recognition","trial_type":"image-keyboard-response","trial_index":3,"time_elapsed":53929,"internal_node_id":"0.0-3.0-0.0","subject_id":"603e1f4d5275b9ddf4c4763d","study_id":"607de2837874a824e2e8c6ec","session_id":"60891a72d629960ed1056eea","correct":true},{"rt":2401.320000004489,"stimulus":"\n      <p>How sure are you?</p>\n      <p>Rate your confidence in your answer from 1 (pure guess) to 5 (very sure) by pressing the corresponding button.</p>\n     ","response":4,"image":"img/hair_tie.jpg","task":"confidence","old_or_new":"old","trial_type":"html-button-response","trial_index":4,"time_elapsed":56335,"internal_node_id":"0.0-3.0-1.0","subject_id":"603e1f4d5275b9ddf4c4763d","study_id":"607de2837874a824e2e8c6ec","session_id":"60891a72d629960ed1056eea"},{"rt":1658.9750000275671,"stimulus":"img/coin_alternate.jpg","response":"n","image":"img/coin_alternate.jpg","old_or_new":"new","task":"recognition","trial_type":"image-keyboard-response","trial_index":5,"time_elapsed":58503,"internal_node_id":"0.0-3.0-0.1","subject_id":"603e1f4d5275b9ddf4c4763d","study_id":"607de2837874a824e2e8c6ec","session_id":"60891a72d629960ed1056eea","correct":true},{"rt":1084.664999973029,"stimulus":"\n      <p>How sure are you?</p>\n      <p>Rate your confidence in your answer from 1 (pure guess) to 5 (very sure) by pressing the corresponding button.</p>\n     ","response":4,"image":"img/coin_alternate.jpg","task":"confidence","old_or_new":"new","trial_type":"html-button-response","trial_index":6,"time_elapsed":59592,"internal_node_id":"0.0-3.0-1.1","subject_id":"603e1f4d5275b9ddf4c4763d","study_id":"607de2837874a824e2e8c6ec","session_id":"60891a72d629960ed1056eea"},{"rt":2873.0949999880977,"stimulus":"img/glasses.jpg","response":"y","image":"img/glasses.jpg","old_or_new":"old","task":"recognition","trial_type":"image-keyboard-response","trial_index":7,"time_elapsed":62977,"internal_node_id":"0.0-3.0-0.2","subject_id":"603e1f4d5275b9ddf4c4763d","study_id":"607de2837874a824e2e8c6ec","session_id":"60891a72d629960ed1056eea","correct":true},{"rt":1041.9650000403635,"stimulus":"\n      <p>How sure are you?</p>\n      <p>Rate your confidence in your answer from 1 (pure guess) to 5 (very sure) by pressing the corresponding button.</p>\n     ","response":4,"image":"img/glasses.jpg","task":"confidence","old_or_new":"old","trial_type":"html-button-response","trial_index":8,"time_elapsed":64022,"internal_node_id":"0.0-3.0-1.2","subject_id":"603e1f4d5275b9ddf4c4763d","study_id":"607de2837874a824e2e8c6ec","session_id":"60891a72d629960ed1056eea"},{"rt":2117.255000048317,"stimulus":"img/dryer_alternate.jpg","response":"n","image":"img/dryer_alternate.jpg","old_or_new":"new","task":"recognition","trial_type":"image-keyboard-response","trial_index":9,"time_elapsed":66654,"internal_node_id":"0.0-3.0-0.3","subject_id":"603e1f4d5275b9ddf4c4763d","study_id":"607de2837874a824e2e8c6ec","session_id":"60891a72d629960ed1056eea","correct":true},{"rt":2753.3999999868684,"stimulus":"\n      <p>How sure are you?</p>\n      <p>Rate your confidence in your answer from 1 (pure guess) to 5 (very sure) by pressing the corresponding button.</p>\n     ","response":4,"image":"img/dryer_alternate.jpg","task":"confidence","old_or_new":"new","trial_type":"html-button-response","trial_index":10,"time_elapsed":69411,"internal_node_id":"0.0-3.0-1.3","subject_id":"603e1f4d5275b9ddf4c4763d","study_id":"607de2837874a824e2e8c6ec","session_id":"60891a72d629960ed1056eea"},{"rt":1330.6650000158697,"stimulus":"img/dryer.jpg","response":"y","image":"img/dryer.jpg","old_or_new":"old","task":"recognition","trial_type":"image-keyboard-response","trial_index":11,"time_elapsed":71252,"internal_node_id":"0.0-3.0-0.4","subject_id":"603e1f4d5275b9ddf4c4763d","study_id":"607de2837874a824e2e8c6ec","session_id":"60891a72d629960ed1056eea","correct":true},{"rt":1034.6499999868684,"stimulus":"\n      <p>How sure are you?</p>\n      <p>Rate your confidence in your answer from 1 (pure guess) to 5 (very sure) by pressing the corresponding button.</p>\n     ","response":4,"image":"img/dryer.jpg","task":"confidence","old_or_new":"old","trial_type":"html-button-response","trial_index":12,"time_elapsed":72290,"internal_node_id":"0.0-3.0-1.4","subject_id":"603e1f4d5275b9ddf4c4763d","study_id":"607de2837874a824e2e8c6ec","session_id":"60891a72d629960ed1056eea"},{"rt":1170.5150000052527,"stimulus":"img/ladder.jpg","response":"y","image":"img/ladder.jpg","old_or_new":"old","task":"recognition","trial_type":"image-keyboard-response","trial_index":13,"time_elapsed":73976,"internal_node_id":"0.0-3.0-0.5","subject_id":"603e1f4d5275b9ddf4c4763d","study_id":"607de2837874a824e2e8c6ec","session_id":"60891a72d629960ed1056eea","correct":true},{"rt":2455.874999985099,"stimulus":"\n      <p>How sure are you?</p>\n      <p>Rate your confidence in your answer from 1 (pure guess) to 5 (very sure) by pressing the corresponding button.</p>\n     ","response":4,"image":"img/ladder.jpg","task":"confidence","old_or_new":"old","trial_type":"html-button-response","trial_index":14,"time_elapsed":76435,"internal_node_id":"0.0-3.0-1.5","subject_id":"603e1f4d5275b9ddf4c4763d","study_id":"607de2837874a824e2e8c6ec","session_id":"60891a72d629960ed1056eea"},{"rt":1567.2250000061467,"stimulus":"img/ladder_alternate.jpg","response":"n","image":"img/ladder_alternate.jpg","old_or_new":"new","task":"recognition","trial_type":"image-keyboard-response","trial_index":15,"time_elapsed":78514,"internal_node_id":"0.0-3.0-0.6","subject_id":"603e1f4d5275b9ddf4c4763d","study_id":"607de2837874a824e2e8c6ec","session_id":"60891a72d629960ed1056eea","correct":true},{"rt":1856.7950000287965,"stimulus":"\n      <p>How sure are you?</p>\n      <p>Rate your confidence in your answer from 1 (pure guess) to 5 (very sure) by pressing the corresponding button.</p>\n     ","response":4,"image":"img/ladder_alternate.jpg","task":"confidence","old_or_new":"new","trial_type":"html-button-response","trial_index":16,"time_elapsed":80373,"internal_node_id":"0.0-3.0-1.6","subject_id":"603e1f4d5275b9ddf4c4763d","study_id":"607de2837874a824e2e8c6ec","session_id":"60891a72d629960ed1056eea"},{"rt":1700.2799999900162,"stimulus":"img/hairbrush_alternate.jpg","response":"n","image":"img/hairbrush_alternate.jpg","old_or_new":"new","task":"recognition","trial_type":"image-keyboard-response","trial_index":17,"time_elapsed":82585,"internal_node_id":"0.0-3.0-0.7","subject_id":"603e1f4d5275b9ddf4c4763d","study_id":"607de2837874a824e2e8c6ec","session_id":"60891a72d629960ed1056eea","correct":true},{"rt":1034.3149999971502,"stimulus":"\n      <p>How sure are you?</p>\n      <p>Rate your confidence in your answer from 1 (pure guess) to 5 (very sure) by pressing the corresponding button.</p>\n     ","response":4,"image":"img/hairbrush_alternate.jpg","task":"confidence","old_or_new":"new","trial_type":"html-button-response","trial_index":18,"time_elapsed":83622,"internal_node_id":"0.0-3.0-1.7","subject_id":"603e1f4d5275b9ddf4c4763d","study_id":"607de2837874a824e2e8c6ec","session_id":"60891a72d629960ed1056eea"},{"rt":1179.4799999915995,"stimulus":"img/backpack_alternate.jpg","response":"n","image":"img/backpack_alternate.jpg","old_or_new":"new","task":"recognition","trial_type":"image-keyboard-response","trial_index":19,"time_elapsed":85318,"internal_node_id":"0.0-3.0-0.8","subject_id":"603e1f4d5275b9ddf4c4763d","study_id":"607de2837874a824e2e8c6ec","session_id":"60891a72d629960ed1056eea","correct":true},{"rt":2400.6150000495836,"stimulus":"\n      <p>How sure are you?</p>\n      <p>Rate your confidence in your answer from 1 (pure guess) to 5 (very sure) by pressing the corresponding button.</p>\n     ","response":4,"image":"img/backpack_alternate.jpg","task":"confidence","old_or_new":"new","trial_type":"html-button-response","trial_index":20,"time_elapsed":87721,"internal_node_id":"0.0-3.0-1.8","subject_id":"603e1f4d5275b9ddf4c4763d","study_id":"607de2837874a824e2e8c6ec","session_id":"60891a72d629960ed1056eea"},{"rt":1276.4050000114366,"stimulus":"img/bowl_alternate.jpg","response":"n","image":"img/bowl_alternate.jpg","old_or_new":"new","task":"recognition","trial_type":"image-keyboard-response","trial_index":21,"time_elapsed":89509,"internal_node_id":"0.0-3.0-0.9","subject_id":"603e1f4d5275b9ddf4c4763d","study_id":"607de2837874a824e2e8c6ec","session_id":"60891a72d629960ed1056eea","correct":true},{"rt":2026.499999978114,"stimulus":"\n      <p>How sure are you?</p>\n      <p>Rate your confidence in your answer from 1 (pure guess) to 5 (very sure) by pressing the corresponding button.</p>\n     ","response":4,"image":"img/bowl_alternate.jpg","task":"confidence","old_or_new":"new","trial_type":"html-button-response","trial_index":22,"time_elapsed":91539,"internal_node_id":"0.0-3.0-1.9","subject_id":"603e1f4d5275b9ddf4c4763d","study_id":"607de2837874a824e2e8c6ec","session_id":"60891a72d629960ed1056eea"},{"rt":1168.770000047516,"stimulus":"img/chair.jpg","response":"y","image":"img/chair.jpg","old_or_new":"old","task":"recognition","trial_type":"image-keyboard-response","trial_index":23,"time_elapsed":93220,"internal_node_id":"0.0-3.0-0.10","subject_id":"603e1f4d5275b9ddf4c4763d","study_id":"607de2837874a824e2e8c6ec","session_id":"60891a72d629960ed1056eea","correct":true},{"rt":1909.4600000535138,"stimulus":"\n      <p>How sure are you?</p>\n      <p>Rate your confidence in your answer from 1 (pure guess) to 5 (very sure) by pressing the corresponding button.</p>\n     ","response":4,"image":"img/chair.jpg","task":"confidence","old_or_new":"old","trial_type":"html-button-response","trial_index":24,"time_elapsed":95132,"internal_node_id":"0.0-3.0-1.10","subject_id":"603e1f4d5275b9ddf4c4763d","study_id":"607de2837874a824e2e8c6ec","session_id":"60891a72d629960ed1056eea"},{"rt":1159.5049999887124,"stimulus":"img/drum.jpg","response":"y","image":"img/drum.jpg","old_or_new":"old","task":"recognition","trial_type":"image-keyboard-response","trial_index":25,"time_elapsed":96802,"internal_node_id":"0.0-3.0-0.11","subject_id":"603e1f4d5275b9ddf4c4763d","study_id":"607de2837874a824e2e8c6ec","session_id":"60891a72d629960ed1056eea","correct":true},{"rt":1680.400000012014,"stimulus":"\n      <p>How sure are you?</p>\n      <p>Rate your confidence in your answer from 1 (pure guess) to 5 (very sure) by pressing the corresponding button.</p>\n     ","response":4,"image":"img/drum.jpg","task":"confidence","old_or_new":"old","trial_type":"html-button-response","trial_index":26,"time_elapsed":98485,"internal_node_id":"0.0-3.0-1.11","subject_id":"603e1f4d5275b9ddf4c4763d","study_id":"607de2837874a824e2e8c6ec","session_id":"60891a72d629960ed1056eea"},{"rt":1675.7300000172108,"stimulus":"img/hourglass_alternate.jpg","response":"n","image":"img/hourglass_alternate.jpg","old_or_new":"new","task":"recognition","trial_type":"image-keyboard-response","trial_index":27,"time_elapsed":100673,"internal_node_id":"0.0-3.0-0.12","subject_id":"603e1f4d5275b9ddf4c4763d","study_id":"607de2837874a824e2e8c6ec","session_id":"60891a72d629960ed1056eea","correct":true},{"rt":1661.0250000376254,"stimulus":"\n      <p>How sure are you?</p>\n      <p>Rate your confidence in your answer from 1 (pure guess) to 5 (very sure) by pressing the corresponding button.</p>\n     ","response":4,"image":"img/hourglass_alternate.jpg","task":"confidence","old_or_new":"new","trial_type":"html-button-response","trial_index":28,"time_elapsed":102337,"internal_node_id":"0.0-3.0-1.12","subject_id":"603e1f4d5275b9ddf4c4763d","study_id":"607de2837874a824e2e8c6ec","session_id":"60891a72d629960ed1056eea"},{"rt":988.0750000011176,"stimulus":"img/helmet.jpg","response":"y","image":"img/helmet.jpg","old_or_new":"old","task":"recognition","trial_type":"image-keyboard-response","trial_index":29,"time_elapsed":103836,"internal_node_id":"0.0-3.0-0.13","subject_id":"603e1f4d5275b9ddf4c4763d","study_id":"607de2837874a824e2e8c6ec","session_id":"60891a72d629960ed1056eea","correct":true},{"rt":1676.0599999688566,"stimulus":"\n      <p>How sure are you?</p>\n      <p>Rate your confidence in your answer from 1 (pure guess) to 5 (very sure) by pressing the corresponding button.</p>\n     ","response":4,"image":"img/helmet.jpg","task":"confidence","old_or_new":"old","trial_type":"html-button-response","trial_index":30,"time_elapsed":105515,"internal_node_id":"0.0-3.0-1.13","subject_id":"603e1f4d5275b9ddf4c4763d","study_id":"607de2837874a824e2e8c6ec","session_id":"60891a72d629960ed1056eea"},{"rt":1180.2049999823794,"stimulus":"img/fan.jpg","response":"y","image":"img/fan.jpg","old_or_new":"old","task":"recognition","trial_type":"image-keyboard-response","trial_index":31,"time_elapsed":107208,"internal_node_id":"0.0-3.0-0.14","subject_id":"603e1f4d5275b9ddf4c4763d","study_id":"607de2837874a824e2e8c6ec","session_id":"60891a72d629960ed1056eea","correct":true},{"rt":1357.724999950733,"stimulus":"\n      <p>How sure are you?</p>\n      <p>Rate your confidence in your answer from 1 (pure guess) to 5 (very sure) by pressing the corresponding button.</p>\n     ","response":4,"image":"img/fan.jpg","task":"confidence","old_or_new":"old","trial_type":"html-button-response","trial_index":32,"time_elapsed":108569,"internal_node_id":"0.0-3.0-1.14","subject_id":"603e1f4d5275b9ddf4c4763d","study_id":"607de2837874a824e2e8c6ec","session_id":"60891a72d629960ed1056eea"},{"rt":1913.2000000099652,"stimulus":"img/calculator.jpg","response":"y","image":"img/calculator.jpg","old_or_new":"old","task":"recognition","trial_type":"image-keyboard-response","trial_index":33,"time_elapsed":110994,"internal_node_id":"0.0-3.0-0.15","subject_id":"603e1f4d5275b9ddf4c4763d","study_id":"607de2837874a824e2e8c6ec","session_id":"60891a72d629960ed1056eea","correct":true},{"rt":2358.5350000066683,"stimulus":"\n      <p>How sure are you?</p>\n      <p>Rate your confidence in your answer from 1 (pure guess) to 5 (very sure) by pressing the corresponding button.</p>\n     ","response":4,"image":"img/calculator.jpg","task":"confidence","old_or_new":"old","trial_type":"html-button-response","trial_index":34,"time_elapsed":113356,"internal_node_id":"0.0-3.0-1.15","subject_id":"603e1f4d5275b9ddf4c4763d","study_id":"607de2837874a824e2e8c6ec","session_id":"60891a72d629960ed1056eea"},{"rt":1054.3800000450574,"stimulus":"img/backpack.jpg","response":"y","image":"img/backpack.jpg","old_or_new":"old","task":"recognition","trial_type":"image-keyboard-response","trial_index":35,"time_elapsed":114924,"internal_node_id":"0.0-3.0-0.16","subject_id":"603e1f4d5275b9ddf4c4763d","study_id":"607de2837874a824e2e8c6ec","session_id":"60891a72d629960ed1056eea","correct":true},{"rt":2138.5950000258163,"stimulus":"\n      <p>How sure are you?</p>\n      <p>Rate your confidence in your answer from 1 (pure guess) to 5 (very sure) by pressing the corresponding button.</p>\n     ","response":4,"image":"img/backpack.jpg","task":"confidence","old_or_new":"old","trial_type":"html-button-response","trial_index":36,"time_elapsed":117066,"internal_node_id":"0.0-3.0-1.16","subject_id":"603e1f4d5275b9ddf4c4763d","study_id":"607de2837874a824e2e8c6ec","session_id":"60891a72d629960ed1056eea"},{"rt":1897.2450000001118,"stimulus":"img/grapes_alternate.jpg","response":"n","image":"img/grapes_alternate.jpg","old_or_new":"new","task":"recognition","trial_type":"image-keyboard-response","trial_index":37,"time_elapsed":119480,"internal_node_id":"0.0-3.0-0.17","subject_id":"603e1f4d5275b9ddf4c4763d","study_id":"607de2837874a824e2e8c6ec","session_id":"60891a72d629960ed1056eea","correct":true},{"rt":2459.0099999913946,"stimulus":"\n      <p>How sure are you?</p>\n      <p>Rate your confidence in your answer from 1 (pure guess) to 5 (very sure) by pressing the corresponding button.</p>\n     ","response":2,"image":"img/grapes_alternate.jpg","task":"confidence","old_or_new":"new","trial_type":"html-button-response","trial_index":38,"time_elapsed":121942,"internal_node_id":"0.0-3.0-1.17","subject_id":"603e1f4d5275b9ddf4c4763d","study_id":"607de2837874a824e2e8c6ec","session_id":"60891a72d629960ed1056eea"},{"rt":1394.9900000006892,"stimulus":"img/key_alternate.jpg","response":"n","image":"img/key_alternate.jpg","old_or_new":"new","task":"recognition","trial_type":"image-keyboard-response","trial_index":39,"time_elapsed":123843,"internal_node_id":"0.0-3.0-0.18","subject_id":"603e1f4d5275b9ddf4c4763d","study_id":"607de2837874a824e2e8c6ec","session_id":"60891a72d629960ed1056eea","correct":true},{"rt":1586.9750000420026,"stimulus":"\n      <p>How sure are you?</p>\n      <p>Rate your confidence in your answer from 1 (pure guess) to 5 (very sure) by pressing the corresponding button.</p>\n     ","response":4,"image":"img/key_alternate.jpg","task":"confidence","old_or_new":"new","trial_type":"html-button-response","trial_index":40,"time_elapsed":125433,"internal_node_id":"0.0-3.0-1.18","subject_id":"603e1f4d5275b9ddf4c4763d","study_id":"607de2837874a824e2e8c6ec","session_id":"60891a72d629960ed1056eea"},{"rt":1132.9949999926612,"stimulus":"img/grapes.jpg","response":"y","image":"img/grapes.jpg","old_or_new":"old","task":"recognition","trial_type":"image-keyboard-response","trial_index":41,"time_elapsed":127077,"internal_node_id":"0.0-3.0-0.19","subject_id":"603e1f4d5275b9ddf4c4763d","study_id":"607de2837874a824e2e8c6ec","session_id":"60891a72d629960ed1056eea","correct":true},{"rt":1442.185000050813,"stimulus":"\n      <p>How sure are you?</p>\n      <p>Rate your confidence in your answer from 1 (pure guess) to 5 (very sure) by pressing the corresponding button.</p>\n     ","response":4,"image":"img/grapes.jpg","task":"confidence","old_or_new":"old","trial_type":"html-button-response","trial_index":42,"time_elapsed":128523,"internal_node_id":"0.0-3.0-1.19","subject_id":"603e1f4d5275b9ddf4c4763d","study_id":"607de2837874a824e2e8c6ec","session_id":"60891a72d629960ed1056eea"},{"rt":1020.4849999863654,"stimulus":"img/hairbrush.jpg","response":"y","image":"img/hairbrush.jpg","old_or_new":"old","task":"recognition","trial_type":"image-keyboard-response","trial_index":43,"time_elapsed":130055,"internal_node_id":"0.0-3.0-0.20","subject_id":"603e1f4d5275b9ddf4c4763d","study_id":"607de2837874a824e2e8c6ec","session_id":"60891a72d629960ed1056eea","correct":true},{"rt":1664.2549999523908,"stimulus":"\n      <p>How sure are you?</p>\n      <p>Rate your confidence in your answer from 1 (pure guess) to 5 (very sure) by pressing the corresponding button.</p>\n     ","response":4,"image":"img/hairbrush.jpg","task":"confidence","old_or_new":"old","trial_type":"html-button-response","trial_index":44,"time_elapsed":131724,"internal_node_id":"0.0-3.0-1.20","subject_id":"603e1f4d5275b9ddf4c4763d","study_id":"607de2837874a824e2e8c6ec","session_id":"60891a72d629960ed1056eea"},{"rt":1038.0000000004657,"stimulus":"img/lightbulb.jpg","response":"y","image":"img/lightbulb.jpg","old_or_new":"old","task":"recognition","trial_type":"image-keyboard-response","trial_index":45,"time_elapsed":133273,"internal_node_id":"0.0-3.0-0.21","subject_id":"603e1f4d5275b9ddf4c4763d","study_id":"607de2837874a824e2e8c6ec","session_id":"60891a72d629960ed1056eea","correct":true},{"rt":1227.3750000167638,"stimulus":"\n      <p>How sure are you?</p>\n      <p>Rate your confidence in your answer from 1 (pure guess) to 5 (very sure) by pressing the corresponding button.</p>\n     ","response":4,"image":"img/lightbulb.jpg","task":"confidence","old_or_new":"old","trial_type":"html-button-response","trial_index":46,"time_elapsed":134504,"internal_node_id":"0.0-3.0-1.21","subject_id":"603e1f4d5275b9ddf4c4763d","study_id":"607de2837874a824e2e8c6ec","session_id":"60891a72d629960ed1056eea"},{"rt":998.0850000283681,"stimulus":"img/hat_alternate.jpg","response":"n","image":"img/hat_alternate.jpg","old_or_new":"new","task":"recognition","trial_type":"image-keyboard-response","trial_index":47,"time_elapsed":136016,"internal_node_id":"0.0-3.0-0.22","subject_id":"603e1f4d5275b9ddf4c4763d","study_id":"607de2837874a824e2e8c6ec","session_id":"60891a72d629960ed1056eea","correct":true},{"rt":1220.6149999983609,"stimulus":"\n      <p>How sure are you?</p>\n      <p>Rate your confidence in your answer from 1 (pure guess) to 5 (very sure) by pressing the corresponding button.</p>\n     ","response":4,"image":"img/hat_alternate.jpg","task":"confidence","old_or_new":"new","trial_type":"html-button-response","trial_index":48,"time_elapsed":137239,"internal_node_id":"0.0-3.0-1.22","subject_id":"603e1f4d5275b9ddf4c4763d","study_id":"607de2837874a824e2e8c6ec","session_id":"60891a72d629960ed1056eea"},{"rt":1093.0999999982305,"stimulus":"img/coin.jpg","response":"y","image":"img/coin.jpg","old_or_new":"old","task":"recognition","trial_type":"image-keyboard-response","trial_index":49,"time_elapsed":138844,"internal_node_id":"0.0-3.0-0.23","subject_id":"603e1f4d5275b9ddf4c4763d","study_id":"607de2837874a824e2e8c6ec","session_id":"60891a72d629960ed1056eea","correct":true},{"rt":1322.1350000239909,"stimulus":"\n      <p>How sure are you?</p>\n      <p>Rate your confidence in your answer from 1 (pure guess) to 5 (very sure) by pressing the corresponding button.</p>\n     ","response":4,"image":"img/coin.jpg","task":"confidence","old_or_new":"old","trial_type":"html-button-response","trial_index":50,"time_elapsed":140169,"internal_node_id":"0.0-3.0-1.23","subject_id":"603e1f4d5275b9ddf4c4763d","study_id":"607de2837874a824e2e8c6ec","session_id":"60891a72d629960ed1056eea"},{"rt":1082.8000000328757,"stimulus":"img/camera_alternate.jpg","response":"n","image":"img/camera_alternate.jpg","old_or_new":"new","task":"recognition","trial_type":"image-keyboard-response","trial_index":51,"time_elapsed":141768,"internal_node_id":"0.0-3.0-0.24","subject_id":"603e1f4d5275b9ddf4c4763d","study_id":"607de2837874a824e2e8c6ec","session_id":"60891a72d629960ed1056eea","correct":true},{"rt":1390.3600000194274,"stimulus":"\n      <p>How sure are you?</p>\n      <p>Rate your confidence in your answer from 1 (pure guess) to 5 (very sure) by pressing the corresponding button.</p>\n     ","response":4,"image":"img/camera_alternate.jpg","task":"confidence","old_or_new":"new","trial_type":"html-button-response","trial_index":52,"time_elapsed":143161,"internal_node_id":"0.0-3.0-1.24","subject_id":"603e1f4d5275b9ddf4c4763d","study_id":"607de2837874a824e2e8c6ec","session_id":"60891a72d629960ed1056eea"},{"rt":998.5749999759719,"stimulus":"img/camera.jpg","response":"y","image":"img/camera.jpg","old_or_new":"old","task":"recognition","trial_type":"image-keyboard-response","trial_index":53,"time_elapsed":144670,"internal_node_id":"0.0-3.0-0.25","subject_id":"603e1f4d5275b9ddf4c4763d","study_id":"607de2837874a824e2e8c6ec","session_id":"60891a72d629960ed1056eea","correct":true},{"rt":1374.805000028573,"stimulus":"\n      <p>How sure are you?</p>\n      <p>Rate your confidence in your answer from 1 (pure guess) to 5 (very sure) by pressing the corresponding button.</p>\n     ","response":4,"image":"img/camera.jpg","task":"confidence","old_or_new":"old","trial_type":"html-button-response","trial_index":54,"time_elapsed":146048,"internal_node_id":"0.0-3.0-1.25","subject_id":"603e1f4d5275b9ddf4c4763d","study_id":"607de2837874a824e2e8c6ec","session_id":"60891a72d629960ed1056eea"},{"rt":881.885000038892,"stimulus":"img/hourglass.jpg","response":"y","image":"img/hourglass.jpg","old_or_new":"old","task":"recognition","trial_type":"image-keyboard-response","trial_index":55,"time_elapsed":147440,"internal_node_id":"0.0-3.0-0.26","subject_id":"603e1f4d5275b9ddf4c4763d","study_id":"607de2837874a824e2e8c6ec","session_id":"60891a72d629960ed1056eea","correct":true},{"rt":1416.3249999983236,"stimulus":"\n      <p>How sure are you?</p>\n      <p>Rate your confidence in your answer from 1 (pure guess) to 5 (very sure) by pressing the corresponding button.</p>\n     ","response":4,"image":"img/hourglass.jpg","task":"confidence","old_or_new":"old","trial_type":"html-button-response","trial_index":56,"time_elapsed":148859,"internal_node_id":"0.0-3.0-1.26","subject_id":"603e1f4d5275b9ddf4c4763d","study_id":"607de2837874a824e2e8c6ec","session_id":"60891a72d629960ed1056eea"},{"rt":1623.00999998115,"stimulus":"img/apple_alternate.jpg","response":"n","image":"img/apple_alternate.jpg","old_or_new":"new","task":"recognition","trial_type":"image-keyboard-response","trial_index":57,"time_elapsed":150986,"internal_node_id":"0.0-3.0-0.27","subject_id":"603e1f4d5275b9ddf4c4763d","study_id":"607de2837874a824e2e8c6ec","session_id":"60891a72d629960ed1056eea","correct":true},{"rt":1156.4249999937601,"stimulus":"\n      <p>How sure are you?</p>\n      <p>Rate your confidence in your answer from 1 (pure guess) to 5 (very sure) by pressing the corresponding button.</p>\n     ","response":4,"image":"img/apple_alternate.jpg","task":"confidence","old_or_new":"new","trial_type":"html-button-response","trial_index":58,"time_elapsed":152146,"internal_node_id":"0.0-3.0-1.27","subject_id":"603e1f4d5275b9ddf4c4763d","study_id":"607de2837874a824e2e8c6ec","session_id":"60891a72d629960ed1056eea"},{"rt":965.1500000036322,"stimulus":"img/globe.jpg","response":"y","image":"img/globe.jpg","old_or_new":"old","task":"recognition","trial_type":"image-keyboard-response","trial_index":59,"time_elapsed":153619,"internal_node_id":"0.0-3.0-0.28","subject_id":"603e1f4d5275b9ddf4c4763d","study_id":"607de2837874a824e2e8c6ec","session_id":"60891a72d629960ed1056eea","correct":true},{"rt":1603.5249999840744,"stimulus":"\n      <p>How sure are you?</p>\n      <p>Rate your confidence in your answer from 1 (pure guess) to 5 (very sure) by pressing the corresponding button.</p>\n     ","response":4,"image":"img/globe.jpg","task":"confidence","old_or_new":"old","trial_type":"html-button-response","trial_index":60,"time_elapsed":155226,"internal_node_id":"0.0-3.0-1.28","subject_id":"603e1f4d5275b9ddf4c4763d","study_id":"607de2837874a824e2e8c6ec","session_id":"60891a72d629960ed1056eea"},{"rt":1179.3549999711104,"stimulus":"img/basket_alternate.jpg","response":"n","image":"img/basket_alternate.jpg","old_or_new":"new","task":"recognition","trial_type":"image-keyboard-response","trial_index":61,"time_elapsed":156917,"internal_node_id":"0.0-3.0-0.29","subject_id":"603e1f4d5275b9ddf4c4763d","study_id":"607de2837874a824e2e8c6ec","session_id":"60891a72d629960ed1056eea","correct":true},{"rt":1476.0800000512972,"stimulus":"\n      <p>How sure are you?</p>\n      <p>Rate your confidence in your answer from 1 (pure guess) to 5 (very sure) by pressing the corresponding button.</p>\n     ","response":4,"image":"img/basket_alternate.jpg","task":"confidence","old_or_new":"new","trial_type":"html-button-response","trial_index":62,"time_elapsed":158397,"internal_node_id":"0.0-3.0-1.29","subject_id":"603e1f4d5275b9ddf4c4763d","study_id":"607de2837874a824e2e8c6ec","session_id":"60891a72d629960ed1056eea"},{"rt":1409.2899999814108,"stimulus":"img/hair_tie_alternate.jpg","response":"n","image":"img/hair_tie_alternate.jpg","old_or_new":"new","task":"recognition","trial_type":"image-keyboard-response","trial_index":63,"time_elapsed":160319,"internal_node_id":"0.0-3.0-0.30","subject_id":"603e1f4d5275b9ddf4c4763d","study_id":"607de2837874a824e2e8c6ec","session_id":"60891a72d629960ed1056eea","correct":true},{"rt":1395.7850000006147,"stimulus":"\n      <p>How sure are you?</p>\n      <p>Rate your confidence in your answer from 1 (pure guess) to 5 (very sure) by pressing the corresponding button.</p>\n     ","response":4,"image":"img/hair_tie_alternate.jpg","task":"confidence","old_or_new":"new","trial_type":"html-button-response","trial_index":64,"time_elapsed":161720,"internal_node_id":"0.0-3.0-1.30","subject_id":"603e1f4d5275b9ddf4c4763d","study_id":"607de2837874a824e2e8c6ec","session_id":"60891a72d629960ed1056eea"},{"rt":983.9700000011362,"stimulus":"img/folder.jpg","response":"y","image":"img/folder.jpg","old_or_new":"old","task":"recognition","trial_type":"image-keyboard-response","trial_index":65,"time_elapsed":163218,"internal_node_id":"0.0-3.0-0.31","subject_id":"603e1f4d5275b9ddf4c4763d","study_id":"607de2837874a824e2e8c6ec","session_id":"60891a72d629960ed1056eea","correct":true},{"rt":1076.0400000144728,"stimulus":"\n      <p>How sure are you?</p>\n      <p>Rate your confidence in your answer from 1 (pure guess) to 5 (very sure) by pressing the corresponding button.</p>\n     ","response":4,"image":"img/folder.jpg","task":"confidence","old_or_new":"old","trial_type":"html-button-response","trial_index":66,"time_elapsed":164297,"internal_node_id":"0.0-3.0-1.31","subject_id":"603e1f4d5275b9ddf4c4763d","study_id":"607de2837874a824e2e8c6ec","session_id":"60891a72d629960ed1056eea"},{"rt":920.4749999917112,"stimulus":"img/lightbulb_alternate.jpg","response":"n","image":"img/lightbulb_alternate.jpg","old_or_new":"new","task":"recognition","trial_type":"image-keyboard-response","trial_index":67,"time_elapsed":165727,"internal_node_id":"0.0-3.0-0.32","subject_id":"603e1f4d5275b9ddf4c4763d","study_id":"607de2837874a824e2e8c6ec","session_id":"60891a72d629960ed1056eea","correct":true},{"rt":1602.3500000010245,"stimulus":"\n      <p>How sure are you?</p>\n      <p>Rate your confidence in your answer from 1 (pure guess) to 5 (very sure) by pressing the corresponding button.</p>\n     ","response":4,"image":"img/lightbulb_alternate.jpg","task":"confidence","old_or_new":"new","trial_type":"html-button-response","trial_index":68,"time_elapsed":167332,"internal_node_id":"0.0-3.0-1.32","subject_id":"603e1f4d5275b9ddf4c4763d","study_id":"607de2837874a824e2e8c6ec","session_id":"60891a72d629960ed1056eea"},{"rt":954.9000000115484,"stimulus":"img/basket.jpg","response":"y","image":"img/basket.jpg","old_or_new":"old","task":"recognition","trial_type":"image-keyboard-response","trial_index":69,"time_elapsed":168800,"internal_node_id":"0.0-3.0-0.33","subject_id":"603e1f4d5275b9ddf4c4763d","study_id":"607de2837874a824e2e8c6ec","session_id":"60891a72d629960ed1056eea","correct":true},{"rt":951.9149999832734,"stimulus":"\n      <p>How sure are you?</p>\n      <p>Rate your confidence in your answer from 1 (pure guess) to 5 (very sure) by pressing the corresponding button.</p>\n     ","response":4,"image":"img/basket.jpg","task":"confidence","old_or_new":"old","trial_type":"html-button-response","trial_index":70,"time_elapsed":169755,"internal_node_id":"0.0-3.0-1.33","subject_id":"603e1f4d5275b9ddf4c4763d","study_id":"607de2837874a824e2e8c6ec","session_id":"60891a72d629960ed1056eea"},{"rt":1027.2949999780394,"stimulus":"img/hat.jpg","response":"y","image":"img/hat.jpg","old_or_new":"old","task":"recognition","trial_type":"image-keyboard-response","trial_index":71,"time_elapsed":171294,"internal_node_id":"0.0-3.0-0.34","subject_id":"603e1f4d5275b9ddf4c4763d","study_id":"607de2837874a824e2e8c6ec","session_id":"60891a72d629960ed1056eea","correct":true},{"rt":981.4349999651313,"stimulus":"\n      <p>How sure are you?</p>\n      <p>Rate your confidence in your answer from 1 (pure guess) to 5 (very sure) by pressing the corresponding button.</p>\n     ","response":4,"image":"img/hat.jpg","task":"confidence","old_or_new":"old","trial_type":"html-button-response","trial_index":72,"time_elapsed":172279,"internal_node_id":"0.0-3.0-1.34","subject_id":"603e1f4d5275b9ddf4c4763d","study_id":"607de2837874a824e2e8c6ec","session_id":"60891a72d629960ed1056eea"},{"rt":1742.000000027474,"stimulus":"img/fan_alternate.jpg","response":"n","image":"img/fan_alternate.jpg","old_or_new":"new","task":"recognition","trial_type":"image-keyboard-response","trial_index":73,"time_elapsed":174527,"internal_node_id":"0.0-3.0-0.35","subject_id":"603e1f4d5275b9ddf4c4763d","study_id":"607de2837874a824e2e8c6ec","session_id":"60891a72d629960ed1056eea","correct":true},{"rt":1413.7099999934435,"stimulus":"\n      <p>How sure are you?</p>\n      <p>Rate your confidence in your answer from 1 (pure guess) to 5 (very sure) by pressing the corresponding button.</p>\n     ","response":4,"image":"img/fan_alternate.jpg","task":"confidence","old_or_new":"new","trial_type":"html-button-response","trial_index":74,"time_elapsed":175944,"internal_node_id":"0.0-3.0-1.35","subject_id":"603e1f4d5275b9ddf4c4763d","study_id":"607de2837874a824e2e8c6ec","session_id":"60891a72d629960ed1056eea"},{"rt":929.2400000267662,"stimulus":"img/bowl.jpg","response":"y","image":"img/bowl.jpg","old_or_new":"old","task":"recognition","trial_type":"image-keyboard-response","trial_index":75,"time_elapsed":177386,"internal_node_id":"0.0-3.0-0.36","subject_id":"603e1f4d5275b9ddf4c4763d","study_id":"607de2837874a824e2e8c6ec","session_id":"60891a72d629960ed1056eea","correct":true},{"rt":1056.1999999918044,"stimulus":"\n      <p>How sure are you?</p>\n      <p>Rate your confidence in your answer from 1 (pure guess) to 5 (very sure) by pressing the corresponding button.</p>\n     ","response":4,"image":"img/bowl.jpg","task":"confidence","old_or_new":"old","trial_type":"html-button-response","trial_index":76,"time_elapsed":178445,"internal_node_id":"0.0-3.0-1.36","subject_id":"603e1f4d5275b9ddf4c4763d","study_id":"607de2837874a824e2e8c6ec","session_id":"60891a72d629960ed1056eea"},{"rt":804.839999997057,"stimulus":"img/apple.jpg","response":"y","image":"img/apple.jpg","old_or_new":"old","task":"recognition","trial_type":"image-keyboard-response","trial_index":77,"time_elapsed":179759,"internal_node_id":"0.0-3.0-0.37","subject_id":"603e1f4d5275b9ddf4c4763d","study_id":"607de2837874a824e2e8c6ec","session_id":"60891a72d629960ed1056eea","correct":true},{"rt":1163.155000016559,"stimulus":"\n      <p>How sure are you?</p>\n      <p>Rate your confidence in your answer from 1 (pure guess) to 5 (very sure) by pressing the corresponding button.</p>\n     ","response":4,"image":"img/apple.jpg","task":"confidence","old_or_new":"old","trial_type":"html-button-response","trial_index":78,"time_elapsed":180925,"internal_node_id":"0.0-3.0-1.37","subject_id":"603e1f4d5275b9ddf4c4763d","study_id":"607de2837874a824e2e8c6ec","session_id":"60891a72d629960ed1056eea"},{"rt":929.1450000018813,"stimulus":"img/drum_alternate.jpg","response":"n","image":"img/drum_alternate.jpg","old_or_new":"new","task":"recognition","trial_type":"image-keyboard-response","trial_index":79,"time_elapsed":182368,"internal_node_id":"0.0-3.0-0.38","subject_id":"603e1f4d5275b9ddf4c4763d","study_id":"607de2837874a824e2e8c6ec","session_id":"60891a72d629960ed1056eea","correct":true},{"rt":1151.6900000278838,"stimulus":"\n      <p>How sure are you?</p>\n      <p>Rate your confidence in your answer from 1 (pure guess) to 5 (very sure) by pressing the corresponding button.</p>\n     ","response":4,"image":"img/drum_alternate.jpg","task":"confidence","old_or_new":"new","trial_type":"html-button-response","trial_index":80,"time_elapsed":183523,"internal_node_id":"0.0-3.0-1.38","subject_id":"603e1f4d5275b9ddf4c4763d","study_id":"607de2837874a824e2e8c6ec","session_id":"60891a72d629960ed1056eea"},{"rt":899.2749999742955,"stimulus":"img/leaf.jpg","response":"y","image":"img/leaf.jpg","old_or_new":"old","task":"recognition","trial_type":"image-keyboard-response","trial_index":81,"time_elapsed":184932,"internal_node_id":"0.0-3.0-0.39","subject_id":"603e1f4d5275b9ddf4c4763d","study_id":"607de2837874a824e2e8c6ec","session_id":"60891a72d629960ed1056eea","correct":true},{"rt":1034.6900000004098,"stimulus":"\n      <p>How sure are you?</p>\n      <p>Rate your confidence in your answer from 1 (pure guess) to 5 (very sure) by pressing the corresponding button.</p>\n     ","response":4,"image":"img/leaf.jpg","task":"confidence","old_or_new":"old","trial_type":"html-button-response","trial_index":82,"time_elapsed":185970,"internal_node_id":"0.0-3.0-1.39","subject_id":"603e1f4d5275b9ddf4c4763d","study_id":"607de2837874a824e2e8c6ec","session_id":"60891a72d629960ed1056eea"},{"rt":860.5199999874458,"stimulus":"img/helmet_alternate.jpg","response":"n","image":"img/helmet_alternate.jpg","old_or_new":"new","task":"recognition","trial_type":"image-keyboard-response","trial_index":83,"time_elapsed":187342,"internal_node_id":"0.0-3.0-0.40","subject_id":"603e1f4d5275b9ddf4c4763d","study_id":"607de2837874a824e2e8c6ec","session_id":"60891a72d629960ed1056eea","correct":true},{"rt":1078.7550000241026,"stimulus":"\n      <p>How sure are you?</p>\n      <p>Rate your confidence in your answer from 1 (pure guess) to 5 (very sure) by pressing the corresponding button.</p>\n     ","response":4,"image":"img/helmet_alternate.jpg","task":"confidence","old_or_new":"new","trial_type":"html-button-response","trial_index":84,"time_elapsed":188424,"internal_node_id":"0.0-3.0-1.40","subject_id":"603e1f4d5275b9ddf4c4763d","study_id":"607de2837874a824e2e8c6ec","session_id":"60891a72d629960ed1056eea"},{"rt":850.9049999993294,"stimulus":"img/calculator_alternate.jpg","response":"n","image":"img/calculator_alternate.jpg","old_or_new":"new","task":"recognition","trial_type":"image-keyboard-response","trial_index":85,"time_elapsed":189785,"internal_node_id":"0.0-3.0-0.41","subject_id":"603e1f4d5275b9ddf4c4763d","study_id":"607de2837874a824e2e8c6ec","session_id":"60891a72d629960ed1056eea","correct":true},{"rt":1166.6599999880418,"stimulus":"\n      <p>How sure are you?</p>\n      <p>Rate your confidence in your answer from 1 (pure guess) to 5 (very sure) by pressing the corresponding button.</p>\n     ","response":4,"image":"img/calculator_alternate.jpg","task":"confidence","old_or_new":"new","trial_type":"html-button-response","trial_index":86,"time_elapsed":190955,"internal_node_id":"0.0-3.0-1.41","subject_id":"603e1f4d5275b9ddf4c4763d","study_id":"607de2837874a824e2e8c6ec","session_id":"60891a72d629960ed1056eea"},{"rt":911.8899999884889,"stimulus":"img/folder_alternate.jpg","response":"n","image":"img/folder_alternate.jpg","old_or_new":"new","task":"recognition","trial_type":"image-keyboard-response","trial_index":87,"time_elapsed":192380,"internal_node_id":"0.0-3.0-0.42","subject_id":"603e1f4d5275b9ddf4c4763d","study_id":"607de2837874a824e2e8c6ec","session_id":"60891a72d629960ed1056eea","correct":true},{"rt":1107.7650000224821,"stimulus":"\n      <p>How sure are you?</p>\n      <p>Rate your confidence in your answer from 1 (pure guess) to 5 (very sure) by pressing the corresponding button.</p>\n     ","response":4,"image":"img/folder_alternate.jpg","task":"confidence","old_or_new":"new","trial_type":"html-button-response","trial_index":88,"time_elapsed":193491,"internal_node_id":"0.0-3.0-1.42","subject_id":"603e1f4d5275b9ddf4c4763d","study_id":"607de2837874a824e2e8c6ec","session_id":"60891a72d629960ed1056eea"},{"rt":1114.1899999929592,"stimulus":"img/leaf_alternate.jpg","response":"n","image":"img/leaf_alternate.jpg","old_or_new":"new","task":"recognition","trial_type":"image-keyboard-response","trial_index":89,"time_elapsed":195119,"internal_node_id":"0.0-3.0-0.43","subject_id":"603e1f4d5275b9ddf4c4763d","study_id":"607de2837874a824e2e8c6ec","session_id":"60891a72d629960ed1056eea","correct":true},{"rt":1133.9399999706075,"stimulus":"\n      <p>How sure are you?</p>\n      <p>Rate your confidence in your answer from 1 (pure guess) to 5 (very sure) by pressing the corresponding button.</p>\n     ","response":4,"image":"img/leaf_alternate.jpg","task":"confidence","old_or_new":"new","trial_type":"html-button-response","trial_index":90,"time_elapsed":196264,"internal_node_id":"0.0-3.0-1.43","subject_id":"603e1f4d5275b9ddf4c4763d","study_id":"607de2837874a824e2e8c6ec","session_id":"60891a72d629960ed1056eea"},{"rt":1020.4950000043027,"stimulus":"img/glasses_alternate.jpg","response":"n","image":"img/glasses_alternate.jpg","old_or_new":"new","task":"recognition","trial_type":"image-keyboard-response","trial_index":91,"time_elapsed":197796,"internal_node_id":"0.0-3.0-0.44","subject_id":"603e1f4d5275b9ddf4c4763d","study_id":"607de2837874a824e2e8c6ec","session_id":"60891a72d629960ed1056eea","correct":true},{"rt":1085.735000029672,"stimulus":"\n      <p>How sure are you?</p>\n      <p>Rate your confidence in your answer from 1 (pure guess) to 5 (very sure) by pressing the corresponding button.</p>\n     ","response":4,"image":"img/glasses_alternate.jpg","task":"confidence","old_or_new":"new","trial_type":"html-button-response","trial_index":92,"time_elapsed":198885,"internal_node_id":"0.0-3.0-1.44","subject_id":"603e1f4d5275b9ddf4c4763d","study_id":"607de2837874a824e2e8c6ec","session_id":"60891a72d629960ed1056eea"},{"rt":865.8050000085495,"stimulus":"img/chair_alternate.jpg","response":"n","image":"img/chair_alternate.jpg","old_or_new":"new","task":"recognition","trial_type":"image-keyboard-response","trial_index":93,"time_elapsed":200256,"internal_node_id":"0.0-3.0-0.45","subject_id":"603e1f4d5275b9ddf4c4763d","study_id":"607de2837874a824e2e8c6ec","session_id":"60891a72d629960ed1056eea","correct":true},{"rt":1143.5799999744631,"stimulus":"\n      <p>How sure are you?</p>\n      <p>Rate your confidence in your answer from 1 (pure guess) to 5 (very sure) by pressing the corresponding button.</p>\n     ","response":4,"image":"img/chair_alternate.jpg","task":"confidence","old_or_new":"new","trial_type":"html-button-response","trial_index":94,"time_elapsed":201403,"internal_node_id":"0.0-3.0-1.45","subject_id":"603e1f4d5275b9ddf4c4763d","study_id":"607de2837874a824e2e8c6ec","session_id":"60891a72d629960ed1056eea"},{"rt":993.8100000144914,"stimulus":"img/globe_alternate.jpg","response":"n","image":"img/globe_alternate.jpg","old_or_new":"new","task":"recognition","trial_type":"image-keyboard-response","trial_index":95,"time_elapsed":202914,"internal_node_id":"0.0-3.0-0.46","subject_id":"603e1f4d5275b9ddf4c4763d","study_id":"607de2837874a824e2e8c6ec","session_id":"60891a72d629960ed1056eea","correct":true},{"rt":1117.6950000226498,"stimulus":"\n      <p>How sure are you?</p>\n      <p>Rate your confidence in your answer from 1 (pure guess) to 5 (very sure) by pressing the corresponding button.</p>\n     ","response":4,"image":"img/globe_alternate.jpg","task":"confidence","old_or_new":"new","trial_type":"html-button-response","trial_index":96,"time_elapsed":204035,"internal_node_id":"0.0-3.0-1.46","subject_id":"603e1f4d5275b9ddf4c4763d","study_id":"607de2837874a824e2e8c6ec","session_id":"60891a72d629960ed1056eea"},{"rt":2784.9799999967217,"stimulus":"img/key.jpg","response":"y","image":"img/key.jpg","old_or_new":"old","task":"recognition","trial_type":"image-keyboard-response","trial_index":97,"time_elapsed":207331,"internal_node_id":"0.0-3.0-0.47","subject_id":"603e1f4d5275b9ddf4c4763d","study_id":"607de2837874a824e2e8c6ec","session_id":"60891a72d629960ed1056eea","correct":true},{"rt":1013.1950000068173,"stimulus":"\n      <p>How sure are you?</p>\n      <p>Rate your confidence in your answer from 1 (pure guess) to 5 (very sure) by pressing the corresponding button.</p>\n     ","response":4,"image":"img/key.jpg","task":"confidence","old_or_new":"old","trial_type":"html-button-response","trial_index":98,"time_elapsed":208348,"internal_node_id":"0.0-3.0-1.47","subject_id":"603e1f4d5275b9ddf4c4763d","study_id":"607de2837874a824e2e8c6ec","session_id":"60891a72d629960ed1056eea"}]