[{"success":true,"timeout":false,"failed_images":[],"failed_audio":[],"failed_video":[],"trial_type":"preload","trial_index":0,"time_elapsed":4848,"internal_node_id":"0.0-0.0","subject_id":"5b807fb716aa4400016a6f8e","study_id":"606233c0e42b980319b6a18e","session_id":"60885a976ad26441d6875600"},{"rt":221120.74000015855,"stimulus":"\n      <div style=\"width:800px; text-align: left;\">\n        <p>Welcome to day 2 of the experiment! Thanks for coming back.</p>\n        <p>You will be presented with a series of images. Images will appear one at a time.</p>\n        <p>Each image will remain on the screen until you press either <span style=\"font-weight: bold;\">\"y\" to indicate you have seen the \n        exact same photo the day before or \"n\" to indicate you have not seen the exact same photo the day before.</span></p>\n        <p>After you answer yes (\"y\") or no (\"n\"), you will then be prompted to rate your certainty on a scale of\n        1 (pure guess) to 5 (very sure).</p>\n      </div>\n    ","response":0,"trial_type":"html-button-response","trial_index":1,"time_elapsed":225969,"internal_node_id":"0.0-1.0","subject_id":"5b807fb716aa4400016a6f8e","study_id":"606233c0e42b980319b6a18e","session_id":"60885a976ad26441d6875600"},{"success":true,"trial_type":"fullscreen","trial_index":2,"time_elapsed":230040,"internal_node_id":"0.0-2.0","subject_id":"5b807fb716aa4400016a6f8e","study_id":"606233c0e42b980319b6a18e","session_id":"60885a976ad26441d6875600"},{"rt":1591.3149998523295,"stimulus":"img/sink.jpg","response":"y","image":"img/sink.jpg","old_or_new":"old","task":"recognition","trial_type":"image-keyboard-response","trial_index":3,"time_elapsed":231646,"internal_node_id":"0.0-3.0-0.0","subject_id":"5b807fb716aa4400016a6f8e","study_id":"606233c0e42b980319b6a18e","session_id":"60885a976ad26441d6875600","correct":true},{"rt":1450.9399998933077,"stimulus":"\n      <p>How sure are you?</p>\n      <p>Rate your confidence in your answer from 1 (pure guess) to 5 (very sure) by pressing the corresponding button.</p>\n     ","response":4,"image":"img/sink.jpg","task":"confidence","old_or_new":"old","trial_type":"html-button-response","trial_index":4,"time_elapsed":233098,"internal_node_id":"0.0-3.0-1.0","subject_id":"5b807fb716aa4400016a6f8e","study_id":"606233c0e42b980319b6a18e","session_id":"60885a976ad26441d6875600"},{"rt":1085.1199999451637,"stimulus":"img/yarn_alternate.jpg","response":"n","image":"img/yarn_alternate.jpg","old_or_new":"new","task":"recognition","trial_type":"image-keyboard-response","trial_index":5,"time_elapsed":234686,"internal_node_id":"0.0-3.0-0.1","subject_id":"5b807fb716aa4400016a6f8e","study_id":"606233c0e42b980319b6a18e","session_id":"60885a976ad26441d6875600","correct":true},{"rt":1564.2849998548627,"stimulus":"\n      <p>How sure are you?</p>\n      <p>Rate your confidence in your answer from 1 (pure guess) to 5 (very sure) by pressing the corresponding button.</p>\n     ","response":4,"image":"img/yarn_alternate.jpg","task":"confidence","old_or_new":"new","trial_type":"html-button-response","trial_index":6,"time_elapsed":236252,"internal_node_id":"0.0-3.0-1.1","subject_id":"5b807fb716aa4400016a6f8e","study_id":"606233c0e42b980319b6a18e","session_id":"60885a976ad26441d6875600"},{"rt":1409.61500024423,"stimulus":"img/rolling_pin_alternate.jpg","response":"n","image":"img/rolling_pin_alternate.jpg","old_or_new":"new","task":"recognition","trial_type":"image-keyboard-response","trial_index":7,"time_elapsed":238163,"internal_node_id":"0.0-3.0-0.2","subject_id":"5b807fb716aa4400016a6f8e","study_id":"606233c0e42b980319b6a18e","session_id":"60885a976ad26441d6875600","correct":true},{"rt":1664.9400000460446,"stimulus":"\n      <p>How sure are you?</p>\n      <p>Rate your confidence in your answer from 1 (pure guess) to 5 (very sure) by pressing the corresponding button.</p>\n     ","response":4,"image":"img/rolling_pin_alternate.jpg","task":"confidence","old_or_new":"new","trial_type":"html-button-response","trial_index":8,"time_elapsed":239829,"internal_node_id":"0.0-3.0-1.2","subject_id":"5b807fb716aa4400016a6f8e","study_id":"606233c0e42b980319b6a18e","session_id":"60885a976ad26441d6875600"},{"rt":3088.010000064969,"stimulus":"img/plane_alternate.jpg","response":"y","image":"img/plane_alternate.jpg","old_or_new":"new","task":"recognition","trial_type":"image-keyboard-response","trial_index":9,"time_elapsed":243421,"internal_node_id":"0.0-3.0-0.3","subject_id":"5b807fb716aa4400016a6f8e","study_id":"606233c0e42b980319b6a18e","session_id":"60885a976ad26441d6875600","correct":false},{"rt":1466.6100000031292,"stimulus":"\n      <p>How sure are you?</p>\n      <p>Rate your confidence in your answer from 1 (pure guess) to 5 (very sure) by pressing the corresponding button.</p>\n     ","response":2,"image":"img/plane_alternate.jpg","task":"confidence","old_or_new":"new","trial_type":"html-button-response","trial_index":10,"time_elapsed":244889,"internal_node_id":"0.0-3.0-1.3","subject_id":"5b807fb716aa4400016a6f8e","study_id":"606233c0e42b980319b6a18e","session_id":"60885a976ad26441d6875600"},{"rt":889.9250002577901,"stimulus":"img/rolling_pin.jpg","response":"y","image":"img/rolling_pin.jpg","old_or_new":"old","task":"recognition","trial_type":"image-keyboard-response","trial_index":11,"time_elapsed":246281,"internal_node_id":"0.0-3.0-0.4","subject_id":"5b807fb716aa4400016a6f8e","study_id":"606233c0e42b980319b6a18e","session_id":"60885a976ad26441d6875600","correct":true},{"rt":1223.1149999424815,"stimulus":"\n      <p>How sure are you?</p>\n      <p>Rate your confidence in your answer from 1 (pure guess) to 5 (very sure) by pressing the corresponding button.</p>\n     ","response":4,"image":"img/rolling_pin.jpg","task":"confidence","old_or_new":"old","trial_type":"html-button-response","trial_index":12,"time_elapsed":247506,"internal_node_id":"0.0-3.0-1.4","subject_id":"5b807fb716aa4400016a6f8e","study_id":"606233c0e42b980319b6a18e","session_id":"60885a976ad26441d6875600"},{"rt":678.9599996991456,"stimulus":"img/wheel_barrow.jpg","response":"y","image":"img/wheel_barrow.jpg","old_or_new":"old","task":"recognition","trial_type":"image-keyboard-response","trial_index":13,"time_elapsed":248687,"internal_node_id":"0.0-3.0-0.5","subject_id":"5b807fb716aa4400016a6f8e","study_id":"606233c0e42b980319b6a18e","session_id":"60885a976ad26441d6875600","correct":true},{"rt":1122.8350000455976,"stimulus":"\n      <p>How sure are you?</p>\n      <p>Rate your confidence in your answer from 1 (pure guess) to 5 (very sure) by pressing the corresponding button.</p>\n     ","response":4,"image":"img/wheel_barrow.jpg","task":"confidence","old_or_new":"old","trial_type":"html-button-response","trial_index":14,"time_elapsed":249811,"internal_node_id":"0.0-3.0-1.5","subject_id":"5b807fb716aa4400016a6f8e","study_id":"606233c0e42b980319b6a18e","session_id":"60885a976ad26441d6875600"},{"rt":722.4849998019636,"stimulus":"img/umbrella_alternate.jpg","response":"y","image":"img/umbrella_alternate.jpg","old_or_new":"new","task":"recognition","trial_type":"image-keyboard-response","trial_index":15,"time_elapsed":251036,"internal_node_id":"0.0-3.0-0.6","subject_id":"5b807fb716aa4400016a6f8e","study_id":"606233c0e42b980319b6a18e","session_id":"60885a976ad26441d6875600","correct":false},{"rt":1705.1199995912611,"stimulus":"\n      <p>How sure are you?</p>\n      <p>Rate your confidence in your answer from 1 (pure guess) to 5 (very sure) by pressing the corresponding button.</p>\n     ","response":4,"image":"img/umbrella_alternate.jpg","task":"confidence","old_or_new":"new","trial_type":"html-button-response","trial_index":16,"time_elapsed":252742,"internal_node_id":"0.0-3.0-1.6","subject_id":"5b807fb716aa4400016a6f8e","study_id":"606233c0e42b980319b6a18e","session_id":"60885a976ad26441d6875600"},{"rt":668.2400000281632,"stimulus":"img/tv.jpg","response":"y","image":"img/tv.jpg","old_or_new":"old","task":"recognition","trial_type":"image-keyboard-response","trial_index":17,"time_elapsed":253914,"internal_node_id":"0.0-3.0-0.7","subject_id":"5b807fb716aa4400016a6f8e","study_id":"606233c0e42b980319b6a18e","session_id":"60885a976ad26441d6875600","correct":true},{"rt":1158.8800000026822,"stimulus":"\n      <p>How sure are you?</p>\n      <p>Rate your confidence in your answer from 1 (pure guess) to 5 (very sure) by pressing the corresponding button.</p>\n     ","response":4,"image":"img/tv.jpg","task":"confidence","old_or_new":"old","trial_type":"html-button-response","trial_index":18,"time_elapsed":255074,"internal_node_id":"0.0-3.0-1.7","subject_id":"5b807fb716aa4400016a6f8e","study_id":"606233c0e42b980319b6a18e","session_id":"60885a976ad26441d6875600"},{"rt":1146.710000000894,"stimulus":"img/pencil_sharpener_alternate.jpg","response":"n","image":"img/pencil_sharpener_alternate.jpg","old_or_new":"new","task":"recognition","trial_type":"image-keyboard-response","trial_index":19,"time_elapsed":256723,"internal_node_id":"0.0-3.0-0.8","subject_id":"5b807fb716aa4400016a6f8e","study_id":"606233c0e42b980319b6a18e","session_id":"60885a976ad26441d6875600","correct":true},{"rt":1680.3200002759695,"stimulus":"\n      <p>How sure are you?</p>\n      <p>Rate your confidence in your answer from 1 (pure guess) to 5 (very sure) by pressing the corresponding button.</p>\n     ","response":4,"image":"img/pencil_sharpener_alternate.jpg","task":"confidence","old_or_new":"new","trial_type":"html-button-response","trial_index":20,"time_elapsed":258404,"internal_node_id":"0.0-3.0-1.8","subject_id":"5b807fb716aa4400016a6f8e","study_id":"606233c0e42b980319b6a18e","session_id":"60885a976ad26441d6875600"},{"rt":850.2700002864003,"stimulus":"img/toothbrush_alternate.jpg","response":"n","image":"img/toothbrush_alternate.jpg","old_or_new":"new","task":"recognition","trial_type":"image-keyboard-response","trial_index":21,"time_elapsed":259757,"internal_node_id":"0.0-3.0-0.9","subject_id":"5b807fb716aa4400016a6f8e","study_id":"606233c0e42b980319b6a18e","session_id":"60885a976ad26441d6875600","correct":true},{"rt":1483.039999846369,"stimulus":"\n      <p>How sure are you?</p>\n      <p>Rate your confidence in your answer from 1 (pure guess) to 5 (very sure) by pressing the corresponding button.</p>\n     ","response":4,"image":"img/toothbrush_alternate.jpg","task":"confidence","old_or_new":"new","trial_type":"html-button-response","trial_index":22,"time_elapsed":261242,"internal_node_id":"0.0-3.0-1.9","subject_id":"5b807fb716aa4400016a6f8e","study_id":"606233c0e42b980319b6a18e","session_id":"60885a976ad26441d6875600"},{"rt":860.4250000789762,"stimulus":"img/shoe.jpg","response":"y","image":"img/shoe.jpg","old_or_new":"old","task":"recognition","trial_type":"image-keyboard-response","trial_index":23,"time_elapsed":262604,"internal_node_id":"0.0-3.0-0.10","subject_id":"5b807fb716aa4400016a6f8e","study_id":"606233c0e42b980319b6a18e","session_id":"60885a976ad26441d6875600","correct":true},{"rt":1198.524999897927,"stimulus":"\n      <p>How sure are you?</p>\n      <p>Rate your confidence in your answer from 1 (pure guess) to 5 (very sure) by pressing the corresponding button.</p>\n     ","response":4,"image":"img/shoe.jpg","task":"confidence","old_or_new":"old","trial_type":"html-button-response","trial_index":24,"time_elapsed":263805,"internal_node_id":"0.0-3.0-1.10","subject_id":"5b807fb716aa4400016a6f8e","study_id":"606233c0e42b980319b6a18e","session_id":"60885a976ad26441d6875600"},{"rt":910.9149998985231,"stimulus":"img/skates_alternate.jpg","response":"y","image":"img/skates_alternate.jpg","old_or_new":"new","task":"recognition","trial_type":"image-keyboard-response","trial_index":25,"time_elapsed":265218,"internal_node_id":"0.0-3.0-0.11","subject_id":"5b807fb716aa4400016a6f8e","study_id":"606233c0e42b980319b6a18e","session_id":"60885a976ad26441d6875600","correct":false},{"rt":1557.1550000458956,"stimulus":"\n      <p>How sure are you?</p>\n      <p>Rate your confidence in your answer from 1 (pure guess) to 5 (very sure) by pressing the corresponding button.</p>\n     ","response":3,"image":"img/skates_alternate.jpg","task":"confidence","old_or_new":"new","trial_type":"html-button-response","trial_index":26,"time_elapsed":266776,"internal_node_id":"0.0-3.0-1.11","subject_id":"5b807fb716aa4400016a6f8e","study_id":"606233c0e42b980319b6a18e","session_id":"60885a976ad26441d6875600"},{"rt":1172.3650000058115,"stimulus":"img/knife_alternate.jpg","response":"y","image":"img/knife_alternate.jpg","old_or_new":"new","task":"recognition","trial_type":"image-keyboard-response","trial_index":27,"time_elapsed":268451,"internal_node_id":"0.0-3.0-0.12","subject_id":"5b807fb716aa4400016a6f8e","study_id":"606233c0e42b980319b6a18e","session_id":"60885a976ad26441d6875600","correct":false},{"rt":1178.5249998793006,"stimulus":"\n      <p>How sure are you?</p>\n      <p>Rate your confidence in your answer from 1 (pure guess) to 5 (very sure) by pressing the corresponding button.</p>\n     ","response":3,"image":"img/knife_alternate.jpg","task":"confidence","old_or_new":"new","trial_type":"html-button-response","trial_index":28,"time_elapsed":269631,"internal_node_id":"0.0-3.0-1.12","subject_id":"5b807fb716aa4400016a6f8e","study_id":"606233c0e42b980319b6a18e","session_id":"60885a976ad26441d6875600"},{"rt":1452.3100000806153,"stimulus":"img/pizza.jpg","response":"y","image":"img/pizza.jpg","old_or_new":"old","task":"recognition","trial_type":"image-keyboard-response","trial_index":29,"time_elapsed":271586,"internal_node_id":"0.0-3.0-0.13","subject_id":"5b807fb716aa4400016a6f8e","study_id":"606233c0e42b980319b6a18e","session_id":"60885a976ad26441d6875600","correct":true},{"rt":1600.550000090152,"stimulus":"\n      <p>How sure are you?</p>\n      <p>Rate your confidence in your answer from 1 (pure guess) to 5 (very sure) by pressing the corresponding button.</p>\n     ","response":4,"image":"img/pizza.jpg","task":"confidence","old_or_new":"old","trial_type":"html-button-response","trial_index":30,"time_elapsed":273188,"internal_node_id":"0.0-3.0-1.13","subject_id":"5b807fb716aa4400016a6f8e","study_id":"606233c0e42b980319b6a18e","session_id":"60885a976ad26441d6875600"},{"rt":818.8400003127754,"stimulus":"img/spoon.jpg","response":"n","image":"img/spoon.jpg","old_or_new":"old","task":"recognition","trial_type":"image-keyboard-response","trial_index":31,"time_elapsed":274509,"internal_node_id":"0.0-3.0-0.14","subject_id":"5b807fb716aa4400016a6f8e","study_id":"606233c0e42b980319b6a18e","session_id":"60885a976ad26441d6875600","correct":false},{"rt":1253.8600000552833,"stimulus":"\n      <p>How sure are you?</p>\n      <p>Rate your confidence in your answer from 1 (pure guess) to 5 (very sure) by pressing the corresponding button.</p>\n     ","response":4,"image":"img/spoon.jpg","task":"confidence","old_or_new":"old","trial_type":"html-button-response","trial_index":32,"time_elapsed":275764,"internal_node_id":"0.0-3.0-1.14","subject_id":"5b807fb716aa4400016a6f8e","study_id":"606233c0e42b980319b6a18e","session_id":"60885a976ad26441d6875600"},{"rt":1302.4100000038743,"stimulus":"img/seashell_alternate.jpg","response":"n","image":"img/seashell_alternate.jpg","old_or_new":"new","task":"recognition","trial_type":"image-keyboard-response","trial_index":33,"time_elapsed":277568,"internal_node_id":"0.0-3.0-0.15","subject_id":"5b807fb716aa4400016a6f8e","study_id":"606233c0e42b980319b6a18e","session_id":"60885a976ad26441d6875600","correct":true},{"rt":1114.5549998618662,"stimulus":"\n      <p>How sure are you?</p>\n      <p>Rate your confidence in your answer from 1 (pure guess) to 5 (very sure) by pressing the corresponding button.</p>\n     ","response":4,"image":"img/seashell_alternate.jpg","task":"confidence","old_or_new":"new","trial_type":"html-button-response","trial_index":34,"time_elapsed":278685,"internal_node_id":"0.0-3.0-1.15","subject_id":"5b807fb716aa4400016a6f8e","study_id":"606233c0e42b980319b6a18e","session_id":"60885a976ad26441d6875600"},{"rt":1552.0199998281896,"stimulus":"img/scissors_alternate.jpg","response":"n","image":"img/scissors_alternate.jpg","old_or_new":"new","task":"recognition","trial_type":"image-keyboard-response","trial_index":35,"time_elapsed":280738,"internal_node_id":"0.0-3.0-0.16","subject_id":"5b807fb716aa4400016a6f8e","study_id":"606233c0e42b980319b6a18e","session_id":"60885a976ad26441d6875600","correct":true},{"rt":1165.3500003740191,"stimulus":"\n      <p>How sure are you?</p>\n      <p>Rate your confidence in your answer from 1 (pure guess) to 5 (very sure) by pressing the corresponding button.</p>\n     ","response":3,"image":"img/scissors_alternate.jpg","task":"confidence","old_or_new":"new","trial_type":"html-button-response","trial_index":36,"time_elapsed":281905,"internal_node_id":"0.0-3.0-1.16","subject_id":"5b807fb716aa4400016a6f8e","study_id":"606233c0e42b980319b6a18e","session_id":"60885a976ad26441d6875600"},{"rt":1562.6399996690452,"stimulus":"img/power_cord_alternate.jpg","response":"y","image":"img/power_cord_alternate.jpg","old_or_new":"new","task":"recognition","trial_type":"image-keyboard-response","trial_index":37,"time_elapsed":283971,"internal_node_id":"0.0-3.0-0.17","subject_id":"5b807fb716aa4400016a6f8e","study_id":"606233c0e42b980319b6a18e","session_id":"60885a976ad26441d6875600","correct":false},{"rt":1282.9200001433492,"stimulus":"\n      <p>How sure are you?</p>\n      <p>Rate your confidence in your answer from 1 (pure guess) to 5 (very sure) by pressing the corresponding button.</p>\n     ","response":2,"image":"img/power_cord_alternate.jpg","task":"confidence","old_or_new":"new","trial_type":"html-button-response","trial_index":38,"time_elapsed":285255,"internal_node_id":"0.0-3.0-1.17","subject_id":"5b807fb716aa4400016a6f8e","study_id":"606233c0e42b980319b6a18e","session_id":"60885a976ad26441d6875600"},{"rt":1098.5900000669062,"stimulus":"img/watch_alternate.jpg","response":"n","image":"img/watch_alternate.jpg","old_or_new":"new","task":"recognition","trial_type":"image-keyboard-response","trial_index":39,"time_elapsed":286856,"internal_node_id":"0.0-3.0-0.18","subject_id":"5b807fb716aa4400016a6f8e","study_id":"606233c0e42b980319b6a18e","session_id":"60885a976ad26441d6875600","correct":true},{"rt":1234.5699998550117,"stimulus":"\n      <p>How sure are you?</p>\n      <p>Rate your confidence in your answer from 1 (pure guess) to 5 (very sure) by pressing the corresponding button.</p>\n     ","response":2,"image":"img/watch_alternate.jpg","task":"confidence","old_or_new":"new","trial_type":"html-button-response","trial_index":40,"time_elapsed":288092,"internal_node_id":"0.0-3.0-1.18","subject_id":"5b807fb716aa4400016a6f8e","study_id":"606233c0e42b980319b6a18e","session_id":"60885a976ad26441d6875600"},{"rt":846.1649999953806,"stimulus":"img/shoe_alternate.jpg","response":"n","image":"img/shoe_alternate.jpg","old_or_new":"new","task":"recognition","trial_type":"image-keyboard-response","trial_index":41,"time_elapsed":289440,"internal_node_id":"0.0-3.0-0.19","subject_id":"5b807fb716aa4400016a6f8e","study_id":"606233c0e42b980319b6a18e","session_id":"60885a976ad26441d6875600","correct":true},{"rt":1749.6350002475083,"stimulus":"\n      <p>How sure are you?</p>\n      <p>Rate your confidence in your answer from 1 (pure guess) to 5 (very sure) by pressing the corresponding button.</p>\n     ","response":2,"image":"img/shoe_alternate.jpg","task":"confidence","old_or_new":"new","trial_type":"html-button-response","trial_index":42,"time_elapsed":291191,"internal_node_id":"0.0-3.0-1.19","subject_id":"5b807fb716aa4400016a6f8e","study_id":"606233c0e42b980319b6a18e","session_id":"60885a976ad26441d6875600"},{"rt":900.6300000473857,"stimulus":"img/watch.jpg","response":"y","image":"img/watch.jpg","old_or_new":"old","task":"recognition","trial_type":"image-keyboard-response","trial_index":43,"time_elapsed":292594,"internal_node_id":"0.0-3.0-0.20","subject_id":"5b807fb716aa4400016a6f8e","study_id":"606233c0e42b980319b6a18e","session_id":"60885a976ad26441d6875600","correct":true},{"rt":1830.4400001652539,"stimulus":"\n      <p>How sure are you?</p>\n      <p>Rate your confidence in your answer from 1 (pure guess) to 5 (very sure) by pressing the corresponding button.</p>\n     ","response":4,"image":"img/watch.jpg","task":"confidence","old_or_new":"old","trial_type":"html-button-response","trial_index":44,"time_elapsed":294425,"internal_node_id":"0.0-3.0-1.20","subject_id":"5b807fb716aa4400016a6f8e","study_id":"606233c0e42b980319b6a18e","session_id":"60885a976ad26441d6875600"},{"rt":658.3600002340972,"stimulus":"img/power_cord.jpg","response":"y","image":"img/power_cord.jpg","old_or_new":"old","task":"recognition","trial_type":"image-keyboard-response","trial_index":45,"time_elapsed":295585,"internal_node_id":"0.0-3.0-0.21","subject_id":"5b807fb716aa4400016a6f8e","study_id":"606233c0e42b980319b6a18e","session_id":"60885a976ad26441d6875600","correct":true},{"rt":1634.1650001704693,"stimulus":"\n      <p>How sure are you?</p>\n      <p>Rate your confidence in your answer from 1 (pure guess) to 5 (very sure) by pressing the corresponding button.</p>\n     ","response":4,"image":"img/power_cord.jpg","task":"confidence","old_or_new":"old","trial_type":"html-button-response","trial_index":46,"time_elapsed":297221,"internal_node_id":"0.0-3.0-1.21","subject_id":"5b807fb716aa4400016a6f8e","study_id":"606233c0e42b980319b6a18e","session_id":"60885a976ad26441d6875600"},{"rt":1032.0649999193847,"stimulus":"img/trophy_alternate.jpg","response":"y","image":"img/trophy_alternate.jpg","old_or_new":"new","task":"recognition","trial_type":"image-keyboard-response","trial_index":47,"time_elapsed":298756,"internal_node_id":"0.0-3.0-0.22","subject_id":"5b807fb716aa4400016a6f8e","study_id":"606233c0e42b980319b6a18e","session_id":"60885a976ad26441d6875600","correct":false},{"rt":1878.8999998942018,"stimulus":"\n      <p>How sure are you?</p>\n      <p>Rate your confidence in your answer from 1 (pure guess) to 5 (very sure) by pressing the corresponding button.</p>\n     ","response":4,"image":"img/trophy_alternate.jpg","task":"confidence","old_or_new":"new","trial_type":"html-button-response","trial_index":48,"time_elapsed":300637,"internal_node_id":"0.0-3.0-1.22","subject_id":"5b807fb716aa4400016a6f8e","study_id":"606233c0e42b980319b6a18e","session_id":"60885a976ad26441d6875600"},{"rt":767.2699997201562,"stimulus":"img/plane.jpg","response":"y","image":"img/plane.jpg","old_or_new":"old","task":"recognition","trial_type":"image-keyboard-response","trial_index":49,"time_elapsed":301906,"internal_node_id":"0.0-3.0-0.23","subject_id":"5b807fb716aa4400016a6f8e","study_id":"606233c0e42b980319b6a18e","session_id":"60885a976ad26441d6875600","correct":true},{"rt":1636.019999627024,"stimulus":"\n      <p>How sure are you?</p>\n      <p>Rate your confidence in your answer from 1 (pure guess) to 5 (very sure) by pressing the corresponding button.</p>\n     ","response":4,"image":"img/plane.jpg","task":"confidence","old_or_new":"old","trial_type":"html-button-response","trial_index":50,"time_elapsed":303543,"internal_node_id":"0.0-3.0-1.23","subject_id":"5b807fb716aa4400016a6f8e","study_id":"606233c0e42b980319b6a18e","session_id":"60885a976ad26441d6875600"},{"rt":1091.1550000309944,"stimulus":"img/spoon_alternate.jpg","response":"n","image":"img/spoon_alternate.jpg","old_or_new":"new","task":"recognition","trial_type":"image-keyboard-response","trial_index":51,"time_elapsed":305136,"internal_node_id":"0.0-3.0-0.24","subject_id":"5b807fb716aa4400016a6f8e","study_id":"606233c0e42b980319b6a18e","session_id":"60885a976ad26441d6875600","correct":true},{"rt":2072.9050002992153,"stimulus":"\n      <p>How sure are you?</p>\n      <p>Rate your confidence in your answer from 1 (pure guess) to 5 (very sure) by pressing the corresponding button.</p>\n     ","response":2,"image":"img/spoon_alternate.jpg","task":"confidence","old_or_new":"new","trial_type":"html-button-response","trial_index":52,"time_elapsed":307211,"internal_node_id":"0.0-3.0-1.24","subject_id":"5b807fb716aa4400016a6f8e","study_id":"606233c0e42b980319b6a18e","session_id":"60885a976ad26441d6875600"},{"rt":1182.8850000165403,"stimulus":"img/pizza_alternate.jpg","response":"n","image":"img/pizza_alternate.jpg","old_or_new":"new","task":"recognition","trial_type":"image-keyboard-response","trial_index":53,"time_elapsed":308904,"internal_node_id":"0.0-3.0-0.25","subject_id":"5b807fb716aa4400016a6f8e","study_id":"606233c0e42b980319b6a18e","session_id":"60885a976ad26441d6875600","correct":true},{"rt":1375.35999994725,"stimulus":"\n      <p>How sure are you?</p>\n      <p>Rate your confidence in your answer from 1 (pure guess) to 5 (very sure) by pressing the corresponding button.</p>\n     ","response":4,"image":"img/pizza_alternate.jpg","task":"confidence","old_or_new":"new","trial_type":"html-button-response","trial_index":54,"time_elapsed":310280,"internal_node_id":"0.0-3.0-1.25","subject_id":"5b807fb716aa4400016a6f8e","study_id":"606233c0e42b980319b6a18e","session_id":"60885a976ad26441d6875600"},{"rt":2100.5899999290705,"stimulus":"img/seashell.jpg","response":"y","image":"img/seashell.jpg","old_or_new":"old","task":"recognition","trial_type":"image-keyboard-response","trial_index":55,"time_elapsed":312888,"internal_node_id":"0.0-3.0-0.26","subject_id":"5b807fb716aa4400016a6f8e","study_id":"606233c0e42b980319b6a18e","session_id":"60885a976ad26441d6875600","correct":true},{"rt":1450.7049997337162,"stimulus":"\n      <p>How sure are you?</p>\n      <p>Rate your confidence in your answer from 1 (pure guess) to 5 (very sure) by pressing the corresponding button.</p>\n     ","response":4,"image":"img/seashell.jpg","task":"confidence","old_or_new":"old","trial_type":"html-button-response","trial_index":56,"time_elapsed":314340,"internal_node_id":"0.0-3.0-1.26","subject_id":"5b807fb716aa4400016a6f8e","study_id":"606233c0e42b980319b6a18e","session_id":"60885a976ad26441d6875600"},{"rt":1559.9549999460578,"stimulus":"img/knife.jpg","response":"n","image":"img/knife.jpg","old_or_new":"old","task":"recognition","trial_type":"image-keyboard-response","trial_index":57,"time_elapsed":316414,"internal_node_id":"0.0-3.0-0.27","subject_id":"5b807fb716aa4400016a6f8e","study_id":"606233c0e42b980319b6a18e","session_id":"60885a976ad26441d6875600","correct":false},{"rt":1315.2750004082918,"stimulus":"\n      <p>How sure are you?</p>\n      <p>Rate your confidence in your answer from 1 (pure guess) to 5 (very sure) by pressing the corresponding button.</p>\n     ","response":3,"image":"img/knife.jpg","task":"confidence","old_or_new":"old","trial_type":"html-button-response","trial_index":58,"time_elapsed":317730,"internal_node_id":"0.0-3.0-1.27","subject_id":"5b807fb716aa4400016a6f8e","study_id":"606233c0e42b980319b6a18e","session_id":"60885a976ad26441d6875600"},{"rt":1269.3000002764165,"stimulus":"img/tv_alternate.jpg","response":"n","image":"img/tv_alternate.jpg","old_or_new":"new","task":"recognition","trial_type":"image-keyboard-response","trial_index":59,"time_elapsed":319507,"internal_node_id":"0.0-3.0-0.28","subject_id":"5b807fb716aa4400016a6f8e","study_id":"606233c0e42b980319b6a18e","session_id":"60885a976ad26441d6875600","correct":true},{"rt":1652.025000192225,"stimulus":"\n      <p>How sure are you?</p>\n      <p>Rate your confidence in your answer from 1 (pure guess) to 5 (very sure) by pressing the corresponding button.</p>\n     ","response":3,"image":"img/tv_alternate.jpg","task":"confidence","old_or_new":"new","trial_type":"html-button-response","trial_index":60,"time_elapsed":321161,"internal_node_id":"0.0-3.0-1.28","subject_id":"5b807fb716aa4400016a6f8e","study_id":"606233c0e42b980319b6a18e","session_id":"60885a976ad26441d6875600"},{"rt":1365.4100000858307,"stimulus":"img/toaster_alternate.jpg","response":"y","image":"img/toaster_alternate.jpg","old_or_new":"new","task":"recognition","trial_type":"image-keyboard-response","trial_index":61,"time_elapsed":323037,"internal_node_id":"0.0-3.0-0.29","subject_id":"5b807fb716aa4400016a6f8e","study_id":"606233c0e42b980319b6a18e","session_id":"60885a976ad26441d6875600","correct":false},{"rt":1642.4400000832975,"stimulus":"\n      <p>How sure are you?</p>\n      <p>Rate your confidence in your answer from 1 (pure guess) to 5 (very sure) by pressing the corresponding button.</p>\n     ","response":3,"image":"img/toaster_alternate.jpg","task":"confidence","old_or_new":"new","trial_type":"html-button-response","trial_index":62,"time_elapsed":324680,"internal_node_id":"0.0-3.0-1.29","subject_id":"5b807fb716aa4400016a6f8e","study_id":"606233c0e42b980319b6a18e","session_id":"60885a976ad26441d6875600"},{"rt":720.339999999851,"stimulus":"img/plate.jpg","response":"y","image":"img/plate.jpg","old_or_new":"old","task":"recognition","trial_type":"image-keyboard-response","trial_index":63,"time_elapsed":325908,"internal_node_id":"0.0-3.0-0.30","subject_id":"5b807fb716aa4400016a6f8e","study_id":"606233c0e42b980319b6a18e","session_id":"60885a976ad26441d6875600","correct":true},{"rt":649.720000103116,"stimulus":"\n      <p>How sure are you?</p>\n      <p>Rate your confidence in your answer from 1 (pure guess) to 5 (very sure) by pressing the corresponding button.</p>\n     ","response":3,"image":"img/plate.jpg","task":"confidence","old_or_new":"old","trial_type":"html-button-response","trial_index":64,"time_elapsed":326560,"internal_node_id":"0.0-3.0-1.30","subject_id":"5b807fb716aa4400016a6f8e","study_id":"606233c0e42b980319b6a18e","session_id":"60885a976ad26441d6875600"},{"rt":1004.9800002016127,"stimulus":"img/scissors.jpg","response":"y","image":"img/scissors.jpg","old_or_new":"old","task":"recognition","trial_type":"image-keyboard-response","trial_index":65,"time_elapsed":328075,"internal_node_id":"0.0-3.0-0.31","subject_id":"5b807fb716aa4400016a6f8e","study_id":"606233c0e42b980319b6a18e","session_id":"60885a976ad26441d6875600","correct":true},{"rt":1632.775000296533,"stimulus":"\n      <p>How sure are you?</p>\n      <p>Rate your confidence in your answer from 1 (pure guess) to 5 (very sure) by pressing the corresponding button.</p>\n     ","response":2,"image":"img/scissors.jpg","task":"confidence","old_or_new":"old","trial_type":"html-button-response","trial_index":66,"time_elapsed":329710,"internal_node_id":"0.0-3.0-1.31","subject_id":"5b807fb716aa4400016a6f8e","study_id":"606233c0e42b980319b6a18e","session_id":"60885a976ad26441d6875600"},{"rt":1161.9099997915328,"stimulus":"img/toothbrush.jpg","response":"n","image":"img/toothbrush.jpg","old_or_new":"old","task":"recognition","trial_type":"image-keyboard-response","trial_index":67,"time_elapsed":331382,"internal_node_id":"0.0-3.0-0.32","subject_id":"5b807fb716aa4400016a6f8e","study_id":"606233c0e42b980319b6a18e","session_id":"60885a976ad26441d6875600","correct":false},{"rt":1775.6699998863041,"stimulus":"\n      <p>How sure are you?</p>\n      <p>Rate your confidence in your answer from 1 (pure guess) to 5 (very sure) by pressing the corresponding button.</p>\n     ","response":2,"image":"img/toothbrush.jpg","task":"confidence","old_or_new":"old","trial_type":"html-button-response","trial_index":68,"time_elapsed":333159,"internal_node_id":"0.0-3.0-1.32","subject_id":"5b807fb716aa4400016a6f8e","study_id":"606233c0e42b980319b6a18e","session_id":"60885a976ad26441d6875600"},{"rt":1095.6399999558926,"stimulus":"img/umbrella.jpg","response":"y","image":"img/umbrella.jpg","old_or_new":"old","task":"recognition","trial_type":"image-keyboard-response","trial_index":69,"time_elapsed":334766,"internal_node_id":"0.0-3.0-0.33","subject_id":"5b807fb716aa4400016a6f8e","study_id":"606233c0e42b980319b6a18e","session_id":"60885a976ad26441d6875600","correct":true},{"rt":1361.2999999895692,"stimulus":"\n      <p>How sure are you?</p>\n      <p>Rate your confidence in your answer from 1 (pure guess) to 5 (very sure) by pressing the corresponding button.</p>\n     ","response":2,"image":"img/umbrella.jpg","task":"confidence","old_or_new":"old","trial_type":"html-button-response","trial_index":70,"time_elapsed":336129,"internal_node_id":"0.0-3.0-1.33","subject_id":"5b807fb716aa4400016a6f8e","study_id":"606233c0e42b980319b6a18e","session_id":"60885a976ad26441d6875600"},{"rt":2065.7249996438622,"stimulus":"img/shirt.jpg","response":"n","image":"img/shirt.jpg","old_or_new":"old","task":"recognition","trial_type":"image-keyboard-response","trial_index":71,"time_elapsed":338703,"internal_node_id":"0.0-3.0-0.34","subject_id":"5b807fb716aa4400016a6f8e","study_id":"606233c0e42b980319b6a18e","session_id":"60885a976ad26441d6875600","correct":false},{"rt":1385.0899999961257,"stimulus":"\n      <p>How sure are you?</p>\n      <p>Rate your confidence in your answer from 1 (pure guess) to 5 (very sure) by pressing the corresponding button.</p>\n     ","response":2,"image":"img/shirt.jpg","task":"confidence","old_or_new":"old","trial_type":"html-button-response","trial_index":72,"time_elapsed":340089,"internal_node_id":"0.0-3.0-1.34","subject_id":"5b807fb716aa4400016a6f8e","study_id":"606233c0e42b980319b6a18e","session_id":"60885a976ad26441d6875600"},{"rt":9750.969999935478,"stimulus":"img/plate_alternate.jpg","response":"n","image":"img/plate_alternate.jpg","old_or_new":"new","task":"recognition","trial_type":"image-keyboard-response","trial_index":73,"time_elapsed":350355,"internal_node_id":"0.0-3.0-0.35","subject_id":"5b807fb716aa4400016a6f8e","study_id":"606233c0e42b980319b6a18e","session_id":"60885a976ad26441d6875600","correct":true},{"rt":1353.0399999581277,"stimulus":"\n      <p>How sure are you?</p>\n      <p>Rate your confidence in your answer from 1 (pure guess) to 5 (very sure) by pressing the corresponding button.</p>\n     ","response":2,"image":"img/plate_alternate.jpg","task":"confidence","old_or_new":"new","trial_type":"html-button-response","trial_index":74,"time_elapsed":351709,"internal_node_id":"0.0-3.0-1.35","subject_id":"5b807fb716aa4400016a6f8e","study_id":"606233c0e42b980319b6a18e","session_id":"60885a976ad26441d6875600"},{"rt":1255.5800001136959,"stimulus":"img/skates.jpg","response":"n","image":"img/skates.jpg","old_or_new":"old","task":"recognition","trial_type":"image-keyboard-response","trial_index":75,"time_elapsed":353477,"internal_node_id":"0.0-3.0-0.36","subject_id":"5b807fb716aa4400016a6f8e","study_id":"606233c0e42b980319b6a18e","session_id":"60885a976ad26441d6875600","correct":false},{"rt":1581.6049999557436,"stimulus":"\n      <p>How sure are you?</p>\n      <p>Rate your confidence in your answer from 1 (pure guess) to 5 (very sure) by pressing the corresponding button.</p>\n     ","response":2,"image":"img/skates.jpg","task":"confidence","old_or_new":"old","trial_type":"html-button-response","trial_index":76,"time_elapsed":355059,"internal_node_id":"0.0-3.0-1.36","subject_id":"5b807fb716aa4400016a6f8e","study_id":"606233c0e42b980319b6a18e","session_id":"60885a976ad26441d6875600"},{"rt":765.3399999253452,"stimulus":"img/wheel_barrow_alternate.jpg","response":"y","image":"img/wheel_barrow_alternate.jpg","old_or_new":"new","task":"recognition","trial_type":"image-keyboard-response","trial_index":77,"time_elapsed":356336,"internal_node_id":"0.0-3.0-0.37","subject_id":"5b807fb716aa4400016a6f8e","study_id":"606233c0e42b980319b6a18e","session_id":"60885a976ad26441d6875600","correct":false},{"rt":1421.440000180155,"stimulus":"\n      <p>How sure are you?</p>\n      <p>Rate your confidence in your answer from 1 (pure guess) to 5 (very sure) by pressing the corresponding button.</p>\n     ","response":4,"image":"img/wheel_barrow_alternate.jpg","task":"confidence","old_or_new":"new","trial_type":"html-button-response","trial_index":78,"time_elapsed":357759,"internal_node_id":"0.0-3.0-1.37","subject_id":"5b807fb716aa4400016a6f8e","study_id":"606233c0e42b980319b6a18e","session_id":"60885a976ad26441d6875600"},{"rt":1966.5350001305342,"stimulus":"img/shovel_alternate.jpg","response":"y","image":"img/shovel_alternate.jpg","old_or_new":"new","task":"recognition","trial_type":"image-keyboard-response","trial_index":79,"time_elapsed":360237,"internal_node_id":"0.0-3.0-0.38","subject_id":"5b807fb716aa4400016a6f8e","study_id":"606233c0e42b980319b6a18e","session_id":"60885a976ad26441d6875600","correct":false},{"rt":1548.6699999310076,"stimulus":"\n      <p>How sure are you?</p>\n      <p>Rate your confidence in your answer from 1 (pure guess) to 5 (very sure) by pressing the corresponding button.</p>\n     ","response":4,"image":"img/shovel_alternate.jpg","task":"confidence","old_or_new":"new","trial_type":"html-button-response","trial_index":80,"time_elapsed":361789,"internal_node_id":"0.0-3.0-1.38","subject_id":"5b807fb716aa4400016a6f8e","study_id":"606233c0e42b980319b6a18e","session_id":"60885a976ad26441d6875600"},{"rt":1185.4999996721745,"stimulus":"img/parfait_alternate.jpg","response":"n","image":"img/parfait_alternate.jpg","old_or_new":"new","task":"recognition","trial_type":"image-keyboard-response","trial_index":81,"time_elapsed":363490,"internal_node_id":"0.0-3.0-0.39","subject_id":"5b807fb716aa4400016a6f8e","study_id":"606233c0e42b980319b6a18e","session_id":"60885a976ad26441d6875600","correct":true},{"rt":1488.329999614507,"stimulus":"\n      <p>How sure are you?</p>\n      <p>Rate your confidence in your answer from 1 (pure guess) to 5 (very sure) by pressing the corresponding button.</p>\n     ","response":3,"image":"img/parfait_alternate.jpg","task":"confidence","old_or_new":"new","trial_type":"html-button-response","trial_index":82,"time_elapsed":364979,"internal_node_id":"0.0-3.0-1.39","subject_id":"5b807fb716aa4400016a6f8e","study_id":"606233c0e42b980319b6a18e","session_id":"60885a976ad26441d6875600"},{"rt":896.3399999774992,"stimulus":"img/shovel.jpg","response":"y","image":"img/shovel.jpg","old_or_new":"old","task":"recognition","trial_type":"image-keyboard-response","trial_index":83,"time_elapsed":366384,"internal_node_id":"0.0-3.0-0.40","subject_id":"5b807fb716aa4400016a6f8e","study_id":"606233c0e42b980319b6a18e","session_id":"60885a976ad26441d6875600","correct":true},{"rt":1243.6199998483062,"stimulus":"\n      <p>How sure are you?</p>\n      <p>Rate your confidence in your answer from 1 (pure guess) to 5 (very sure) by pressing the corresponding button.</p>\n     ","response":4,"image":"img/shovel.jpg","task":"confidence","old_or_new":"old","trial_type":"html-button-response","trial_index":84,"time_elapsed":367629,"internal_node_id":"0.0-3.0-1.40","subject_id":"5b807fb716aa4400016a6f8e","study_id":"606233c0e42b980319b6a18e","session_id":"60885a976ad26441d6875600"},{"rt":749.1700001992285,"stimulus":"img/yarn.jpg","response":"y","image":"img/yarn.jpg","old_or_new":"old","task":"recognition","trial_type":"image-keyboard-response","trial_index":85,"time_elapsed":368888,"internal_node_id":"0.0-3.0-0.41","subject_id":"5b807fb716aa4400016a6f8e","study_id":"606233c0e42b980319b6a18e","session_id":"60885a976ad26441d6875600","correct":true},{"rt":1340.2849999256432,"stimulus":"\n      <p>How sure are you?</p>\n      <p>Rate your confidence in your answer from 1 (pure guess) to 5 (very sure) by pressing the corresponding button.</p>\n     ","response":4,"image":"img/yarn.jpg","task":"confidence","old_or_new":"old","trial_type":"html-button-response","trial_index":86,"time_elapsed":370229,"internal_node_id":"0.0-3.0-1.41","subject_id":"5b807fb716aa4400016a6f8e","study_id":"606233c0e42b980319b6a18e","session_id":"60885a976ad26441d6875600"},{"rt":782.2600002400577,"stimulus":"img/shirt_alternate.jpg","response":"n","image":"img/shirt_alternate.jpg","old_or_new":"new","task":"recognition","trial_type":"image-keyboard-response","trial_index":87,"time_elapsed":371520,"internal_node_id":"0.0-3.0-0.42","subject_id":"5b807fb716aa4400016a6f8e","study_id":"606233c0e42b980319b6a18e","session_id":"60885a976ad26441d6875600","correct":true},{"rt":1138.065000064671,"stimulus":"\n      <p>How sure are you?</p>\n      <p>Rate your confidence in your answer from 1 (pure guess) to 5 (very sure) by pressing the corresponding button.</p>\n     ","response":4,"image":"img/shirt_alternate.jpg","task":"confidence","old_or_new":"new","trial_type":"html-button-response","trial_index":88,"time_elapsed":372659,"internal_node_id":"0.0-3.0-1.42","subject_id":"5b807fb716aa4400016a6f8e","study_id":"606233c0e42b980319b6a18e","session_id":"60885a976ad26441d6875600"},{"rt":1129.6549998223782,"stimulus":"img/pencil_sharpener.jpg","response":"y","image":"img/pencil_sharpener.jpg","old_or_new":"old","task":"recognition","trial_type":"image-keyboard-response","trial_index":89,"time_elapsed":374300,"internal_node_id":"0.0-3.0-0.43","subject_id":"5b807fb716aa4400016a6f8e","study_id":"606233c0e42b980319b6a18e","session_id":"60885a976ad26441d6875600","correct":true},{"rt":1077.9000003822148,"stimulus":"\n      <p>How sure are you?</p>\n      <p>Rate your confidence in your answer from 1 (pure guess) to 5 (very sure) by pressing the corresponding button.</p>\n     ","response":4,"image":"img/pencil_sharpener.jpg","task":"confidence","old_or_new":"old","trial_type":"html-button-response","trial_index":90,"time_elapsed":375379,"internal_node_id":"0.0-3.0-1.43","subject_id":"5b807fb716aa4400016a6f8e","study_id":"606233c0e42b980319b6a18e","session_id":"60885a976ad26441d6875600"},{"rt":1521.9500004313886,"stimulus":"img/sink_alternate.jpg","response":"n","image":"img/sink_alternate.jpg","old_or_new":"new","task":"recognition","trial_type":"image-keyboard-response","trial_index":91,"time_elapsed":377410,"internal_node_id":"0.0-3.0-0.44","subject_id":"5b807fb716aa4400016a6f8e","study_id":"606233c0e42b980319b6a18e","session_id":"60885a976ad26441d6875600","correct":true},{"rt":1477.669999934733,"stimulus":"\n      <p>How sure are you?</p>\n      <p>Rate your confidence in your answer from 1 (pure guess) to 5 (very sure) by pressing the corresponding button.</p>\n     ","response":1,"image":"img/sink_alternate.jpg","task":"confidence","old_or_new":"new","trial_type":"html-button-response","trial_index":92,"time_elapsed":378889,"internal_node_id":"0.0-3.0-1.44","subject_id":"5b807fb716aa4400016a6f8e","study_id":"606233c0e42b980319b6a18e","session_id":"60885a976ad26441d6875600"},{"rt":676.2000001035631,"stimulus":"img/trophy.jpg","response":"y","image":"img/trophy.jpg","old_or_new":"old","task":"recognition","trial_type":"image-keyboard-response","trial_index":93,"time_elapsed":380081,"internal_node_id":"0.0-3.0-0.45","subject_id":"5b807fb716aa4400016a6f8e","study_id":"606233c0e42b980319b6a18e","session_id":"60885a976ad26441d6875600","correct":true},{"rt":1746.830000076443,"stimulus":"\n      <p>How sure are you?</p>\n      <p>Rate your confidence in your answer from 1 (pure guess) to 5 (very sure) by pressing the corresponding button.</p>\n     ","response":4,"image":"img/trophy.jpg","task":"confidence","old_or_new":"old","trial_type":"html-button-response","trial_index":94,"time_elapsed":381829,"internal_node_id":"0.0-3.0-1.45","subject_id":"5b807fb716aa4400016a6f8e","study_id":"606233c0e42b980319b6a18e","session_id":"60885a976ad26441d6875600"},{"rt":857.4699996970594,"stimulus":"img/parfait.jpg","response":"y","image":"img/parfait.jpg","old_or_new":"old","task":"recognition","trial_type":"image-keyboard-response","trial_index":95,"time_elapsed":383196,"internal_node_id":"0.0-3.0-0.46","subject_id":"5b807fb716aa4400016a6f8e","study_id":"606233c0e42b980319b6a18e","session_id":"60885a976ad26441d6875600","correct":true},{"rt":1112.7800000831485,"stimulus":"\n      <p>How sure are you?</p>\n      <p>Rate your confidence in your answer from 1 (pure guess) to 5 (very sure) by pressing the corresponding button.</p>\n     ","response":4,"image":"img/parfait.jpg","task":"confidence","old_or_new":"old","trial_type":"html-button-response","trial_index":96,"time_elapsed":384310,"internal_node_id":"0.0-3.0-1.46","subject_id":"5b807fb716aa4400016a6f8e","study_id":"606233c0e42b980319b6a18e","session_id":"60885a976ad26441d6875600"},{"rt":593.860000371933,"stimulus":"img/toaster.jpg","response":"y","image":"img/toaster.jpg","old_or_new":"old","task":"recognition","trial_type":"image-keyboard-response","trial_index":97,"time_elapsed":385415,"internal_node_id":"0.0-3.0-0.47","subject_id":"5b807fb716aa4400016a6f8e","study_id":"606233c0e42b980319b6a18e","session_id":"60885a976ad26441d6875600","correct":true},{"rt":1062.8749998286366,"stimulus":"\n      <p>How sure are you?</p>\n      <p>Rate your confidence in your answer from 1 (pure guess) to 5 (very sure) by pressing the corresponding button.</p>\n     ","response":4,"image":"img/toaster.jpg","task":"confidence","old_or_new":"old","trial_type":"html-button-response","trial_index":98,"time_elapsed":386479,"internal_node_id":"0.0-3.0-1.47","subject_id":"5b807fb716aa4400016a6f8e","study_id":"606233c0e42b980319b6a18e","session_id":"60885a976ad26441d6875600"}]