[{"success":true,"timeout":false,"failed_images":[],"failed_audio":[],"failed_video":[],"trial_type":"preload","trial_index":0,"time_elapsed":5663,"internal_node_id":"0.0-0.0","subject_id":"601e093a31a2902413e15c08","study_id":"607de2837874a824e2e8c6ec","session_id":"6088600d89762158fa3ffd1d"},{"rt":51833.02499999991,"stimulus":"\n      <div style=\"width:800px; text-align: left;\">\n        <p>Welcome to day 2 of the experiment! Thanks for coming back.</p>\n        <p>You will be presented with a series of images. Images will appear one at a time.</p>\n        <p>Each image will remain on the screen until you press either <span style=\"font-weight: bold;\">\"y\" to indicate you have seen the \n        exact same photo the day before or \"n\" to indicate you have not seen the exact same photo the day before.</span></p>\n        <p>After you answer yes (\"y\") or no (\"n\"), you will then be prompted to rate your certainty on a scale of\n        1 (pure guess) to 5 (very sure).</p>\n      </div>\n    ","response":0,"trial_type":"html-button-response","trial_index":1,"time_elapsed":57499,"internal_node_id":"0.0-1.0","subject_id":"601e093a31a2902413e15c08","study_id":"607de2837874a824e2e8c6ec","session_id":"6088600d89762158fa3ffd1d"},{"success":true,"trial_type":"fullscreen","trial_index":2,"time_elapsed":60839,"internal_node_id":"0.0-2.0","subject_id":"601e093a31a2902413e15c08","study_id":"607de2837874a824e2e8c6ec","session_id":"6088600d89762158fa3ffd1d"},{"rt":3371.9149999669753,"stimulus":"img/backpack_alternate.jpg","response":"n","image":"img/backpack_alternate.jpg","old_or_new":"new","task":"recognition","trial_type":"image-keyboard-response","trial_index":3,"time_elapsed":64222,"internal_node_id":"0.0-3.0-0.0","subject_id":"601e093a31a2902413e15c08","study_id":"607de2837874a824e2e8c6ec","session_id":"6088600d89762158fa3ffd1d","correct":true},{"rt":7774.549999972805,"stimulus":"\n      <p>How sure are you?</p>\n      <p>Rate your confidence in your answer from 1 (pure guess) to 5 (very sure) by pressing the corresponding button.</p>\n     ","response":4,"image":"img/backpack_alternate.jpg","task":"confidence","old_or_new":"new","trial_type":"html-button-response","trial_index":4,"time_elapsed":71997,"internal_node_id":"0.0-3.0-1.0","subject_id":"601e093a31a2902413e15c08","study_id":"607de2837874a824e2e8c6ec","session_id":"6088600d89762158fa3ffd1d"},{"rt":4686.010000004899,"stimulus":"img/folder_alternate.jpg","response":"n","image":"img/folder_alternate.jpg","old_or_new":"new","task":"recognition","trial_type":"image-keyboard-response","trial_index":5,"time_elapsed":77186,"internal_node_id":"0.0-3.0-0.1","subject_id":"601e093a31a2902413e15c08","study_id":"607de2837874a824e2e8c6ec","session_id":"6088600d89762158fa3ffd1d","correct":true},{"rt":1436.7300000158139,"stimulus":"\n      <p>How sure are you?</p>\n      <p>Rate your confidence in your answer from 1 (pure guess) to 5 (very sure) by pressing the corresponding button.</p>\n     ","response":4,"image":"img/folder_alternate.jpg","task":"confidence","old_or_new":"new","trial_type":"html-button-response","trial_index":6,"time_elapsed":78625,"internal_node_id":"0.0-3.0-1.1","subject_id":"601e093a31a2902413e15c08","study_id":"607de2837874a824e2e8c6ec","session_id":"6088600d89762158fa3ffd1d"},{"rt":6038.57999999309,"stimulus":"img/fan_alternate.jpg","response":"n","image":"img/fan_alternate.jpg","old_or_new":"new","task":"recognition","trial_type":"image-keyboard-response","trial_index":7,"time_elapsed":85166,"internal_node_id":"0.0-3.0-0.2","subject_id":"601e093a31a2902413e15c08","study_id":"607de2837874a824e2e8c6ec","session_id":"6088600d89762158fa3ffd1d","correct":true},{"rt":1169.960000028368,"stimulus":"\n      <p>How sure are you?</p>\n      <p>Rate your confidence in your answer from 1 (pure guess) to 5 (very sure) by pressing the corresponding button.</p>\n     ","response":4,"image":"img/fan_alternate.jpg","task":"confidence","old_or_new":"new","trial_type":"html-button-response","trial_index":8,"time_elapsed":86337,"internal_node_id":"0.0-3.0-1.2","subject_id":"601e093a31a2902413e15c08","study_id":"607de2837874a824e2e8c6ec","session_id":"6088600d89762158fa3ffd1d"},{"rt":2453.410000016447,"stimulus":"img/grapes.jpg","response":"y","image":"img/grapes.jpg","old_or_new":"old","task":"recognition","trial_type":"image-keyboard-response","trial_index":9,"time_elapsed":89293,"internal_node_id":"0.0-3.0-0.3","subject_id":"601e093a31a2902413e15c08","study_id":"607de2837874a824e2e8c6ec","session_id":"6088600d89762158fa3ffd1d","correct":true},{"rt":2203.4850000054576,"stimulus":"\n      <p>How sure are you?</p>\n      <p>Rate your confidence in your answer from 1 (pure guess) to 5 (very sure) by pressing the corresponding button.</p>\n     ","response":4,"image":"img/grapes.jpg","task":"confidence","old_or_new":"old","trial_type":"html-button-response","trial_index":10,"time_elapsed":91497,"internal_node_id":"0.0-3.0-1.3","subject_id":"601e093a31a2902413e15c08","study_id":"607de2837874a824e2e8c6ec","session_id":"6088600d89762158fa3ffd1d"},{"rt":4430.770000035409,"stimulus":"img/apple_alternate.jpg","response":"n","image":"img/apple_alternate.jpg","old_or_new":"new","task":"recognition","trial_type":"image-keyboard-response","trial_index":11,"time_elapsed":96431,"internal_node_id":"0.0-3.0-0.4","subject_id":"601e093a31a2902413e15c08","study_id":"607de2837874a824e2e8c6ec","session_id":"6088600d89762158fa3ffd1d","correct":true},{"rt":1584.499999997206,"stimulus":"\n      <p>How sure are you?</p>\n      <p>Rate your confidence in your answer from 1 (pure guess) to 5 (very sure) by pressing the corresponding button.</p>\n     ","response":4,"image":"img/apple_alternate.jpg","task":"confidence","old_or_new":"new","trial_type":"html-button-response","trial_index":12,"time_elapsed":98017,"internal_node_id":"0.0-3.0-1.4","subject_id":"601e093a31a2902413e15c08","study_id":"607de2837874a824e2e8c6ec","session_id":"6088600d89762158fa3ffd1d"},{"rt":4239.9050000240095,"stimulus":"img/hat_alternate.jpg","response":"n","image":"img/hat_alternate.jpg","old_or_new":"new","task":"recognition","trial_type":"image-keyboard-response","trial_index":13,"time_elapsed":102759,"internal_node_id":"0.0-3.0-0.5","subject_id":"601e093a31a2902413e15c08","study_id":"607de2837874a824e2e8c6ec","session_id":"6088600d89762158fa3ffd1d","correct":true},{"rt":1269.0700000384822,"stimulus":"\n      <p>How sure are you?</p>\n      <p>Rate your confidence in your answer from 1 (pure guess) to 5 (very sure) by pressing the corresponding button.</p>\n     ","response":4,"image":"img/hat_alternate.jpg","task":"confidence","old_or_new":"new","trial_type":"html-button-response","trial_index":14,"time_elapsed":104029,"internal_node_id":"0.0-3.0-1.5","subject_id":"601e093a31a2902413e15c08","study_id":"607de2837874a824e2e8c6ec","session_id":"6088600d89762158fa3ffd1d"},{"rt":3914.3199999816716,"stimulus":"img/lightbulb_alternate.jpg","response":"n","image":"img/lightbulb_alternate.jpg","old_or_new":"new","task":"recognition","trial_type":"image-keyboard-response","trial_index":15,"time_elapsed":108446,"internal_node_id":"0.0-3.0-0.6","subject_id":"601e093a31a2902413e15c08","study_id":"607de2837874a824e2e8c6ec","session_id":"6088600d89762158fa3ffd1d","correct":true},{"rt":5477.874999982305,"stimulus":"\n      <p>How sure are you?</p>\n      <p>Rate your confidence in your answer from 1 (pure guess) to 5 (very sure) by pressing the corresponding button.</p>\n     ","response":4,"image":"img/lightbulb_alternate.jpg","task":"confidence","old_or_new":"new","trial_type":"html-button-response","trial_index":16,"time_elapsed":113925,"internal_node_id":"0.0-3.0-1.6","subject_id":"601e093a31a2902413e15c08","study_id":"607de2837874a824e2e8c6ec","session_id":"6088600d89762158fa3ffd1d"},{"rt":7331.334999995306,"stimulus":"img/camera.jpg","response":"y","image":"img/camera.jpg","old_or_new":"old","task":"recognition","trial_type":"image-keyboard-response","trial_index":17,"time_elapsed":121758,"internal_node_id":"0.0-3.0-0.7","subject_id":"601e093a31a2902413e15c08","study_id":"607de2837874a824e2e8c6ec","session_id":"6088600d89762158fa3ffd1d","correct":true},{"rt":1173.0549999629147,"stimulus":"\n      <p>How sure are you?</p>\n      <p>Rate your confidence in your answer from 1 (pure guess) to 5 (very sure) by pressing the corresponding button.</p>\n     ","response":4,"image":"img/camera.jpg","task":"confidence","old_or_new":"old","trial_type":"html-button-response","trial_index":18,"time_elapsed":122933,"internal_node_id":"0.0-3.0-1.7","subject_id":"601e093a31a2902413e15c08","study_id":"607de2837874a824e2e8c6ec","session_id":"6088600d89762158fa3ffd1d"},{"rt":2997.845000005327,"stimulus":"img/ladder.jpg","response":"y","image":"img/ladder.jpg","old_or_new":"old","task":"recognition","trial_type":"image-keyboard-response","trial_index":19,"time_elapsed":126433,"internal_node_id":"0.0-3.0-0.8","subject_id":"601e093a31a2902413e15c08","study_id":"607de2837874a824e2e8c6ec","session_id":"6088600d89762158fa3ffd1d","correct":true},{"rt":1386.9050000212155,"stimulus":"\n      <p>How sure are you?</p>\n      <p>Rate your confidence in your answer from 1 (pure guess) to 5 (very sure) by pressing the corresponding button.</p>\n     ","response":4,"image":"img/ladder.jpg","task":"confidence","old_or_new":"old","trial_type":"html-button-response","trial_index":20,"time_elapsed":127821,"internal_node_id":"0.0-3.0-1.8","subject_id":"601e093a31a2902413e15c08","study_id":"607de2837874a824e2e8c6ec","session_id":"6088600d89762158fa3ffd1d"},{"rt":1972.0950000337325,"stimulus":"img/drum_alternate.jpg","response":"n","image":"img/drum_alternate.jpg","old_or_new":"new","task":"recognition","trial_type":"image-keyboard-response","trial_index":21,"time_elapsed":130296,"internal_node_id":"0.0-3.0-0.9","subject_id":"601e093a31a2902413e15c08","study_id":"607de2837874a824e2e8c6ec","session_id":"6088600d89762158fa3ffd1d","correct":true},{"rt":1123.6349999671802,"stimulus":"\n      <p>How sure are you?</p>\n      <p>Rate your confidence in your answer from 1 (pure guess) to 5 (very sure) by pressing the corresponding button.</p>\n     ","response":4,"image":"img/drum_alternate.jpg","task":"confidence","old_or_new":"new","trial_type":"html-button-response","trial_index":22,"time_elapsed":131422,"internal_node_id":"0.0-3.0-1.9","subject_id":"601e093a31a2902413e15c08","study_id":"607de2837874a824e2e8c6ec","session_id":"6088600d89762158fa3ffd1d"},{"rt":5264.964999980293,"stimulus":"img/key_alternate.jpg","response":"n","image":"img/key_alternate.jpg","old_or_new":"new","task":"recognition","trial_type":"image-keyboard-response","trial_index":23,"time_elapsed":137189,"internal_node_id":"0.0-3.0-0.10","subject_id":"601e093a31a2902413e15c08","study_id":"607de2837874a824e2e8c6ec","session_id":"6088600d89762158fa3ffd1d","correct":true},{"rt":962.3049999936484,"stimulus":"\n      <p>How sure are you?</p>\n      <p>Rate your confidence in your answer from 1 (pure guess) to 5 (very sure) by pressing the corresponding button.</p>\n     ","response":4,"image":"img/key_alternate.jpg","task":"confidence","old_or_new":"new","trial_type":"html-button-response","trial_index":24,"time_elapsed":138153,"internal_node_id":"0.0-3.0-1.10","subject_id":"601e093a31a2902413e15c08","study_id":"607de2837874a824e2e8c6ec","session_id":"6088600d89762158fa3ffd1d"},{"rt":4694.5100000011735,"stimulus":"img/helmet.jpg","response":"y","image":"img/helmet.jpg","old_or_new":"old","task":"recognition","trial_type":"image-keyboard-response","trial_index":25,"time_elapsed":143351,"internal_node_id":"0.0-3.0-0.11","subject_id":"601e093a31a2902413e15c08","study_id":"607de2837874a824e2e8c6ec","session_id":"6088600d89762158fa3ffd1d","correct":true},{"rt":1440.6650000019,"stimulus":"\n      <p>How sure are you?</p>\n      <p>Rate your confidence in your answer from 1 (pure guess) to 5 (very sure) by pressing the corresponding button.</p>\n     ","response":4,"image":"img/helmet.jpg","task":"confidence","old_or_new":"old","trial_type":"html-button-response","trial_index":26,"time_elapsed":144793,"internal_node_id":"0.0-3.0-1.11","subject_id":"601e093a31a2902413e15c08","study_id":"607de2837874a824e2e8c6ec","session_id":"6088600d89762158fa3ffd1d"},{"rt":1577.915000030771,"stimulus":"img/leaf.jpg","response":"y","image":"img/leaf.jpg","old_or_new":"old","task":"recognition","trial_type":"image-keyboard-response","trial_index":27,"time_elapsed":146873,"internal_node_id":"0.0-3.0-0.12","subject_id":"601e093a31a2902413e15c08","study_id":"607de2837874a824e2e8c6ec","session_id":"6088600d89762158fa3ffd1d","correct":true},{"rt":1363.420000008773,"stimulus":"\n      <p>How sure are you?</p>\n      <p>Rate your confidence in your answer from 1 (pure guess) to 5 (very sure) by pressing the corresponding button.</p>\n     ","response":4,"image":"img/leaf.jpg","task":"confidence","old_or_new":"old","trial_type":"html-button-response","trial_index":28,"time_elapsed":148237,"internal_node_id":"0.0-3.0-1.12","subject_id":"601e093a31a2902413e15c08","study_id":"607de2837874a824e2e8c6ec","session_id":"6088600d89762158fa3ffd1d"},{"rt":7641.264999983832,"stimulus":"img/basket_alternate.jpg","response":"n","image":"img/basket_alternate.jpg","old_or_new":"new","task":"recognition","trial_type":"image-keyboard-response","trial_index":29,"time_elapsed":156380,"internal_node_id":"0.0-3.0-0.13","subject_id":"601e093a31a2902413e15c08","study_id":"607de2837874a824e2e8c6ec","session_id":"6088600d89762158fa3ffd1d","correct":true},{"rt":1187.065000005532,"stimulus":"\n      <p>How sure are you?</p>\n      <p>Rate your confidence in your answer from 1 (pure guess) to 5 (very sure) by pressing the corresponding button.</p>\n     ","response":4,"image":"img/basket_alternate.jpg","task":"confidence","old_or_new":"new","trial_type":"html-button-response","trial_index":30,"time_elapsed":157569,"internal_node_id":"0.0-3.0-1.13","subject_id":"601e093a31a2902413e15c08","study_id":"607de2837874a824e2e8c6ec","session_id":"6088600d89762158fa3ffd1d"},{"rt":2214.2599999788217,"stimulus":"img/hair_tie.jpg","response":"y","image":"img/hair_tie.jpg","old_or_new":"old","task":"recognition","trial_type":"image-keyboard-response","trial_index":31,"time_elapsed":160285,"internal_node_id":"0.0-3.0-0.14","subject_id":"601e093a31a2902413e15c08","study_id":"607de2837874a824e2e8c6ec","session_id":"6088600d89762158fa3ffd1d","correct":true},{"rt":1250.2350000431761,"stimulus":"\n      <p>How sure are you?</p>\n      <p>Rate your confidence in your answer from 1 (pure guess) to 5 (very sure) by pressing the corresponding button.</p>\n     ","response":4,"image":"img/hair_tie.jpg","task":"confidence","old_or_new":"old","trial_type":"html-button-response","trial_index":32,"time_elapsed":161537,"internal_node_id":"0.0-3.0-1.14","subject_id":"601e093a31a2902413e15c08","study_id":"607de2837874a824e2e8c6ec","session_id":"6088600d89762158fa3ffd1d"},{"rt":3017.9800000041723,"stimulus":"img/calculator_alternate.jpg","response":"n","image":"img/calculator_alternate.jpg","old_or_new":"new","task":"recognition","trial_type":"image-keyboard-response","trial_index":33,"time_elapsed":165057,"internal_node_id":"0.0-3.0-0.15","subject_id":"601e093a31a2902413e15c08","study_id":"607de2837874a824e2e8c6ec","session_id":"6088600d89762158fa3ffd1d","correct":true},{"rt":1042.2900000121444,"stimulus":"\n      <p>How sure are you?</p>\n      <p>Rate your confidence in your answer from 1 (pure guess) to 5 (very sure) by pressing the corresponding button.</p>\n     ","response":4,"image":"img/calculator_alternate.jpg","task":"confidence","old_or_new":"new","trial_type":"html-button-response","trial_index":34,"time_elapsed":166100,"internal_node_id":"0.0-3.0-1.15","subject_id":"601e093a31a2902413e15c08","study_id":"607de2837874a824e2e8c6ec","session_id":"6088600d89762158fa3ffd1d"},{"rt":2251.0550000006333,"stimulus":"img/chair_alternate.jpg","response":"n","image":"img/chair_alternate.jpg","old_or_new":"new","task":"recognition","trial_type":"image-keyboard-response","trial_index":35,"time_elapsed":168854,"internal_node_id":"0.0-3.0-0.16","subject_id":"601e093a31a2902413e15c08","study_id":"607de2837874a824e2e8c6ec","session_id":"6088600d89762158fa3ffd1d","correct":true},{"rt":1358.5200000088662,"stimulus":"\n      <p>How sure are you?</p>\n      <p>Rate your confidence in your answer from 1 (pure guess) to 5 (very sure) by pressing the corresponding button.</p>\n     ","response":4,"image":"img/chair_alternate.jpg","task":"confidence","old_or_new":"new","trial_type":"html-button-response","trial_index":36,"time_elapsed":170213,"internal_node_id":"0.0-3.0-1.16","subject_id":"601e093a31a2902413e15c08","study_id":"607de2837874a824e2e8c6ec","session_id":"6088600d89762158fa3ffd1d"},{"rt":16117.474999977276,"stimulus":"img/hourglass_alternate.jpg","response":"n","image":"img/hourglass_alternate.jpg","old_or_new":"new","task":"recognition","trial_type":"image-keyboard-response","trial_index":37,"time_elapsed":186832,"internal_node_id":"0.0-3.0-0.17","subject_id":"601e093a31a2902413e15c08","study_id":"607de2837874a824e2e8c6ec","session_id":"6088600d89762158fa3ffd1d","correct":true},{"rt":1091.4950000005774,"stimulus":"\n      <p>How sure are you?</p>\n      <p>Rate your confidence in your answer from 1 (pure guess) to 5 (very sure) by pressing the corresponding button.</p>\n     ","response":4,"image":"img/hourglass_alternate.jpg","task":"confidence","old_or_new":"new","trial_type":"html-button-response","trial_index":38,"time_elapsed":187925,"internal_node_id":"0.0-3.0-1.17","subject_id":"601e093a31a2902413e15c08","study_id":"607de2837874a824e2e8c6ec","session_id":"6088600d89762158fa3ffd1d"},{"rt":2852.450000005774,"stimulus":"img/helmet_alternate.jpg","response":"n","image":"img/helmet_alternate.jpg","old_or_new":"new","task":"recognition","trial_type":"image-keyboard-response","trial_index":39,"time_elapsed":191280,"internal_node_id":"0.0-3.0-0.18","subject_id":"601e093a31a2902413e15c08","study_id":"607de2837874a824e2e8c6ec","session_id":"6088600d89762158fa3ffd1d","correct":true},{"rt":1134.940000018105,"stimulus":"\n      <p>How sure are you?</p>\n      <p>Rate your confidence in your answer from 1 (pure guess) to 5 (very sure) by pressing the corresponding button.</p>\n     ","response":4,"image":"img/helmet_alternate.jpg","task":"confidence","old_or_new":"new","trial_type":"html-button-response","trial_index":40,"time_elapsed":192416,"internal_node_id":"0.0-3.0-1.18","subject_id":"601e093a31a2902413e15c08","study_id":"607de2837874a824e2e8c6ec","session_id":"6088600d89762158fa3ffd1d"},{"rt":1509.5849999925122,"stimulus":"img/bowl_alternate.jpg","response":"n","image":"img/bowl_alternate.jpg","old_or_new":"new","task":"recognition","trial_type":"image-keyboard-response","trial_index":41,"time_elapsed":194429,"internal_node_id":"0.0-3.0-0.19","subject_id":"601e093a31a2902413e15c08","study_id":"607de2837874a824e2e8c6ec","session_id":"6088600d89762158fa3ffd1d","correct":true},{"rt":1094.4349999772385,"stimulus":"\n      <p>How sure are you?</p>\n      <p>Rate your confidence in your answer from 1 (pure guess) to 5 (very sure) by pressing the corresponding button.</p>\n     ","response":4,"image":"img/bowl_alternate.jpg","task":"confidence","old_or_new":"new","trial_type":"html-button-response","trial_index":42,"time_elapsed":195524,"internal_node_id":"0.0-3.0-1.19","subject_id":"601e093a31a2902413e15c08","study_id":"607de2837874a824e2e8c6ec","session_id":"6088600d89762158fa3ffd1d"},{"rt":2414.040000003297,"stimulus":"img/hairbrush.jpg","response":"y","image":"img/hairbrush.jpg","old_or_new":"old","task":"recognition","trial_type":"image-keyboard-response","trial_index":43,"time_elapsed":198441,"internal_node_id":"0.0-3.0-0.20","subject_id":"601e093a31a2902413e15c08","study_id":"607de2837874a824e2e8c6ec","session_id":"6088600d89762158fa3ffd1d","correct":true},{"rt":889.2199999536388,"stimulus":"\n      <p>How sure are you?</p>\n      <p>Rate your confidence in your answer from 1 (pure guess) to 5 (very sure) by pressing the corresponding button.</p>\n     ","response":4,"image":"img/hairbrush.jpg","task":"confidence","old_or_new":"old","trial_type":"html-button-response","trial_index":44,"time_elapsed":199332,"internal_node_id":"0.0-3.0-1.20","subject_id":"601e093a31a2902413e15c08","study_id":"607de2837874a824e2e8c6ec","session_id":"6088600d89762158fa3ffd1d"},{"rt":1790.679999976419,"stimulus":"img/backpack.jpg","response":"y","image":"img/backpack.jpg","old_or_new":"old","task":"recognition","trial_type":"image-keyboard-response","trial_index":45,"time_elapsed":201624,"internal_node_id":"0.0-3.0-0.21","subject_id":"601e093a31a2902413e15c08","study_id":"607de2837874a824e2e8c6ec","session_id":"6088600d89762158fa3ffd1d","correct":true},{"rt":994.704999960959,"stimulus":"\n      <p>How sure are you?</p>\n      <p>Rate your confidence in your answer from 1 (pure guess) to 5 (very sure) by pressing the corresponding button.</p>\n     ","response":4,"image":"img/backpack.jpg","task":"confidence","old_or_new":"old","trial_type":"html-button-response","trial_index":46,"time_elapsed":202620,"internal_node_id":"0.0-3.0-1.21","subject_id":"601e093a31a2902413e15c08","study_id":"607de2837874a824e2e8c6ec","session_id":"6088600d89762158fa3ffd1d"},{"rt":3809.9700000020675,"stimulus":"img/dryer_alternate.jpg","response":"n","image":"img/dryer_alternate.jpg","old_or_new":"new","task":"recognition","trial_type":"image-keyboard-response","trial_index":47,"time_elapsed":206932,"internal_node_id":"0.0-3.0-0.22","subject_id":"601e093a31a2902413e15c08","study_id":"607de2837874a824e2e8c6ec","session_id":"6088600d89762158fa3ffd1d","correct":true},{"rt":902.2649999824353,"stimulus":"\n      <p>How sure are you?</p>\n      <p>Rate your confidence in your answer from 1 (pure guess) to 5 (very sure) by pressing the corresponding button.</p>\n     ","response":4,"image":"img/dryer_alternate.jpg","task":"confidence","old_or_new":"new","trial_type":"html-button-response","trial_index":48,"time_elapsed":207836,"internal_node_id":"0.0-3.0-1.22","subject_id":"601e093a31a2902413e15c08","study_id":"607de2837874a824e2e8c6ec","session_id":"6088600d89762158fa3ffd1d"},{"rt":1767.7700000349432,"stimulus":"img/chair.jpg","response":"y","image":"img/chair.jpg","old_or_new":"old","task":"recognition","trial_type":"image-keyboard-response","trial_index":49,"time_elapsed":210106,"internal_node_id":"0.0-3.0-0.23","subject_id":"601e093a31a2902413e15c08","study_id":"607de2837874a824e2e8c6ec","session_id":"6088600d89762158fa3ffd1d","correct":true},{"rt":1680.690000008326,"stimulus":"\n      <p>How sure are you?</p>\n      <p>Rate your confidence in your answer from 1 (pure guess) to 5 (very sure) by pressing the corresponding button.</p>\n     ","response":4,"image":"img/chair.jpg","task":"confidence","old_or_new":"old","trial_type":"html-button-response","trial_index":50,"time_elapsed":211788,"internal_node_id":"0.0-3.0-1.23","subject_id":"601e093a31a2902413e15c08","study_id":"607de2837874a824e2e8c6ec","session_id":"6088600d89762158fa3ffd1d"},{"rt":2157.1550000226125,"stimulus":"img/hairbrush_alternate.jpg","response":"n","image":"img/hairbrush_alternate.jpg","old_or_new":"new","task":"recognition","trial_type":"image-keyboard-response","trial_index":51,"time_elapsed":214447,"internal_node_id":"0.0-3.0-0.24","subject_id":"601e093a31a2902413e15c08","study_id":"607de2837874a824e2e8c6ec","session_id":"6088600d89762158fa3ffd1d","correct":true},{"rt":1348.5700000310317,"stimulus":"\n      <p>How sure are you?</p>\n      <p>Rate your confidence in your answer from 1 (pure guess) to 5 (very sure) by pressing the corresponding button.</p>\n     ","response":4,"image":"img/hairbrush_alternate.jpg","task":"confidence","old_or_new":"new","trial_type":"html-button-response","trial_index":52,"time_elapsed":215797,"internal_node_id":"0.0-3.0-1.24","subject_id":"601e093a31a2902413e15c08","study_id":"607de2837874a824e2e8c6ec","session_id":"6088600d89762158fa3ffd1d"},{"rt":2005.925000004936,"stimulus":"img/fan.jpg","response":"y","image":"img/fan.jpg","old_or_new":"old","task":"recognition","trial_type":"image-keyboard-response","trial_index":53,"time_elapsed":218305,"internal_node_id":"0.0-3.0-0.25","subject_id":"601e093a31a2902413e15c08","study_id":"607de2837874a824e2e8c6ec","session_id":"6088600d89762158fa3ffd1d","correct":true},{"rt":978.2450000056997,"stimulus":"\n      <p>How sure are you?</p>\n      <p>Rate your confidence in your answer from 1 (pure guess) to 5 (very sure) by pressing the corresponding button.</p>\n     ","response":4,"image":"img/fan.jpg","task":"confidence","old_or_new":"old","trial_type":"html-button-response","trial_index":54,"time_elapsed":219284,"internal_node_id":"0.0-3.0-1.25","subject_id":"601e093a31a2902413e15c08","study_id":"607de2837874a824e2e8c6ec","session_id":"6088600d89762158fa3ffd1d"},{"rt":1755.5150000262074,"stimulus":"img/glasses_alternate.jpg","response":"n","image":"img/glasses_alternate.jpg","old_or_new":"new","task":"recognition","trial_type":"image-keyboard-response","trial_index":55,"time_elapsed":221541,"internal_node_id":"0.0-3.0-0.26","subject_id":"601e093a31a2902413e15c08","study_id":"607de2837874a824e2e8c6ec","session_id":"6088600d89762158fa3ffd1d","correct":true},{"rt":1402.425000036601,"stimulus":"\n      <p>How sure are you?</p>\n      <p>Rate your confidence in your answer from 1 (pure guess) to 5 (very sure) by pressing the corresponding button.</p>\n     ","response":4,"image":"img/glasses_alternate.jpg","task":"confidence","old_or_new":"new","trial_type":"html-button-response","trial_index":56,"time_elapsed":222944,"internal_node_id":"0.0-3.0-1.26","subject_id":"601e093a31a2902413e15c08","study_id":"607de2837874a824e2e8c6ec","session_id":"6088600d89762158fa3ffd1d"},{"rt":17379.324999987148,"stimulus":"img/bowl.jpg","response":"n","image":"img/bowl.jpg","old_or_new":"old","task":"recognition","trial_type":"image-keyboard-response","trial_index":57,"time_elapsed":240825,"internal_node_id":"0.0-3.0-0.27","subject_id":"601e093a31a2902413e15c08","study_id":"607de2837874a824e2e8c6ec","session_id":"6088600d89762158fa3ffd1d","correct":false},{"rt":2909.285000001546,"stimulus":"\n      <p>How sure are you?</p>\n      <p>Rate your confidence in your answer from 1 (pure guess) to 5 (very sure) by pressing the corresponding button.</p>\n     ","response":2,"image":"img/bowl.jpg","task":"confidence","old_or_new":"old","trial_type":"html-button-response","trial_index":58,"time_elapsed":243736,"internal_node_id":"0.0-3.0-1.27","subject_id":"601e093a31a2902413e15c08","study_id":"607de2837874a824e2e8c6ec","session_id":"6088600d89762158fa3ffd1d"},{"rt":2146.6399999917485,"stimulus":"img/globe_alternate.jpg","response":"n","image":"img/globe_alternate.jpg","old_or_new":"new","task":"recognition","trial_type":"image-keyboard-response","trial_index":59,"time_elapsed":246385,"internal_node_id":"0.0-3.0-0.28","subject_id":"601e093a31a2902413e15c08","study_id":"607de2837874a824e2e8c6ec","session_id":"6088600d89762158fa3ffd1d","correct":true},{"rt":1250.7650000043213,"stimulus":"\n      <p>How sure are you?</p>\n      <p>Rate your confidence in your answer from 1 (pure guess) to 5 (very sure) by pressing the corresponding button.</p>\n     ","response":4,"image":"img/globe_alternate.jpg","task":"confidence","old_or_new":"new","trial_type":"html-button-response","trial_index":60,"time_elapsed":247637,"internal_node_id":"0.0-3.0-1.28","subject_id":"601e093a31a2902413e15c08","study_id":"607de2837874a824e2e8c6ec","session_id":"6088600d89762158fa3ffd1d"},{"rt":1886.6399999824353,"stimulus":"img/drum.jpg","response":"y","image":"img/drum.jpg","old_or_new":"old","task":"recognition","trial_type":"image-keyboard-response","trial_index":61,"time_elapsed":250025,"internal_node_id":"0.0-3.0-0.29","subject_id":"601e093a31a2902413e15c08","study_id":"607de2837874a824e2e8c6ec","session_id":"6088600d89762158fa3ffd1d","correct":true},{"rt":3142.8300000261515,"stimulus":"\n      <p>How sure are you?</p>\n      <p>Rate your confidence in your answer from 1 (pure guess) to 5 (very sure) by pressing the corresponding button.</p>\n     ","response":4,"image":"img/drum.jpg","task":"confidence","old_or_new":"old","trial_type":"html-button-response","trial_index":62,"time_elapsed":253169,"internal_node_id":"0.0-3.0-1.29","subject_id":"601e093a31a2902413e15c08","study_id":"607de2837874a824e2e8c6ec","session_id":"6088600d89762158fa3ffd1d"},{"rt":1746.5049999882467,"stimulus":"img/grapes_alternate.jpg","response":"n","image":"img/grapes_alternate.jpg","old_or_new":"new","task":"recognition","trial_type":"image-keyboard-response","trial_index":63,"time_elapsed":255419,"internal_node_id":"0.0-3.0-0.30","subject_id":"601e093a31a2902413e15c08","study_id":"607de2837874a824e2e8c6ec","session_id":"6088600d89762158fa3ffd1d","correct":true},{"rt":1164.9300000281073,"stimulus":"\n      <p>How sure are you?</p>\n      <p>Rate your confidence in your answer from 1 (pure guess) to 5 (very sure) by pressing the corresponding button.</p>\n     ","response":4,"image":"img/grapes_alternate.jpg","task":"confidence","old_or_new":"new","trial_type":"html-button-response","trial_index":64,"time_elapsed":256585,"internal_node_id":"0.0-3.0-1.30","subject_id":"601e093a31a2902413e15c08","study_id":"607de2837874a824e2e8c6ec","session_id":"6088600d89762158fa3ffd1d"},{"rt":1386.0799999674782,"stimulus":"img/leaf_alternate.jpg","response":"n","image":"img/leaf_alternate.jpg","old_or_new":"new","task":"recognition","trial_type":"image-keyboard-response","trial_index":65,"time_elapsed":258473,"internal_node_id":"0.0-3.0-0.31","subject_id":"601e093a31a2902413e15c08","study_id":"607de2837874a824e2e8c6ec","session_id":"6088600d89762158fa3ffd1d","correct":true},{"rt":1130.8749999734573,"stimulus":"\n      <p>How sure are you?</p>\n      <p>Rate your confidence in your answer from 1 (pure guess) to 5 (very sure) by pressing the corresponding button.</p>\n     ","response":4,"image":"img/leaf_alternate.jpg","task":"confidence","old_or_new":"new","trial_type":"html-button-response","trial_index":66,"time_elapsed":259605,"internal_node_id":"0.0-3.0-1.31","subject_id":"601e093a31a2902413e15c08","study_id":"607de2837874a824e2e8c6ec","session_id":"6088600d89762158fa3ffd1d"},{"rt":1541.640000010375,"stimulus":"img/folder.jpg","response":"y","image":"img/folder.jpg","old_or_new":"old","task":"recognition","trial_type":"image-keyboard-response","trial_index":67,"time_elapsed":261648,"internal_node_id":"0.0-3.0-0.32","subject_id":"601e093a31a2902413e15c08","study_id":"607de2837874a824e2e8c6ec","session_id":"6088600d89762158fa3ffd1d","correct":true},{"rt":1196.094999962952,"stimulus":"\n      <p>How sure are you?</p>\n      <p>Rate your confidence in your answer from 1 (pure guess) to 5 (very sure) by pressing the corresponding button.</p>\n     ","response":4,"image":"img/folder.jpg","task":"confidence","old_or_new":"old","trial_type":"html-button-response","trial_index":68,"time_elapsed":262846,"internal_node_id":"0.0-3.0-1.32","subject_id":"601e093a31a2902413e15c08","study_id":"607de2837874a824e2e8c6ec","session_id":"6088600d89762158fa3ffd1d"},{"rt":5497.855000023264,"stimulus":"img/dryer.jpg","response":"y","image":"img/dryer.jpg","old_or_new":"old","task":"recognition","trial_type":"image-keyboard-response","trial_index":69,"time_elapsed":268846,"internal_node_id":"0.0-3.0-0.33","subject_id":"601e093a31a2902413e15c08","study_id":"607de2837874a824e2e8c6ec","session_id":"6088600d89762158fa3ffd1d","correct":true},{"rt":1066.640000033658,"stimulus":"\n      <p>How sure are you?</p>\n      <p>Rate your confidence in your answer from 1 (pure guess) to 5 (very sure) by pressing the corresponding button.</p>\n     ","response":3,"image":"img/dryer.jpg","task":"confidence","old_or_new":"old","trial_type":"html-button-response","trial_index":70,"time_elapsed":269915,"internal_node_id":"0.0-3.0-1.33","subject_id":"601e093a31a2902413e15c08","study_id":"607de2837874a824e2e8c6ec","session_id":"6088600d89762158fa3ffd1d"},{"rt":5160.619999980554,"stimulus":"img/ladder_alternate.jpg","response":"n","image":"img/ladder_alternate.jpg","old_or_new":"new","task":"recognition","trial_type":"image-keyboard-response","trial_index":71,"time_elapsed":275577,"internal_node_id":"0.0-3.0-0.34","subject_id":"601e093a31a2902413e15c08","study_id":"607de2837874a824e2e8c6ec","session_id":"6088600d89762158fa3ffd1d","correct":true},{"rt":986.3550000009127,"stimulus":"\n      <p>How sure are you?</p>\n      <p>Rate your confidence in your answer from 1 (pure guess) to 5 (very sure) by pressing the corresponding button.</p>\n     ","response":4,"image":"img/ladder_alternate.jpg","task":"confidence","old_or_new":"new","trial_type":"html-button-response","trial_index":72,"time_elapsed":276565,"internal_node_id":"0.0-3.0-1.34","subject_id":"601e093a31a2902413e15c08","study_id":"607de2837874a824e2e8c6ec","session_id":"6088600d89762158fa3ffd1d"},{"rt":1385.9250000095926,"stimulus":"img/hair_tie_alternate.jpg","response":"n","image":"img/hair_tie_alternate.jpg","old_or_new":"new","task":"recognition","trial_type":"image-keyboard-response","trial_index":73,"time_elapsed":278453,"internal_node_id":"0.0-3.0-0.35","subject_id":"601e093a31a2902413e15c08","study_id":"607de2837874a824e2e8c6ec","session_id":"6088600d89762158fa3ffd1d","correct":true},{"rt":984.2000000062399,"stimulus":"\n      <p>How sure are you?</p>\n      <p>Rate your confidence in your answer from 1 (pure guess) to 5 (very sure) by pressing the corresponding button.</p>\n     ","response":4,"image":"img/hair_tie_alternate.jpg","task":"confidence","old_or_new":"new","trial_type":"html-button-response","trial_index":74,"time_elapsed":279438,"internal_node_id":"0.0-3.0-1.35","subject_id":"601e093a31a2902413e15c08","study_id":"607de2837874a824e2e8c6ec","session_id":"6088600d89762158fa3ffd1d"},{"rt":14106.259999971371,"stimulus":"img/basket.jpg","response":"n","image":"img/basket.jpg","old_or_new":"old","task":"recognition","trial_type":"image-keyboard-response","trial_index":75,"time_elapsed":294046,"internal_node_id":"0.0-3.0-0.36","subject_id":"601e093a31a2902413e15c08","study_id":"607de2837874a824e2e8c6ec","session_id":"6088600d89762158fa3ffd1d","correct":false},{"rt":2265.0199999916367,"stimulus":"\n      <p>How sure are you?</p>\n      <p>Rate your confidence in your answer from 1 (pure guess) to 5 (very sure) by pressing the corresponding button.</p>\n     ","response":2,"image":"img/basket.jpg","task":"confidence","old_or_new":"old","trial_type":"html-button-response","trial_index":76,"time_elapsed":296313,"internal_node_id":"0.0-3.0-1.36","subject_id":"601e093a31a2902413e15c08","study_id":"607de2837874a824e2e8c6ec","session_id":"6088600d89762158fa3ffd1d"},{"rt":1506.3800000352785,"stimulus":"img/globe.jpg","response":"y","image":"img/globe.jpg","old_or_new":"old","task":"recognition","trial_type":"image-keyboard-response","trial_index":77,"time_elapsed":298320,"internal_node_id":"0.0-3.0-0.37","subject_id":"601e093a31a2902413e15c08","study_id":"607de2837874a824e2e8c6ec","session_id":"6088600d89762158fa3ffd1d","correct":true},{"rt":1055.1700000069104,"stimulus":"\n      <p>How sure are you?</p>\n      <p>Rate your confidence in your answer from 1 (pure guess) to 5 (very sure) by pressing the corresponding button.</p>\n     ","response":4,"image":"img/globe.jpg","task":"confidence","old_or_new":"old","trial_type":"html-button-response","trial_index":78,"time_elapsed":299377,"internal_node_id":"0.0-3.0-1.37","subject_id":"601e093a31a2902413e15c08","study_id":"607de2837874a824e2e8c6ec","session_id":"6088600d89762158fa3ffd1d"},{"rt":1302.1549999830313,"stimulus":"img/key.jpg","response":"y","image":"img/key.jpg","old_or_new":"old","task":"recognition","trial_type":"image-keyboard-response","trial_index":79,"time_elapsed":301181,"internal_node_id":"0.0-3.0-0.38","subject_id":"601e093a31a2902413e15c08","study_id":"607de2837874a824e2e8c6ec","session_id":"6088600d89762158fa3ffd1d","correct":true},{"rt":1078.2250000047497,"stimulus":"\n      <p>How sure are you?</p>\n      <p>Rate your confidence in your answer from 1 (pure guess) to 5 (very sure) by pressing the corresponding button.</p>\n     ","response":4,"image":"img/key.jpg","task":"confidence","old_or_new":"old","trial_type":"html-button-response","trial_index":80,"time_elapsed":302261,"internal_node_id":"0.0-3.0-1.38","subject_id":"601e093a31a2902413e15c08","study_id":"607de2837874a824e2e8c6ec","session_id":"6088600d89762158fa3ffd1d"},{"rt":1281.3749999622814,"stimulus":"img/lightbulb.jpg","response":"y","image":"img/lightbulb.jpg","old_or_new":"old","task":"recognition","trial_type":"image-keyboard-response","trial_index":81,"time_elapsed":304046,"internal_node_id":"0.0-3.0-0.39","subject_id":"601e093a31a2902413e15c08","study_id":"607de2837874a824e2e8c6ec","session_id":"6088600d89762158fa3ffd1d","correct":true},{"rt":1097.5350000080653,"stimulus":"\n      <p>How sure are you?</p>\n      <p>Rate your confidence in your answer from 1 (pure guess) to 5 (very sure) by pressing the corresponding button.</p>\n     ","response":4,"image":"img/lightbulb.jpg","task":"confidence","old_or_new":"old","trial_type":"html-button-response","trial_index":82,"time_elapsed":305146,"internal_node_id":"0.0-3.0-1.39","subject_id":"601e093a31a2902413e15c08","study_id":"607de2837874a824e2e8c6ec","session_id":"6088600d89762158fa3ffd1d"},{"rt":1256.519999995362,"stimulus":"img/apple.jpg","response":"y","image":"img/apple.jpg","old_or_new":"old","task":"recognition","trial_type":"image-keyboard-response","trial_index":83,"time_elapsed":306904,"internal_node_id":"0.0-3.0-0.40","subject_id":"601e093a31a2902413e15c08","study_id":"607de2837874a824e2e8c6ec","session_id":"6088600d89762158fa3ffd1d","correct":true},{"rt":867.5299999886192,"stimulus":"\n      <p>How sure are you?</p>\n      <p>Rate your confidence in your answer from 1 (pure guess) to 5 (very sure) by pressing the corresponding button.</p>\n     ","response":4,"image":"img/apple.jpg","task":"confidence","old_or_new":"old","trial_type":"html-button-response","trial_index":84,"time_elapsed":307772,"internal_node_id":"0.0-3.0-1.40","subject_id":"601e093a31a2902413e15c08","study_id":"607de2837874a824e2e8c6ec","session_id":"6088600d89762158fa3ffd1d"},{"rt":1374.3200000026263,"stimulus":"img/hat.jpg","response":"y","image":"img/hat.jpg","old_or_new":"old","task":"recognition","trial_type":"image-keyboard-response","trial_index":85,"time_elapsed":309648,"internal_node_id":"0.0-3.0-0.41","subject_id":"601e093a31a2902413e15c08","study_id":"607de2837874a824e2e8c6ec","session_id":"6088600d89762158fa3ffd1d","correct":true},{"rt":895.2350000035949,"stimulus":"\n      <p>How sure are you?</p>\n      <p>Rate your confidence in your answer from 1 (pure guess) to 5 (very sure) by pressing the corresponding button.</p>\n     ","response":4,"image":"img/hat.jpg","task":"confidence","old_or_new":"old","trial_type":"html-button-response","trial_index":86,"time_elapsed":310544,"internal_node_id":"0.0-3.0-1.41","subject_id":"601e093a31a2902413e15c08","study_id":"607de2837874a824e2e8c6ec","session_id":"6088600d89762158fa3ffd1d"},{"rt":8599.374999990687,"stimulus":"img/glasses.jpg","response":"n","image":"img/glasses.jpg","old_or_new":"old","task":"recognition","trial_type":"image-keyboard-response","trial_index":87,"time_elapsed":319646,"internal_node_id":"0.0-3.0-0.42","subject_id":"601e093a31a2902413e15c08","study_id":"607de2837874a824e2e8c6ec","session_id":"6088600d89762158fa3ffd1d","correct":false},{"rt":1520.1100000413135,"stimulus":"\n      <p>How sure are you?</p>\n      <p>Rate your confidence in your answer from 1 (pure guess) to 5 (very sure) by pressing the corresponding button.</p>\n     ","response":2,"image":"img/glasses.jpg","task":"confidence","old_or_new":"old","trial_type":"html-button-response","trial_index":88,"time_elapsed":321169,"internal_node_id":"0.0-3.0-1.42","subject_id":"601e093a31a2902413e15c08","study_id":"607de2837874a824e2e8c6ec","session_id":"6088600d89762158fa3ffd1d"},{"rt":1330.545000033453,"stimulus":"img/camera_alternate.jpg","response":"n","image":"img/camera_alternate.jpg","old_or_new":"new","task":"recognition","trial_type":"image-keyboard-response","trial_index":89,"time_elapsed":323001,"internal_node_id":"0.0-3.0-0.43","subject_id":"601e093a31a2902413e15c08","study_id":"607de2837874a824e2e8c6ec","session_id":"6088600d89762158fa3ffd1d","correct":true},{"rt":945.7000000402331,"stimulus":"\n      <p>How sure are you?</p>\n      <p>Rate your confidence in your answer from 1 (pure guess) to 5 (very sure) by pressing the corresponding button.</p>\n     ","response":4,"image":"img/camera_alternate.jpg","task":"confidence","old_or_new":"new","trial_type":"html-button-response","trial_index":90,"time_elapsed":323948,"internal_node_id":"0.0-3.0-1.43","subject_id":"601e093a31a2902413e15c08","study_id":"607de2837874a824e2e8c6ec","session_id":"6088600d89762158fa3ffd1d"},{"rt":1830.2200000034645,"stimulus":"img/coin.jpg","response":"y","image":"img/coin.jpg","old_or_new":"old","task":"recognition","trial_type":"image-keyboard-response","trial_index":91,"time_elapsed":326281,"internal_node_id":"0.0-3.0-0.44","subject_id":"601e093a31a2902413e15c08","study_id":"607de2837874a824e2e8c6ec","session_id":"6088600d89762158fa3ffd1d","correct":true},{"rt":1090.825000021141,"stimulus":"\n      <p>How sure are you?</p>\n      <p>Rate your confidence in your answer from 1 (pure guess) to 5 (very sure) by pressing the corresponding button.</p>\n     ","response":4,"image":"img/coin.jpg","task":"confidence","old_or_new":"old","trial_type":"html-button-response","trial_index":92,"time_elapsed":327372,"internal_node_id":"0.0-3.0-1.44","subject_id":"601e093a31a2902413e15c08","study_id":"607de2837874a824e2e8c6ec","session_id":"6088600d89762158fa3ffd1d"},{"rt":1315.0750000495464,"stimulus":"img/coin_alternate.jpg","response":"n","image":"img/coin_alternate.jpg","old_or_new":"new","task":"recognition","trial_type":"image-keyboard-response","trial_index":93,"time_elapsed":329190,"internal_node_id":"0.0-3.0-0.45","subject_id":"601e093a31a2902413e15c08","study_id":"607de2837874a824e2e8c6ec","session_id":"6088600d89762158fa3ffd1d","correct":true},{"rt":793.805000022985,"stimulus":"\n      <p>How sure are you?</p>\n      <p>Rate your confidence in your answer from 1 (pure guess) to 5 (very sure) by pressing the corresponding button.</p>\n     ","response":4,"image":"img/coin_alternate.jpg","task":"confidence","old_or_new":"new","trial_type":"html-button-response","trial_index":94,"time_elapsed":329985,"internal_node_id":"0.0-3.0-1.45","subject_id":"601e093a31a2902413e15c08","study_id":"607de2837874a824e2e8c6ec","session_id":"6088600d89762158fa3ffd1d"},{"rt":6180.590000003576,"stimulus":"img/hourglass.jpg","response":"y","image":"img/hourglass.jpg","old_or_new":"old","task":"recognition","trial_type":"image-keyboard-response","trial_index":95,"time_elapsed":336669,"internal_node_id":"0.0-3.0-0.46","subject_id":"601e093a31a2902413e15c08","study_id":"607de2837874a824e2e8c6ec","session_id":"6088600d89762158fa3ffd1d","correct":true},{"rt":1058.835000032559,"stimulus":"\n      <p>How sure are you?</p>\n      <p>Rate your confidence in your answer from 1 (pure guess) to 5 (very sure) by pressing the corresponding button.</p>\n     ","response":3,"image":"img/hourglass.jpg","task":"confidence","old_or_new":"old","trial_type":"html-button-response","trial_index":96,"time_elapsed":337729,"internal_node_id":"0.0-3.0-1.46","subject_id":"601e093a31a2902413e15c08","study_id":"607de2837874a824e2e8c6ec","session_id":"6088600d89762158fa3ffd1d"},{"rt":1626.7449999577366,"stimulus":"img/calculator.jpg","response":"y","image":"img/calculator.jpg","old_or_new":"old","task":"recognition","trial_type":"image-keyboard-response","trial_index":97,"time_elapsed":339857,"internal_node_id":"0.0-3.0-0.47","subject_id":"601e093a31a2902413e15c08","study_id":"607de2837874a824e2e8c6ec","session_id":"6088600d89762158fa3ffd1d","correct":true},{"rt":803.8850000011735,"stimulus":"\n      <p>How sure are you?</p>\n      <p>Rate your confidence in your answer from 1 (pure guess) to 5 (very sure) by pressing the corresponding button.</p>\n     ","response":4,"image":"img/calculator.jpg","task":"confidence","old_or_new":"old","trial_type":"html-button-response","trial_index":98,"time_elapsed":340662,"internal_node_id":"0.0-3.0-1.47","subject_id":"601e093a31a2902413e15c08","study_id":"607de2837874a824e2e8c6ec","session_id":"6088600d89762158fa3ffd1d"}]