[{"success":true,"timeout":false,"failed_images":[],"failed_audio":[],"failed_video":[],"trial_type":"preload","trial_index":0,"time_elapsed":5328,"internal_node_id":"0.0-0.0","subject_id":"607d8f67c90c228dadbeb3ac","study_id":"607de2837874a824e2e8c6ec","session_id":"608853edacc6cfbec0f1694b"},{"rt":34789.19500000484,"stimulus":"\n      <div style=\"width:800px; text-align: left;\">\n        <p>Welcome to day 2 of the experiment! Thanks for coming back.</p>\n        <p>You will be presented with a series of images. Images will appear one at a time.</p>\n        <p>Each image will remain on the screen until you press either <span style=\"font-weight: bold;\">\"y\" to indicate you have seen the \n        exact same photo the day before or \"n\" to indicate you have not seen the exact same photo the day before.</span></p>\n        <p>After you answer yes (\"y\") or no (\"n\"), you will then be prompted to rate your certainty on a scale of\n        1 (pure guess) to 5 (very sure).</p>\n      </div>\n    ","response":0,"trial_type":"html-button-response","trial_index":1,"time_elapsed":40118,"internal_node_id":"0.0-1.0","subject_id":"607d8f67c90c228dadbeb3ac","study_id":"607de2837874a824e2e8c6ec","session_id":"608853edacc6cfbec0f1694b"},{"success":true,"trial_type":"fullscreen","trial_index":2,"time_elapsed":42834,"internal_node_id":"0.0-2.0","subject_id":"607d8f67c90c228dadbeb3ac","study_id":"607de2837874a824e2e8c6ec","session_id":"608853edacc6cfbec0f1694b"},{"rt":3003.1999999991967,"stimulus":"img/helmet.jpg","response":"y","image":"img/helmet.jpg","old_or_new":"old","task":"recognition","trial_type":"image-keyboard-response","trial_index":3,"time_elapsed":45844,"internal_node_id":"0.0-3.0-0.0","subject_id":"607d8f67c90c228dadbeb3ac","study_id":"607de2837874a824e2e8c6ec","session_id":"608853edacc6cfbec0f1694b","correct":true},{"rt":1302.6050000044052,"stimulus":"\n      <p>How sure are you?</p>\n      <p>Rate your confidence in your answer from 1 (pure guess) to 5 (very sure) by pressing the corresponding button.</p>\n     ","response":4,"image":"img/helmet.jpg","task":"confidence","old_or_new":"old","trial_type":"html-button-response","trial_index":4,"time_elapsed":47147,"internal_node_id":"0.0-3.0-1.0","subject_id":"607d8f67c90c228dadbeb3ac","study_id":"607de2837874a824e2e8c6ec","session_id":"608853edacc6cfbec0f1694b"},{"rt":2854.464999996708,"stimulus":"img/camera_alternate.jpg","response":"n","image":"img/camera_alternate.jpg","old_or_new":"new","task":"recognition","trial_type":"image-keyboard-response","trial_index":5,"time_elapsed":50503,"internal_node_id":"0.0-3.0-0.1","subject_id":"607d8f67c90c228dadbeb3ac","study_id":"607de2837874a824e2e8c6ec","session_id":"608853edacc6cfbec0f1694b","correct":true},{"rt":1845.805000004475,"stimulus":"\n      <p>How sure are you?</p>\n      <p>Rate your confidence in your answer from 1 (pure guess) to 5 (very sure) by pressing the corresponding button.</p>\n     ","response":3,"image":"img/camera_alternate.jpg","task":"confidence","old_or_new":"new","trial_type":"html-button-response","trial_index":6,"time_elapsed":52350,"internal_node_id":"0.0-3.0-1.1","subject_id":"607d8f67c90c228dadbeb3ac","study_id":"607de2837874a824e2e8c6ec","session_id":"608853edacc6cfbec0f1694b"},{"rt":1142.1200000040699,"stimulus":"img/leaf.jpg","response":"y","image":"img/leaf.jpg","old_or_new":"old","task":"recognition","trial_type":"image-keyboard-response","trial_index":7,"time_elapsed":53993,"internal_node_id":"0.0-3.0-0.2","subject_id":"607d8f67c90c228dadbeb3ac","study_id":"607de2837874a824e2e8c6ec","session_id":"608853edacc6cfbec0f1694b","correct":true},{"rt":711.3049999970826,"stimulus":"\n      <p>How sure are you?</p>\n      <p>Rate your confidence in your answer from 1 (pure guess) to 5 (very sure) by pressing the corresponding button.</p>\n     ","response":4,"image":"img/leaf.jpg","task":"confidence","old_or_new":"old","trial_type":"html-button-response","trial_index":8,"time_elapsed":54705,"internal_node_id":"0.0-3.0-1.2","subject_id":"607d8f67c90c228dadbeb3ac","study_id":"607de2837874a824e2e8c6ec","session_id":"608853edacc6cfbec0f1694b"},{"rt":2525.160000004689,"stimulus":"img/bowl_alternate.jpg","response":"n","image":"img/bowl_alternate.jpg","old_or_new":"new","task":"recognition","trial_type":"image-keyboard-response","trial_index":9,"time_elapsed":57732,"internal_node_id":"0.0-3.0-0.3","subject_id":"607d8f67c90c228dadbeb3ac","study_id":"607de2837874a824e2e8c6ec","session_id":"608853edacc6cfbec0f1694b","correct":true},{"rt":1342.2050000008312,"stimulus":"\n      <p>How sure are you?</p>\n      <p>Rate your confidence in your answer from 1 (pure guess) to 5 (very sure) by pressing the corresponding button.</p>\n     ","response":3,"image":"img/bowl_alternate.jpg","task":"confidence","old_or_new":"new","trial_type":"html-button-response","trial_index":10,"time_elapsed":59075,"internal_node_id":"0.0-3.0-1.3","subject_id":"607d8f67c90c228dadbeb3ac","study_id":"607de2837874a824e2e8c6ec","session_id":"608853edacc6cfbec0f1694b"},{"rt":3005.104999996547,"stimulus":"img/backpack_alternate.jpg","response":"n","image":"img/backpack_alternate.jpg","old_or_new":"new","task":"recognition","trial_type":"image-keyboard-response","trial_index":11,"time_elapsed":62582,"internal_node_id":"0.0-3.0-0.4","subject_id":"607d8f67c90c228dadbeb3ac","study_id":"607de2837874a824e2e8c6ec","session_id":"608853edacc6cfbec0f1694b","correct":true},{"rt":1228.2699999996112,"stimulus":"\n      <p>How sure are you?</p>\n      <p>Rate your confidence in your answer from 1 (pure guess) to 5 (very sure) by pressing the corresponding button.</p>\n     ","response":3,"image":"img/backpack_alternate.jpg","task":"confidence","old_or_new":"new","trial_type":"html-button-response","trial_index":12,"time_elapsed":63811,"internal_node_id":"0.0-3.0-1.4","subject_id":"607d8f67c90c228dadbeb3ac","study_id":"607de2837874a824e2e8c6ec","session_id":"608853edacc6cfbec0f1694b"},{"rt":1218.6949999959324,"stimulus":"img/coin_alternate.jpg","response":"n","image":"img/coin_alternate.jpg","old_or_new":"new","task":"recognition","trial_type":"image-keyboard-response","trial_index":13,"time_elapsed":65532,"internal_node_id":"0.0-3.0-0.5","subject_id":"607d8f67c90c228dadbeb3ac","study_id":"607de2837874a824e2e8c6ec","session_id":"608853edacc6cfbec0f1694b","correct":true},{"rt":548.7999999968451,"stimulus":"\n      <p>How sure are you?</p>\n      <p>Rate your confidence in your answer from 1 (pure guess) to 5 (very sure) by pressing the corresponding button.</p>\n     ","response":4,"image":"img/coin_alternate.jpg","task":"confidence","old_or_new":"new","trial_type":"html-button-response","trial_index":14,"time_elapsed":66081,"internal_node_id":"0.0-3.0-1.5","subject_id":"607d8f67c90c228dadbeb3ac","study_id":"607de2837874a824e2e8c6ec","session_id":"608853edacc6cfbec0f1694b"},{"rt":2078.830000005837,"stimulus":"img/calculator.jpg","response":"y","image":"img/calculator.jpg","old_or_new":"old","task":"recognition","trial_type":"image-keyboard-response","trial_index":15,"time_elapsed":68663,"internal_node_id":"0.0-3.0-0.6","subject_id":"607d8f67c90c228dadbeb3ac","study_id":"607de2837874a824e2e8c6ec","session_id":"608853edacc6cfbec0f1694b","correct":true},{"rt":5167.379999998957,"stimulus":"\n      <p>How sure are you?</p>\n      <p>Rate your confidence in your answer from 1 (pure guess) to 5 (very sure) by pressing the corresponding button.</p>\n     ","response":4,"image":"img/calculator.jpg","task":"confidence","old_or_new":"old","trial_type":"html-button-response","trial_index":16,"time_elapsed":73831,"internal_node_id":"0.0-3.0-1.6","subject_id":"607d8f67c90c228dadbeb3ac","study_id":"607de2837874a824e2e8c6ec","session_id":"608853edacc6cfbec0f1694b"},{"rt":1209.1750000035972,"stimulus":"img/backpack.jpg","response":"y","image":"img/backpack.jpg","old_or_new":"old","task":"recognition","trial_type":"image-keyboard-response","trial_index":17,"time_elapsed":75541,"internal_node_id":"0.0-3.0-0.7","subject_id":"607d8f67c90c228dadbeb3ac","study_id":"607de2837874a824e2e8c6ec","session_id":"608853edacc6cfbec0f1694b","correct":true},{"rt":557.4850000048173,"stimulus":"\n      <p>How sure are you?</p>\n      <p>Rate your confidence in your answer from 1 (pure guess) to 5 (very sure) by pressing the corresponding button.</p>\n     ","response":4,"image":"img/backpack.jpg","task":"confidence","old_or_new":"old","trial_type":"html-button-response","trial_index":18,"time_elapsed":76100,"internal_node_id":"0.0-3.0-1.7","subject_id":"607d8f67c90c228dadbeb3ac","study_id":"607de2837874a824e2e8c6ec","session_id":"608853edacc6cfbec0f1694b"},{"rt":780.4600000017672,"stimulus":"img/hat.jpg","response":"y","image":"img/hat.jpg","old_or_new":"old","task":"recognition","trial_type":"image-keyboard-response","trial_index":19,"time_elapsed":77381,"internal_node_id":"0.0-3.0-0.8","subject_id":"607d8f67c90c228dadbeb3ac","study_id":"607de2837874a824e2e8c6ec","session_id":"608853edacc6cfbec0f1694b","correct":true},{"rt":479.51499999908265,"stimulus":"\n      <p>How sure are you?</p>\n      <p>Rate your confidence in your answer from 1 (pure guess) to 5 (very sure) by pressing the corresponding button.</p>\n     ","response":4,"image":"img/hat.jpg","task":"confidence","old_or_new":"old","trial_type":"html-button-response","trial_index":20,"time_elapsed":77862,"internal_node_id":"0.0-3.0-1.8","subject_id":"607d8f67c90c228dadbeb3ac","study_id":"607de2837874a824e2e8c6ec","session_id":"608853edacc6cfbec0f1694b"},{"rt":1888.8200000001234,"stimulus":"img/hairbrush_alternate.jpg","response":"y","image":"img/hairbrush_alternate.jpg","old_or_new":"new","task":"recognition","trial_type":"image-keyboard-response","trial_index":21,"time_elapsed":80252,"internal_node_id":"0.0-3.0-0.9","subject_id":"607d8f67c90c228dadbeb3ac","study_id":"607de2837874a824e2e8c6ec","session_id":"608853edacc6cfbec0f1694b","correct":false},{"rt":627.1699999997509,"stimulus":"\n      <p>How sure are you?</p>\n      <p>Rate your confidence in your answer from 1 (pure guess) to 5 (very sure) by pressing the corresponding button.</p>\n     ","response":2,"image":"img/hairbrush_alternate.jpg","task":"confidence","old_or_new":"new","trial_type":"html-button-response","trial_index":22,"time_elapsed":80880,"internal_node_id":"0.0-3.0-1.9","subject_id":"607d8f67c90c228dadbeb3ac","study_id":"607de2837874a824e2e8c6ec","session_id":"608853edacc6cfbec0f1694b"},{"rt":711.1399999994319,"stimulus":"img/leaf_alternate.jpg","response":"y","image":"img/leaf_alternate.jpg","old_or_new":"new","task":"recognition","trial_type":"image-keyboard-response","trial_index":23,"time_elapsed":82092,"internal_node_id":"0.0-3.0-0.10","subject_id":"607d8f67c90c228dadbeb3ac","study_id":"607de2837874a824e2e8c6ec","session_id":"608853edacc6cfbec0f1694b","correct":false},{"rt":3103.2000000050175,"stimulus":"\n      <p>How sure are you?</p>\n      <p>Rate your confidence in your answer from 1 (pure guess) to 5 (very sure) by pressing the corresponding button.</p>\n     ","response":0,"image":"img/leaf_alternate.jpg","task":"confidence","old_or_new":"new","trial_type":"html-button-response","trial_index":24,"time_elapsed":85196,"internal_node_id":"0.0-3.0-1.10","subject_id":"607d8f67c90c228dadbeb3ac","study_id":"607de2837874a824e2e8c6ec","session_id":"608853edacc6cfbec0f1694b"},{"rt":1654.9749999976484,"stimulus":"img/bowl.jpg","response":"n","image":"img/bowl.jpg","old_or_new":"old","task":"recognition","trial_type":"image-keyboard-response","trial_index":25,"time_elapsed":87352,"internal_node_id":"0.0-3.0-0.11","subject_id":"607d8f67c90c228dadbeb3ac","study_id":"607de2837874a824e2e8c6ec","session_id":"608853edacc6cfbec0f1694b","correct":false},{"rt":7192.139999999199,"stimulus":"\n      <p>How sure are you?</p>\n      <p>Rate your confidence in your answer from 1 (pure guess) to 5 (very sure) by pressing the corresponding button.</p>\n     ","response":3,"image":"img/bowl.jpg","task":"confidence","old_or_new":"old","trial_type":"html-button-response","trial_index":26,"time_elapsed":94545,"internal_node_id":"0.0-3.0-1.11","subject_id":"607d8f67c90c228dadbeb3ac","study_id":"607de2837874a824e2e8c6ec","session_id":"608853edacc6cfbec0f1694b"},{"rt":1075.1300000047195,"stimulus":"img/apple_alternate.jpg","response":"y","image":"img/apple_alternate.jpg","old_or_new":"new","task":"recognition","trial_type":"image-keyboard-response","trial_index":27,"time_elapsed":96121,"internal_node_id":"0.0-3.0-0.12","subject_id":"607d8f67c90c228dadbeb3ac","study_id":"607de2837874a824e2e8c6ec","session_id":"608853edacc6cfbec0f1694b","correct":false},{"rt":657.0900000006077,"stimulus":"\n      <p>How sure are you?</p>\n      <p>Rate your confidence in your answer from 1 (pure guess) to 5 (very sure) by pressing the corresponding button.</p>\n     ","response":4,"image":"img/apple_alternate.jpg","task":"confidence","old_or_new":"new","trial_type":"html-button-response","trial_index":28,"time_elapsed":96779,"internal_node_id":"0.0-3.0-1.12","subject_id":"607d8f67c90c228dadbeb3ac","study_id":"607de2837874a824e2e8c6ec","session_id":"608853edacc6cfbec0f1694b"},{"rt":3660.23000000132,"stimulus":"img/drum_alternate.jpg","response":"n","image":"img/drum_alternate.jpg","old_or_new":"new","task":"recognition","trial_type":"image-keyboard-response","trial_index":29,"time_elapsed":100941,"internal_node_id":"0.0-3.0-0.13","subject_id":"607d8f67c90c228dadbeb3ac","study_id":"607de2837874a824e2e8c6ec","session_id":"608853edacc6cfbec0f1694b","correct":true},{"rt":1433.9300000065123,"stimulus":"\n      <p>How sure are you?</p>\n      <p>Rate your confidence in your answer from 1 (pure guess) to 5 (very sure) by pressing the corresponding button.</p>\n     ","response":3,"image":"img/drum_alternate.jpg","task":"confidence","old_or_new":"new","trial_type":"html-button-response","trial_index":30,"time_elapsed":102375,"internal_node_id":"0.0-3.0-1.13","subject_id":"607d8f67c90c228dadbeb3ac","study_id":"607de2837874a824e2e8c6ec","session_id":"608853edacc6cfbec0f1694b"},{"rt":2772.579999997106,"stimulus":"img/folder_alternate.jpg","response":"n","image":"img/folder_alternate.jpg","old_or_new":"new","task":"recognition","trial_type":"image-keyboard-response","trial_index":31,"time_elapsed":105650,"internal_node_id":"0.0-3.0-0.14","subject_id":"607d8f67c90c228dadbeb3ac","study_id":"607de2837874a824e2e8c6ec","session_id":"608853edacc6cfbec0f1694b","correct":true},{"rt":718.605000001844,"stimulus":"\n      <p>How sure are you?</p>\n      <p>Rate your confidence in your answer from 1 (pure guess) to 5 (very sure) by pressing the corresponding button.</p>\n     ","response":4,"image":"img/folder_alternate.jpg","task":"confidence","old_or_new":"new","trial_type":"html-button-response","trial_index":32,"time_elapsed":106370,"internal_node_id":"0.0-3.0-1.14","subject_id":"607d8f67c90c228dadbeb3ac","study_id":"607de2837874a824e2e8c6ec","session_id":"608853edacc6cfbec0f1694b"},{"rt":1089.9700000009034,"stimulus":"img/basket_alternate.jpg","response":"n","image":"img/basket_alternate.jpg","old_or_new":"new","task":"recognition","trial_type":"image-keyboard-response","trial_index":33,"time_elapsed":107961,"internal_node_id":"0.0-3.0-0.15","subject_id":"607d8f67c90c228dadbeb3ac","study_id":"607de2837874a824e2e8c6ec","session_id":"608853edacc6cfbec0f1694b","correct":true},{"rt":1110.5250000036904,"stimulus":"\n      <p>How sure are you?</p>\n      <p>Rate your confidence in your answer from 1 (pure guess) to 5 (very sure) by pressing the corresponding button.</p>\n     ","response":4,"image":"img/basket_alternate.jpg","task":"confidence","old_or_new":"new","trial_type":"html-button-response","trial_index":34,"time_elapsed":109072,"internal_node_id":"0.0-3.0-1.15","subject_id":"607d8f67c90c228dadbeb3ac","study_id":"607de2837874a824e2e8c6ec","session_id":"608853edacc6cfbec0f1694b"},{"rt":946.7750000039814,"stimulus":"img/hair_tie_alternate.jpg","response":"n","image":"img/hair_tie_alternate.jpg","old_or_new":"new","task":"recognition","trial_type":"image-keyboard-response","trial_index":35,"time_elapsed":110520,"internal_node_id":"0.0-3.0-0.16","subject_id":"607d8f67c90c228dadbeb3ac","study_id":"607de2837874a824e2e8c6ec","session_id":"608853edacc6cfbec0f1694b","correct":true},{"rt":755.4799999998068,"stimulus":"\n      <p>How sure are you?</p>\n      <p>Rate your confidence in your answer from 1 (pure guess) to 5 (very sure) by pressing the corresponding button.</p>\n     ","response":4,"image":"img/hair_tie_alternate.jpg","task":"confidence","old_or_new":"new","trial_type":"html-button-response","trial_index":36,"time_elapsed":111276,"internal_node_id":"0.0-3.0-1.16","subject_id":"607d8f67c90c228dadbeb3ac","study_id":"607de2837874a824e2e8c6ec","session_id":"608853edacc6cfbec0f1694b"},{"rt":862.7199999973527,"stimulus":"img/calculator_alternate.jpg","response":"n","image":"img/calculator_alternate.jpg","old_or_new":"new","task":"recognition","trial_type":"image-keyboard-response","trial_index":37,"time_elapsed":112640,"internal_node_id":"0.0-3.0-0.17","subject_id":"607d8f67c90c228dadbeb3ac","study_id":"607de2837874a824e2e8c6ec","session_id":"608853edacc6cfbec0f1694b","correct":true},{"rt":516.3199999951757,"stimulus":"\n      <p>How sure are you?</p>\n      <p>Rate your confidence in your answer from 1 (pure guess) to 5 (very sure) by pressing the corresponding button.</p>\n     ","response":4,"image":"img/calculator_alternate.jpg","task":"confidence","old_or_new":"new","trial_type":"html-button-response","trial_index":38,"time_elapsed":113157,"internal_node_id":"0.0-3.0-1.17","subject_id":"607d8f67c90c228dadbeb3ac","study_id":"607de2837874a824e2e8c6ec","session_id":"608853edacc6cfbec0f1694b"},{"rt":1750.7249999980559,"stimulus":"img/helmet_alternate.jpg","response":"y","image":"img/helmet_alternate.jpg","old_or_new":"new","task":"recognition","trial_type":"image-keyboard-response","trial_index":39,"time_elapsed":115409,"internal_node_id":"0.0-3.0-0.18","subject_id":"607d8f67c90c228dadbeb3ac","study_id":"607de2837874a824e2e8c6ec","session_id":"608853edacc6cfbec0f1694b","correct":false},{"rt":970.4899999996996,"stimulus":"\n      <p>How sure are you?</p>\n      <p>Rate your confidence in your answer from 1 (pure guess) to 5 (very sure) by pressing the corresponding button.</p>\n     ","response":2,"image":"img/helmet_alternate.jpg","task":"confidence","old_or_new":"new","trial_type":"html-button-response","trial_index":40,"time_elapsed":116381,"internal_node_id":"0.0-3.0-1.18","subject_id":"607d8f67c90c228dadbeb3ac","study_id":"607de2837874a824e2e8c6ec","session_id":"608853edacc6cfbec0f1694b"},{"rt":1607.3800000012852,"stimulus":"img/ladder_alternate.jpg","response":"n","image":"img/ladder_alternate.jpg","old_or_new":"new","task":"recognition","trial_type":"image-keyboard-response","trial_index":41,"time_elapsed":118490,"internal_node_id":"0.0-3.0-0.19","subject_id":"607d8f67c90c228dadbeb3ac","study_id":"607de2837874a824e2e8c6ec","session_id":"608853edacc6cfbec0f1694b","correct":true},{"rt":3756.2050000051386,"stimulus":"\n      <p>How sure are you?</p>\n      <p>Rate your confidence in your answer from 1 (pure guess) to 5 (very sure) by pressing the corresponding button.</p>\n     ","response":3,"image":"img/ladder_alternate.jpg","task":"confidence","old_or_new":"new","trial_type":"html-button-response","trial_index":42,"time_elapsed":122247,"internal_node_id":"0.0-3.0-1.19","subject_id":"607d8f67c90c228dadbeb3ac","study_id":"607de2837874a824e2e8c6ec","session_id":"608853edacc6cfbec0f1694b"},{"rt":1741.1700000011479,"stimulus":"img/grapes_alternate.jpg","response":"y","image":"img/grapes_alternate.jpg","old_or_new":"new","task":"recognition","trial_type":"image-keyboard-response","trial_index":43,"time_elapsed":124490,"internal_node_id":"0.0-3.0-0.20","subject_id":"607d8f67c90c228dadbeb3ac","study_id":"607de2837874a824e2e8c6ec","session_id":"608853edacc6cfbec0f1694b","correct":false},{"rt":1351.2950000003912,"stimulus":"\n      <p>How sure are you?</p>\n      <p>Rate your confidence in your answer from 1 (pure guess) to 5 (very sure) by pressing the corresponding button.</p>\n     ","response":4,"image":"img/grapes_alternate.jpg","task":"confidence","old_or_new":"new","trial_type":"html-button-response","trial_index":44,"time_elapsed":125842,"internal_node_id":"0.0-3.0-1.20","subject_id":"607d8f67c90c228dadbeb3ac","study_id":"607de2837874a824e2e8c6ec","session_id":"608853edacc6cfbec0f1694b"},{"rt":1614.82000000251,"stimulus":"img/hat_alternate.jpg","response":"y","image":"img/hat_alternate.jpg","old_or_new":"new","task":"recognition","trial_type":"image-keyboard-response","trial_index":45,"time_elapsed":127958,"internal_node_id":"0.0-3.0-0.21","subject_id":"607d8f67c90c228dadbeb3ac","study_id":"607de2837874a824e2e8c6ec","session_id":"608853edacc6cfbec0f1694b","correct":false},{"rt":1158.465000000433,"stimulus":"\n      <p>How sure are you?</p>\n      <p>Rate your confidence in your answer from 1 (pure guess) to 5 (very sure) by pressing the corresponding button.</p>\n     ","response":2,"image":"img/hat_alternate.jpg","task":"confidence","old_or_new":"new","trial_type":"html-button-response","trial_index":46,"time_elapsed":129117,"internal_node_id":"0.0-3.0-1.21","subject_id":"607d8f67c90c228dadbeb3ac","study_id":"607de2837874a824e2e8c6ec","session_id":"608853edacc6cfbec0f1694b"},{"rt":2540.3450000012526,"stimulus":"img/dryer.jpg","response":"y","image":"img/dryer.jpg","old_or_new":"old","task":"recognition","trial_type":"image-keyboard-response","trial_index":47,"time_elapsed":132159,"internal_node_id":"0.0-3.0-0.22","subject_id":"607d8f67c90c228dadbeb3ac","study_id":"607de2837874a824e2e8c6ec","session_id":"608853edacc6cfbec0f1694b","correct":true},{"rt":814.7549999994226,"stimulus":"\n      <p>How sure are you?</p>\n      <p>Rate your confidence in your answer from 1 (pure guess) to 5 (very sure) by pressing the corresponding button.</p>\n     ","response":4,"image":"img/dryer.jpg","task":"confidence","old_or_new":"old","trial_type":"html-button-response","trial_index":48,"time_elapsed":132974,"internal_node_id":"0.0-3.0-1.22","subject_id":"607d8f67c90c228dadbeb3ac","study_id":"607de2837874a824e2e8c6ec","session_id":"608853edacc6cfbec0f1694b"},{"rt":911.4100000006147,"stimulus":"img/hair_tie.jpg","response":"y","image":"img/hair_tie.jpg","old_or_new":"old","task":"recognition","trial_type":"image-keyboard-response","trial_index":49,"time_elapsed":134388,"internal_node_id":"0.0-3.0-0.23","subject_id":"607d8f67c90c228dadbeb3ac","study_id":"607de2837874a824e2e8c6ec","session_id":"608853edacc6cfbec0f1694b","correct":true},{"rt":1413.4049999993294,"stimulus":"\n      <p>How sure are you?</p>\n      <p>Rate your confidence in your answer from 1 (pure guess) to 5 (very sure) by pressing the corresponding button.</p>\n     ","response":4,"image":"img/hair_tie.jpg","task":"confidence","old_or_new":"old","trial_type":"html-button-response","trial_index":50,"time_elapsed":135802,"internal_node_id":"0.0-3.0-1.23","subject_id":"607d8f67c90c228dadbeb3ac","study_id":"607de2837874a824e2e8c6ec","session_id":"608853edacc6cfbec0f1694b"},{"rt":734.9400000020978,"stimulus":"img/globe.jpg","response":"y","image":"img/globe.jpg","old_or_new":"old","task":"recognition","trial_type":"image-keyboard-response","trial_index":51,"time_elapsed":137038,"internal_node_id":"0.0-3.0-0.24","subject_id":"607d8f67c90c228dadbeb3ac","study_id":"607de2837874a824e2e8c6ec","session_id":"608853edacc6cfbec0f1694b","correct":true},{"rt":587.5599999999395,"stimulus":"\n      <p>How sure are you?</p>\n      <p>Rate your confidence in your answer from 1 (pure guess) to 5 (very sure) by pressing the corresponding button.</p>\n     ","response":4,"image":"img/globe.jpg","task":"confidence","old_or_new":"old","trial_type":"html-button-response","trial_index":52,"time_elapsed":137626,"internal_node_id":"0.0-3.0-1.24","subject_id":"607d8f67c90c228dadbeb3ac","study_id":"607de2837874a824e2e8c6ec","session_id":"608853edacc6cfbec0f1694b"},{"rt":1081.0399999973015,"stimulus":"img/chair_alternate.jpg","response":"n","image":"img/chair_alternate.jpg","old_or_new":"new","task":"recognition","trial_type":"image-keyboard-response","trial_index":53,"time_elapsed":139208,"internal_node_id":"0.0-3.0-0.25","subject_id":"607d8f67c90c228dadbeb3ac","study_id":"607de2837874a824e2e8c6ec","session_id":"608853edacc6cfbec0f1694b","correct":true},{"rt":1427.190000002156,"stimulus":"\n      <p>How sure are you?</p>\n      <p>Rate your confidence in your answer from 1 (pure guess) to 5 (very sure) by pressing the corresponding button.</p>\n     ","response":4,"image":"img/chair_alternate.jpg","task":"confidence","old_or_new":"new","trial_type":"html-button-response","trial_index":54,"time_elapsed":140636,"internal_node_id":"0.0-3.0-1.25","subject_id":"607d8f67c90c228dadbeb3ac","study_id":"607de2837874a824e2e8c6ec","session_id":"608853edacc6cfbec0f1694b"},{"rt":780.350000000908,"stimulus":"img/chair.jpg","response":"y","image":"img/chair.jpg","old_or_new":"old","task":"recognition","trial_type":"image-keyboard-response","trial_index":55,"time_elapsed":141918,"internal_node_id":"0.0-3.0-0.26","subject_id":"607d8f67c90c228dadbeb3ac","study_id":"607de2837874a824e2e8c6ec","session_id":"608853edacc6cfbec0f1694b","correct":true},{"rt":538.2949999984703,"stimulus":"\n      <p>How sure are you?</p>\n      <p>Rate your confidence in your answer from 1 (pure guess) to 5 (very sure) by pressing the corresponding button.</p>\n     ","response":4,"image":"img/chair.jpg","task":"confidence","old_or_new":"old","trial_type":"html-button-response","trial_index":56,"time_elapsed":142457,"internal_node_id":"0.0-3.0-1.26","subject_id":"607d8f67c90c228dadbeb3ac","study_id":"607de2837874a824e2e8c6ec","session_id":"608853edacc6cfbec0f1694b"},{"rt":1649.9799999946845,"stimulus":"img/lightbulb.jpg","response":"y","image":"img/lightbulb.jpg","old_or_new":"old","task":"recognition","trial_type":"image-keyboard-response","trial_index":57,"time_elapsed":144608,"internal_node_id":"0.0-3.0-0.27","subject_id":"607d8f67c90c228dadbeb3ac","study_id":"607de2837874a824e2e8c6ec","session_id":"608853edacc6cfbec0f1694b","correct":true},{"rt":1539.3350000013015,"stimulus":"\n      <p>How sure are you?</p>\n      <p>Rate your confidence in your answer from 1 (pure guess) to 5 (very sure) by pressing the corresponding button.</p>\n     ","response":2,"image":"img/lightbulb.jpg","task":"confidence","old_or_new":"old","trial_type":"html-button-response","trial_index":58,"time_elapsed":146148,"internal_node_id":"0.0-3.0-1.27","subject_id":"607d8f67c90c228dadbeb3ac","study_id":"607de2837874a824e2e8c6ec","session_id":"608853edacc6cfbec0f1694b"},{"rt":1297.374999994645,"stimulus":"img/drum.jpg","response":"y","image":"img/drum.jpg","old_or_new":"old","task":"recognition","trial_type":"image-keyboard-response","trial_index":59,"time_elapsed":147947,"internal_node_id":"0.0-3.0-0.28","subject_id":"607d8f67c90c228dadbeb3ac","study_id":"607de2837874a824e2e8c6ec","session_id":"608853edacc6cfbec0f1694b","correct":true},{"rt":637.4199999991106,"stimulus":"\n      <p>How sure are you?</p>\n      <p>Rate your confidence in your answer from 1 (pure guess) to 5 (very sure) by pressing the corresponding button.</p>\n     ","response":4,"image":"img/drum.jpg","task":"confidence","old_or_new":"old","trial_type":"html-button-response","trial_index":60,"time_elapsed":148585,"internal_node_id":"0.0-3.0-1.28","subject_id":"607d8f67c90c228dadbeb3ac","study_id":"607de2837874a824e2e8c6ec","session_id":"608853edacc6cfbec0f1694b"},{"rt":5670.755000006466,"stimulus":"img/hairbrush.jpg","response":"y","image":"img/hairbrush.jpg","old_or_new":"old","task":"recognition","trial_type":"image-keyboard-response","trial_index":61,"time_elapsed":154757,"internal_node_id":"0.0-3.0-0.29","subject_id":"607d8f67c90c228dadbeb3ac","study_id":"607de2837874a824e2e8c6ec","session_id":"608853edacc6cfbec0f1694b","correct":true},{"rt":687.0350000026519,"stimulus":"\n      <p>How sure are you?</p>\n      <p>Rate your confidence in your answer from 1 (pure guess) to 5 (very sure) by pressing the corresponding button.</p>\n     ","response":4,"image":"img/hairbrush.jpg","task":"confidence","old_or_new":"old","trial_type":"html-button-response","trial_index":62,"time_elapsed":155445,"internal_node_id":"0.0-3.0-1.29","subject_id":"607d8f67c90c228dadbeb3ac","study_id":"607de2837874a824e2e8c6ec","session_id":"608853edacc6cfbec0f1694b"},{"rt":2420.6750000012107,"stimulus":"img/key.jpg","response":"y","image":"img/key.jpg","old_or_new":"old","task":"recognition","trial_type":"image-keyboard-response","trial_index":63,"time_elapsed":158368,"internal_node_id":"0.0-3.0-0.30","subject_id":"607d8f67c90c228dadbeb3ac","study_id":"607de2837874a824e2e8c6ec","session_id":"608853edacc6cfbec0f1694b","correct":true},{"rt":3513.9599999965867,"stimulus":"\n      <p>How sure are you?</p>\n      <p>Rate your confidence in your answer from 1 (pure guess) to 5 (very sure) by pressing the corresponding button.</p>\n     ","response":4,"image":"img/key.jpg","task":"confidence","old_or_new":"old","trial_type":"html-button-response","trial_index":64,"time_elapsed":161882,"internal_node_id":"0.0-3.0-1.30","subject_id":"607d8f67c90c228dadbeb3ac","study_id":"607de2837874a824e2e8c6ec","session_id":"608853edacc6cfbec0f1694b"},{"rt":1793.854999996256,"stimulus":"img/camera.jpg","response":"n","image":"img/camera.jpg","old_or_new":"old","task":"recognition","trial_type":"image-keyboard-response","trial_index":65,"time_elapsed":164177,"internal_node_id":"0.0-3.0-0.31","subject_id":"607d8f67c90c228dadbeb3ac","study_id":"607de2837874a824e2e8c6ec","session_id":"608853edacc6cfbec0f1694b","correct":false},{"rt":880.395000000135,"stimulus":"\n      <p>How sure are you?</p>\n      <p>Rate your confidence in your answer from 1 (pure guess) to 5 (very sure) by pressing the corresponding button.</p>\n     ","response":2,"image":"img/camera.jpg","task":"confidence","old_or_new":"old","trial_type":"html-button-response","trial_index":66,"time_elapsed":165058,"internal_node_id":"0.0-3.0-1.31","subject_id":"607d8f67c90c228dadbeb3ac","study_id":"607de2837874a824e2e8c6ec","session_id":"608853edacc6cfbec0f1694b"},{"rt":1007.1150000003399,"stimulus":"img/fan.jpg","response":"y","image":"img/fan.jpg","old_or_new":"old","task":"recognition","trial_type":"image-keyboard-response","trial_index":67,"time_elapsed":166566,"internal_node_id":"0.0-3.0-0.32","subject_id":"607d8f67c90c228dadbeb3ac","study_id":"607de2837874a824e2e8c6ec","session_id":"608853edacc6cfbec0f1694b","correct":true},{"rt":746.2300000042887,"stimulus":"\n      <p>How sure are you?</p>\n      <p>Rate your confidence in your answer from 1 (pure guess) to 5 (very sure) by pressing the corresponding button.</p>\n     ","response":4,"image":"img/fan.jpg","task":"confidence","old_or_new":"old","trial_type":"html-button-response","trial_index":68,"time_elapsed":167313,"internal_node_id":"0.0-3.0-1.32","subject_id":"607d8f67c90c228dadbeb3ac","study_id":"607de2837874a824e2e8c6ec","session_id":"608853edacc6cfbec0f1694b"},{"rt":1351.089999996475,"stimulus":"img/ladder.jpg","response":"y","image":"img/ladder.jpg","old_or_new":"old","task":"recognition","trial_type":"image-keyboard-response","trial_index":69,"time_elapsed":169166,"internal_node_id":"0.0-3.0-0.33","subject_id":"607d8f67c90c228dadbeb3ac","study_id":"607de2837874a824e2e8c6ec","session_id":"608853edacc6cfbec0f1694b","correct":true},{"rt":713.6249999966822,"stimulus":"\n      <p>How sure are you?</p>\n      <p>Rate your confidence in your answer from 1 (pure guess) to 5 (very sure) by pressing the corresponding button.</p>\n     ","response":4,"image":"img/ladder.jpg","task":"confidence","old_or_new":"old","trial_type":"html-button-response","trial_index":70,"time_elapsed":169881,"internal_node_id":"0.0-3.0-1.33","subject_id":"607d8f67c90c228dadbeb3ac","study_id":"607de2837874a824e2e8c6ec","session_id":"608853edacc6cfbec0f1694b"},{"rt":753.2449999998789,"stimulus":"img/folder.jpg","response":"y","image":"img/folder.jpg","old_or_new":"old","task":"recognition","trial_type":"image-keyboard-response","trial_index":71,"time_elapsed":171136,"internal_node_id":"0.0-3.0-0.34","subject_id":"607d8f67c90c228dadbeb3ac","study_id":"607de2837874a824e2e8c6ec","session_id":"608853edacc6cfbec0f1694b","correct":true},{"rt":660.4949999964447,"stimulus":"\n      <p>How sure are you?</p>\n      <p>Rate your confidence in your answer from 1 (pure guess) to 5 (very sure) by pressing the corresponding button.</p>\n     ","response":4,"image":"img/folder.jpg","task":"confidence","old_or_new":"old","trial_type":"html-button-response","trial_index":72,"time_elapsed":171797,"internal_node_id":"0.0-3.0-1.34","subject_id":"607d8f67c90c228dadbeb3ac","study_id":"607de2837874a824e2e8c6ec","session_id":"608853edacc6cfbec0f1694b"},{"rt":1017.4899999983609,"stimulus":"img/globe_alternate.jpg","response":"n","image":"img/globe_alternate.jpg","old_or_new":"new","task":"recognition","trial_type":"image-keyboard-response","trial_index":73,"time_elapsed":173317,"internal_node_id":"0.0-3.0-0.35","subject_id":"607d8f67c90c228dadbeb3ac","study_id":"607de2837874a824e2e8c6ec","session_id":"608853edacc6cfbec0f1694b","correct":true},{"rt":596.2150000050315,"stimulus":"\n      <p>How sure are you?</p>\n      <p>Rate your confidence in your answer from 1 (pure guess) to 5 (very sure) by pressing the corresponding button.</p>\n     ","response":4,"image":"img/globe_alternate.jpg","task":"confidence","old_or_new":"new","trial_type":"html-button-response","trial_index":74,"time_elapsed":173913,"internal_node_id":"0.0-3.0-1.35","subject_id":"607d8f67c90c228dadbeb3ac","study_id":"607de2837874a824e2e8c6ec","session_id":"608853edacc6cfbec0f1694b"},{"rt":602.0799999969313,"stimulus":"img/apple.jpg","response":"y","image":"img/apple.jpg","old_or_new":"old","task":"recognition","trial_type":"image-keyboard-response","trial_index":75,"time_elapsed":175017,"internal_node_id":"0.0-3.0-0.36","subject_id":"607d8f67c90c228dadbeb3ac","study_id":"607de2837874a824e2e8c6ec","session_id":"608853edacc6cfbec0f1694b","correct":true},{"rt":523.910000003525,"stimulus":"\n      <p>How sure are you?</p>\n      <p>Rate your confidence in your answer from 1 (pure guess) to 5 (very sure) by pressing the corresponding button.</p>\n     ","response":4,"image":"img/apple.jpg","task":"confidence","old_or_new":"old","trial_type":"html-button-response","trial_index":76,"time_elapsed":175541,"internal_node_id":"0.0-3.0-1.36","subject_id":"607d8f67c90c228dadbeb3ac","study_id":"607de2837874a824e2e8c6ec","session_id":"608853edacc6cfbec0f1694b"},{"rt":1524.0350000021863,"stimulus":"img/fan_alternate.jpg","response":"y","image":"img/fan_alternate.jpg","old_or_new":"new","task":"recognition","trial_type":"image-keyboard-response","trial_index":77,"time_elapsed":177566,"internal_node_id":"0.0-3.0-0.37","subject_id":"607d8f67c90c228dadbeb3ac","study_id":"607de2837874a824e2e8c6ec","session_id":"608853edacc6cfbec0f1694b","correct":false},{"rt":710.3750000023865,"stimulus":"\n      <p>How sure are you?</p>\n      <p>Rate your confidence in your answer from 1 (pure guess) to 5 (very sure) by pressing the corresponding button.</p>\n     ","response":2,"image":"img/fan_alternate.jpg","task":"confidence","old_or_new":"new","trial_type":"html-button-response","trial_index":78,"time_elapsed":178277,"internal_node_id":"0.0-3.0-1.37","subject_id":"607d8f67c90c228dadbeb3ac","study_id":"607de2837874a824e2e8c6ec","session_id":"608853edacc6cfbec0f1694b"},{"rt":1057.3900000017602,"stimulus":"img/glasses_alternate.jpg","response":"n","image":"img/glasses_alternate.jpg","old_or_new":"new","task":"recognition","trial_type":"image-keyboard-response","trial_index":79,"time_elapsed":179836,"internal_node_id":"0.0-3.0-0.38","subject_id":"607d8f67c90c228dadbeb3ac","study_id":"607de2837874a824e2e8c6ec","session_id":"608853edacc6cfbec0f1694b","correct":true},{"rt":748.2250000030035,"stimulus":"\n      <p>How sure are you?</p>\n      <p>Rate your confidence in your answer from 1 (pure guess) to 5 (very sure) by pressing the corresponding button.</p>\n     ","response":4,"image":"img/glasses_alternate.jpg","task":"confidence","old_or_new":"new","trial_type":"html-button-response","trial_index":80,"time_elapsed":180585,"internal_node_id":"0.0-3.0-1.38","subject_id":"607d8f67c90c228dadbeb3ac","study_id":"607de2837874a824e2e8c6ec","session_id":"608853edacc6cfbec0f1694b"},{"rt":1459.8299999997835,"stimulus":"img/key_alternate.jpg","response":"n","image":"img/key_alternate.jpg","old_or_new":"new","task":"recognition","trial_type":"image-keyboard-response","trial_index":81,"time_elapsed":182546,"internal_node_id":"0.0-3.0-0.39","subject_id":"607d8f67c90c228dadbeb3ac","study_id":"607de2837874a824e2e8c6ec","session_id":"608853edacc6cfbec0f1694b","correct":true},{"rt":1412.4599999995553,"stimulus":"\n      <p>How sure are you?</p>\n      <p>Rate your confidence in your answer from 1 (pure guess) to 5 (very sure) by pressing the corresponding button.</p>\n     ","response":2,"image":"img/key_alternate.jpg","task":"confidence","old_or_new":"new","trial_type":"html-button-response","trial_index":82,"time_elapsed":183959,"internal_node_id":"0.0-3.0-1.39","subject_id":"607d8f67c90c228dadbeb3ac","study_id":"607de2837874a824e2e8c6ec","session_id":"608853edacc6cfbec0f1694b"},{"rt":1525.2050000053714,"stimulus":"img/dryer_alternate.jpg","response":"n","image":"img/dryer_alternate.jpg","old_or_new":"new","task":"recognition","trial_type":"image-keyboard-response","trial_index":83,"time_elapsed":185985,"internal_node_id":"0.0-3.0-0.40","subject_id":"607d8f67c90c228dadbeb3ac","study_id":"607de2837874a824e2e8c6ec","session_id":"608853edacc6cfbec0f1694b","correct":true},{"rt":685.1699999970151,"stimulus":"\n      <p>How sure are you?</p>\n      <p>Rate your confidence in your answer from 1 (pure guess) to 5 (very sure) by pressing the corresponding button.</p>\n     ","response":2,"image":"img/dryer_alternate.jpg","task":"confidence","old_or_new":"new","trial_type":"html-button-response","trial_index":84,"time_elapsed":186671,"internal_node_id":"0.0-3.0-1.40","subject_id":"607d8f67c90c228dadbeb3ac","study_id":"607de2837874a824e2e8c6ec","session_id":"608853edacc6cfbec0f1694b"},{"rt":992.9199999969569,"stimulus":"img/hourglass.jpg","response":"y","image":"img/hourglass.jpg","old_or_new":"old","task":"recognition","trial_type":"image-keyboard-response","trial_index":85,"time_elapsed":188165,"internal_node_id":"0.0-3.0-0.41","subject_id":"607d8f67c90c228dadbeb3ac","study_id":"607de2837874a824e2e8c6ec","session_id":"608853edacc6cfbec0f1694b","correct":true},{"rt":583.3100000018021,"stimulus":"\n      <p>How sure are you?</p>\n      <p>Rate your confidence in your answer from 1 (pure guess) to 5 (very sure) by pressing the corresponding button.</p>\n     ","response":4,"image":"img/hourglass.jpg","task":"confidence","old_or_new":"old","trial_type":"html-button-response","trial_index":86,"time_elapsed":188749,"internal_node_id":"0.0-3.0-1.41","subject_id":"607d8f67c90c228dadbeb3ac","study_id":"607de2837874a824e2e8c6ec","session_id":"608853edacc6cfbec0f1694b"},{"rt":865.2650000003632,"stimulus":"img/hourglass_alternate.jpg","response":"n","image":"img/hourglass_alternate.jpg","old_or_new":"new","task":"recognition","trial_type":"image-keyboard-response","trial_index":87,"time_elapsed":190115,"internal_node_id":"0.0-3.0-0.42","subject_id":"607d8f67c90c228dadbeb3ac","study_id":"607de2837874a824e2e8c6ec","session_id":"608853edacc6cfbec0f1694b","correct":true},{"rt":644.4899999987683,"stimulus":"\n      <p>How sure are you?</p>\n      <p>Rate your confidence in your answer from 1 (pure guess) to 5 (very sure) by pressing the corresponding button.</p>\n     ","response":4,"image":"img/hourglass_alternate.jpg","task":"confidence","old_or_new":"new","trial_type":"html-button-response","trial_index":88,"time_elapsed":190760,"internal_node_id":"0.0-3.0-1.42","subject_id":"607d8f67c90c228dadbeb3ac","study_id":"607de2837874a824e2e8c6ec","session_id":"608853edacc6cfbec0f1694b"},{"rt":813.9100000043982,"stimulus":"img/lightbulb_alternate.jpg","response":"n","image":"img/lightbulb_alternate.jpg","old_or_new":"new","task":"recognition","trial_type":"image-keyboard-response","trial_index":89,"time_elapsed":192075,"internal_node_id":"0.0-3.0-0.43","subject_id":"607d8f67c90c228dadbeb3ac","study_id":"607de2837874a824e2e8c6ec","session_id":"608853edacc6cfbec0f1694b","correct":true},{"rt":598.2000000003609,"stimulus":"\n      <p>How sure are you?</p>\n      <p>Rate your confidence in your answer from 1 (pure guess) to 5 (very sure) by pressing the corresponding button.</p>\n     ","response":4,"image":"img/lightbulb_alternate.jpg","task":"confidence","old_or_new":"new","trial_type":"html-button-response","trial_index":90,"time_elapsed":192673,"internal_node_id":"0.0-3.0-1.43","subject_id":"607d8f67c90c228dadbeb3ac","study_id":"607de2837874a824e2e8c6ec","session_id":"608853edacc6cfbec0f1694b"},{"rt":939.8949999958859,"stimulus":"img/coin.jpg","response":"y","image":"img/coin.jpg","old_or_new":"old","task":"recognition","trial_type":"image-keyboard-response","trial_index":91,"time_elapsed":194115,"internal_node_id":"0.0-3.0-0.44","subject_id":"607d8f67c90c228dadbeb3ac","study_id":"607de2837874a824e2e8c6ec","session_id":"608853edacc6cfbec0f1694b","correct":true},{"rt":551.3199999986682,"stimulus":"\n      <p>How sure are you?</p>\n      <p>Rate your confidence in your answer from 1 (pure guess) to 5 (very sure) by pressing the corresponding button.</p>\n     ","response":4,"image":"img/coin.jpg","task":"confidence","old_or_new":"old","trial_type":"html-button-response","trial_index":92,"time_elapsed":194667,"internal_node_id":"0.0-3.0-1.44","subject_id":"607d8f67c90c228dadbeb3ac","study_id":"607de2837874a824e2e8c6ec","session_id":"608853edacc6cfbec0f1694b"},{"rt":816.5000000008149,"stimulus":"img/basket.jpg","response":"y","image":"img/basket.jpg","old_or_new":"old","task":"recognition","trial_type":"image-keyboard-response","trial_index":93,"time_elapsed":195985,"internal_node_id":"0.0-3.0-0.45","subject_id":"607d8f67c90c228dadbeb3ac","study_id":"607de2837874a824e2e8c6ec","session_id":"608853edacc6cfbec0f1694b","correct":true},{"rt":529.4799999974202,"stimulus":"\n      <p>How sure are you?</p>\n      <p>Rate your confidence in your answer from 1 (pure guess) to 5 (very sure) by pressing the corresponding button.</p>\n     ","response":4,"image":"img/basket.jpg","task":"confidence","old_or_new":"old","trial_type":"html-button-response","trial_index":94,"time_elapsed":196515,"internal_node_id":"0.0-3.0-1.45","subject_id":"607d8f67c90c228dadbeb3ac","study_id":"607de2837874a824e2e8c6ec","session_id":"608853edacc6cfbec0f1694b"},{"rt":3408.6649999953806,"stimulus":"img/glasses.jpg","response":"y","image":"img/glasses.jpg","old_or_new":"old","task":"recognition","trial_type":"image-keyboard-response","trial_index":95,"time_elapsed":200425,"internal_node_id":"0.0-3.0-0.46","subject_id":"607d8f67c90c228dadbeb3ac","study_id":"607de2837874a824e2e8c6ec","session_id":"608853edacc6cfbec0f1694b","correct":true},{"rt":796.1700000014389,"stimulus":"\n      <p>How sure are you?</p>\n      <p>Rate your confidence in your answer from 1 (pure guess) to 5 (very sure) by pressing the corresponding button.</p>\n     ","response":4,"image":"img/glasses.jpg","task":"confidence","old_or_new":"old","trial_type":"html-button-response","trial_index":96,"time_elapsed":201222,"internal_node_id":"0.0-3.0-1.46","subject_id":"607d8f67c90c228dadbeb3ac","study_id":"607de2837874a824e2e8c6ec","session_id":"608853edacc6cfbec0f1694b"},{"rt":2720.8749999990687,"stimulus":"img/grapes.jpg","response":"n","image":"img/grapes.jpg","old_or_new":"old","task":"recognition","trial_type":"image-keyboard-response","trial_index":97,"time_elapsed":204444,"internal_node_id":"0.0-3.0-0.47","subject_id":"607d8f67c90c228dadbeb3ac","study_id":"607de2837874a824e2e8c6ec","session_id":"608853edacc6cfbec0f1694b","correct":false},{"rt":1336.3599999938742,"stimulus":"\n      <p>How sure are you?</p>\n      <p>Rate your confidence in your answer from 1 (pure guess) to 5 (very sure) by pressing the corresponding button.</p>\n     ","response":1,"image":"img/grapes.jpg","task":"confidence","old_or_new":"old","trial_type":"html-button-response","trial_index":98,"time_elapsed":205781,"internal_node_id":"0.0-3.0-1.47","subject_id":"607d8f67c90c228dadbeb3ac","study_id":"607de2837874a824e2e8c6ec","session_id":"608853edacc6cfbec0f1694b"}]