[{"success":true,"timeout":false,"failed_images":[],"failed_audio":[],"failed_video":[],"trial_type":"preload","trial_index":0,"time_elapsed":5057,"internal_node_id":"0.0-0.0","subject_id":"5d2cd6efce04670001b0ea04","study_id":"607de2837874a824e2e8c6ec","session_id":"608860adaacd9e43adc208d7"},{"rt":7759.939999999915,"stimulus":"\n      <div style=\"width:800px; text-align: left;\">\n        <p>Welcome to day 2 of the experiment! Thanks for coming back.</p>\n        <p>You will be presented with a series of images. Images will appear one at a time.</p>\n        <p>Each image will remain on the screen until you press either <span style=\"font-weight: bold;\">\"y\" to indicate you have seen the \n        exact same photo the day before or \"n\" to indicate you have not seen the exact same photo the day before.</span></p>\n        <p>After you answer yes (\"y\") or no (\"n\"), you will then be prompted to rate your certainty on a scale of\n        1 (pure guess) to 5 (very sure).</p>\n      </div>\n    ","response":0,"trial_type":"html-button-response","trial_index":1,"time_elapsed":12819,"internal_node_id":"0.0-1.0","subject_id":"5d2cd6efce04670001b0ea04","study_id":"607de2837874a824e2e8c6ec","session_id":"608860adaacd9e43adc208d7"},{"success":true,"trial_type":"fullscreen","trial_index":2,"time_elapsed":15615,"internal_node_id":"0.0-2.0","subject_id":"5d2cd6efce04670001b0ea04","study_id":"607de2837874a824e2e8c6ec","session_id":"608860adaacd9e43adc208d7"},{"rt":2274.3650000002162,"stimulus":"img/dryer.jpg","response":"y","image":"img/dryer.jpg","old_or_new":"old","task":"recognition","trial_type":"image-keyboard-response","trial_index":3,"time_elapsed":17908,"internal_node_id":"0.0-3.0-0.0","subject_id":"5d2cd6efce04670001b0ea04","study_id":"607de2837874a824e2e8c6ec","session_id":"608860adaacd9e43adc208d7","correct":true},{"rt":3023.55499999976,"stimulus":"\n      <p>How sure are you?</p>\n      <p>Rate your confidence in your answer from 1 (pure guess) to 5 (very sure) by pressing the corresponding button.</p>\n     ","response":4,"image":"img/dryer.jpg","task":"confidence","old_or_new":"old","trial_type":"html-button-response","trial_index":4,"time_elapsed":20934,"internal_node_id":"0.0-3.0-1.0","subject_id":"5d2cd6efce04670001b0ea04","study_id":"607de2837874a824e2e8c6ec","session_id":"608860adaacd9e43adc208d7"},{"rt":1285.9849999995276,"stimulus":"img/key.jpg","response":"y","image":"img/key.jpg","old_or_new":"old","task":"recognition","trial_type":"image-keyboard-response","trial_index":5,"time_elapsed":22732,"internal_node_id":"0.0-3.0-0.1","subject_id":"5d2cd6efce04670001b0ea04","study_id":"607de2837874a824e2e8c6ec","session_id":"608860adaacd9e43adc208d7","correct":true},{"rt":2874.0600000000995,"stimulus":"\n      <p>How sure are you?</p>\n      <p>Rate your confidence in your answer from 1 (pure guess) to 5 (very sure) by pressing the corresponding button.</p>\n     ","response":4,"image":"img/key.jpg","task":"confidence","old_or_new":"old","trial_type":"html-button-response","trial_index":6,"time_elapsed":25608,"internal_node_id":"0.0-3.0-1.1","subject_id":"5d2cd6efce04670001b0ea04","study_id":"607de2837874a824e2e8c6ec","session_id":"608860adaacd9e43adc208d7"},{"rt":1150.5749999996624,"stimulus":"img/basket.jpg","response":"y","image":"img/basket.jpg","old_or_new":"old","task":"recognition","trial_type":"image-keyboard-response","trial_index":7,"time_elapsed":27271,"internal_node_id":"0.0-3.0-0.2","subject_id":"5d2cd6efce04670001b0ea04","study_id":"607de2837874a824e2e8c6ec","session_id":"608860adaacd9e43adc208d7","correct":true},{"rt":2503.2750000000306,"stimulus":"\n      <p>How sure are you?</p>\n      <p>Rate your confidence in your answer from 1 (pure guess) to 5 (very sure) by pressing the corresponding button.</p>\n     ","response":4,"image":"img/basket.jpg","task":"confidence","old_or_new":"old","trial_type":"html-button-response","trial_index":8,"time_elapsed":29776,"internal_node_id":"0.0-3.0-1.2","subject_id":"5d2cd6efce04670001b0ea04","study_id":"607de2837874a824e2e8c6ec","session_id":"608860adaacd9e43adc208d7"},{"rt":1019.3300000000818,"stimulus":"img/apple.jpg","response":"y","image":"img/apple.jpg","old_or_new":"old","task":"recognition","trial_type":"image-keyboard-response","trial_index":9,"time_elapsed":31299,"internal_node_id":"0.0-3.0-0.3","subject_id":"5d2cd6efce04670001b0ea04","study_id":"607de2837874a824e2e8c6ec","session_id":"608860adaacd9e43adc208d7","correct":true},{"rt":1867.4599999994825,"stimulus":"\n      <p>How sure are you?</p>\n      <p>Rate your confidence in your answer from 1 (pure guess) to 5 (very sure) by pressing the corresponding button.</p>\n     ","response":4,"image":"img/apple.jpg","task":"confidence","old_or_new":"old","trial_type":"html-button-response","trial_index":10,"time_elapsed":33168,"internal_node_id":"0.0-3.0-1.3","subject_id":"5d2cd6efce04670001b0ea04","study_id":"607de2837874a824e2e8c6ec","session_id":"608860adaacd9e43adc208d7"},{"rt":1426.8499999998312,"stimulus":"img/key_alternate.jpg","response":"y","image":"img/key_alternate.jpg","old_or_new":"new","task":"recognition","trial_type":"image-keyboard-response","trial_index":11,"time_elapsed":35098,"internal_node_id":"0.0-3.0-0.4","subject_id":"5d2cd6efce04670001b0ea04","study_id":"607de2837874a824e2e8c6ec","session_id":"608860adaacd9e43adc208d7","correct":false},{"rt":1709.9499999994805,"stimulus":"\n      <p>How sure are you?</p>\n      <p>Rate your confidence in your answer from 1 (pure guess) to 5 (very sure) by pressing the corresponding button.</p>\n     ","response":2,"image":"img/key_alternate.jpg","task":"confidence","old_or_new":"new","trial_type":"html-button-response","trial_index":12,"time_elapsed":36810,"internal_node_id":"0.0-3.0-1.4","subject_id":"5d2cd6efce04670001b0ea04","study_id":"607de2837874a824e2e8c6ec","session_id":"608860adaacd9e43adc208d7"},{"rt":1110.290000000532,"stimulus":"img/fan.jpg","response":"y","image":"img/fan.jpg","old_or_new":"old","task":"recognition","trial_type":"image-keyboard-response","trial_index":13,"time_elapsed":38435,"internal_node_id":"0.0-3.0-0.5","subject_id":"5d2cd6efce04670001b0ea04","study_id":"607de2837874a824e2e8c6ec","session_id":"608860adaacd9e43adc208d7","correct":true},{"rt":1243.7149999996109,"stimulus":"\n      <p>How sure are you?</p>\n      <p>Rate your confidence in your answer from 1 (pure guess) to 5 (very sure) by pressing the corresponding button.</p>\n     ","response":3,"image":"img/fan.jpg","task":"confidence","old_or_new":"old","trial_type":"html-button-response","trial_index":14,"time_elapsed":39680,"internal_node_id":"0.0-3.0-1.5","subject_id":"5d2cd6efce04670001b0ea04","study_id":"607de2837874a824e2e8c6ec","session_id":"608860adaacd9e43adc208d7"},{"rt":2062.775000000329,"stimulus":"img/chair_alternate.jpg","response":"n","image":"img/chair_alternate.jpg","old_or_new":"new","task":"recognition","trial_type":"image-keyboard-response","trial_index":15,"time_elapsed":42246,"internal_node_id":"0.0-3.0-0.6","subject_id":"5d2cd6efce04670001b0ea04","study_id":"607de2837874a824e2e8c6ec","session_id":"608860adaacd9e43adc208d7","correct":true},{"rt":1764.6050000003015,"stimulus":"\n      <p>How sure are you?</p>\n      <p>Rate your confidence in your answer from 1 (pure guess) to 5 (very sure) by pressing the corresponding button.</p>\n     ","response":2,"image":"img/chair_alternate.jpg","task":"confidence","old_or_new":"new","trial_type":"html-button-response","trial_index":16,"time_elapsed":44012,"internal_node_id":"0.0-3.0-1.6","subject_id":"5d2cd6efce04670001b0ea04","study_id":"607de2837874a824e2e8c6ec","session_id":"608860adaacd9e43adc208d7"},{"rt":1087.5250000008236,"stimulus":"img/hairbrush.jpg","response":"y","image":"img/hairbrush.jpg","old_or_new":"old","task":"recognition","trial_type":"image-keyboard-response","trial_index":17,"time_elapsed":45604,"internal_node_id":"0.0-3.0-0.7","subject_id":"5d2cd6efce04670001b0ea04","study_id":"607de2837874a824e2e8c6ec","session_id":"608860adaacd9e43adc208d7","correct":true},{"rt":1383.2549999997354,"stimulus":"\n      <p>How sure are you?</p>\n      <p>Rate your confidence in your answer from 1 (pure guess) to 5 (very sure) by pressing the corresponding button.</p>\n     ","response":4,"image":"img/hairbrush.jpg","task":"confidence","old_or_new":"old","trial_type":"html-button-response","trial_index":18,"time_elapsed":46989,"internal_node_id":"0.0-3.0-1.7","subject_id":"5d2cd6efce04670001b0ea04","study_id":"607de2837874a824e2e8c6ec","session_id":"608860adaacd9e43adc208d7"},{"rt":1162.0199999997567,"stimulus":"img/ladder_alternate.jpg","response":"n","image":"img/ladder_alternate.jpg","old_or_new":"new","task":"recognition","trial_type":"image-keyboard-response","trial_index":19,"time_elapsed":48654,"internal_node_id":"0.0-3.0-0.8","subject_id":"5d2cd6efce04670001b0ea04","study_id":"607de2837874a824e2e8c6ec","session_id":"608860adaacd9e43adc208d7","correct":true},{"rt":1731.6850000006525,"stimulus":"\n      <p>How sure are you?</p>\n      <p>Rate your confidence in your answer from 1 (pure guess) to 5 (very sure) by pressing the corresponding button.</p>\n     ","response":2,"image":"img/ladder_alternate.jpg","task":"confidence","old_or_new":"new","trial_type":"html-button-response","trial_index":20,"time_elapsed":50387,"internal_node_id":"0.0-3.0-1.8","subject_id":"5d2cd6efce04670001b0ea04","study_id":"607de2837874a824e2e8c6ec","session_id":"608860adaacd9e43adc208d7"},{"rt":1370.2400000001944,"stimulus":"img/grapes_alternate.jpg","response":"y","image":"img/grapes_alternate.jpg","old_or_new":"new","task":"recognition","trial_type":"image-keyboard-response","trial_index":21,"time_elapsed":52261,"internal_node_id":"0.0-3.0-0.9","subject_id":"5d2cd6efce04670001b0ea04","study_id":"607de2837874a824e2e8c6ec","session_id":"608860adaacd9e43adc208d7","correct":false},{"rt":1374.7250000005806,"stimulus":"\n      <p>How sure are you?</p>\n      <p>Rate your confidence in your answer from 1 (pure guess) to 5 (very sure) by pressing the corresponding button.</p>\n     ","response":1,"image":"img/grapes_alternate.jpg","task":"confidence","old_or_new":"new","trial_type":"html-button-response","trial_index":22,"time_elapsed":53638,"internal_node_id":"0.0-3.0-1.9","subject_id":"5d2cd6efce04670001b0ea04","study_id":"607de2837874a824e2e8c6ec","session_id":"608860adaacd9e43adc208d7"},{"rt":916.494999999486,"stimulus":"img/leaf.jpg","response":"y","image":"img/leaf.jpg","old_or_new":"old","task":"recognition","trial_type":"image-keyboard-response","trial_index":23,"time_elapsed":55057,"internal_node_id":"0.0-3.0-0.10","subject_id":"5d2cd6efce04670001b0ea04","study_id":"607de2837874a824e2e8c6ec","session_id":"608860adaacd9e43adc208d7","correct":true},{"rt":1431.3449999999648,"stimulus":"\n      <p>How sure are you?</p>\n      <p>Rate your confidence in your answer from 1 (pure guess) to 5 (very sure) by pressing the corresponding button.</p>\n     ","response":4,"image":"img/leaf.jpg","task":"confidence","old_or_new":"old","trial_type":"html-button-response","trial_index":24,"time_elapsed":56490,"internal_node_id":"0.0-3.0-1.10","subject_id":"5d2cd6efce04670001b0ea04","study_id":"607de2837874a824e2e8c6ec","session_id":"608860adaacd9e43adc208d7"},{"rt":900.9999999998399,"stimulus":"img/hat.jpg","response":"y","image":"img/hat.jpg","old_or_new":"old","task":"recognition","trial_type":"image-keyboard-response","trial_index":25,"time_elapsed":57894,"internal_node_id":"0.0-3.0-0.11","subject_id":"5d2cd6efce04670001b0ea04","study_id":"607de2837874a824e2e8c6ec","session_id":"608860adaacd9e43adc208d7","correct":true},{"rt":1430.080000000089,"stimulus":"\n      <p>How sure are you?</p>\n      <p>Rate your confidence in your answer from 1 (pure guess) to 5 (very sure) by pressing the corresponding button.</p>\n     ","response":4,"image":"img/hat.jpg","task":"confidence","old_or_new":"old","trial_type":"html-button-response","trial_index":26,"time_elapsed":59325,"internal_node_id":"0.0-3.0-1.11","subject_id":"5d2cd6efce04670001b0ea04","study_id":"607de2837874a824e2e8c6ec","session_id":"608860adaacd9e43adc208d7"},{"rt":889.2550000000483,"stimulus":"img/globe.jpg","response":"y","image":"img/globe.jpg","old_or_new":"old","task":"recognition","trial_type":"image-keyboard-response","trial_index":27,"time_elapsed":60718,"internal_node_id":"0.0-3.0-0.12","subject_id":"5d2cd6efce04670001b0ea04","study_id":"607de2837874a824e2e8c6ec","session_id":"608860adaacd9e43adc208d7","correct":true},{"rt":1333.9649999998073,"stimulus":"\n      <p>How sure are you?</p>\n      <p>Rate your confidence in your answer from 1 (pure guess) to 5 (very sure) by pressing the corresponding button.</p>\n     ","response":4,"image":"img/globe.jpg","task":"confidence","old_or_new":"old","trial_type":"html-button-response","trial_index":28,"time_elapsed":62054,"internal_node_id":"0.0-3.0-1.12","subject_id":"5d2cd6efce04670001b0ea04","study_id":"607de2837874a824e2e8c6ec","session_id":"608860adaacd9e43adc208d7"},{"rt":918.8749999993888,"stimulus":"img/drum.jpg","response":"y","image":"img/drum.jpg","old_or_new":"old","task":"recognition","trial_type":"image-keyboard-response","trial_index":29,"time_elapsed":63475,"internal_node_id":"0.0-3.0-0.13","subject_id":"5d2cd6efce04670001b0ea04","study_id":"607de2837874a824e2e8c6ec","session_id":"608860adaacd9e43adc208d7","correct":true},{"rt":1679.6549999999042,"stimulus":"\n      <p>How sure are you?</p>\n      <p>Rate your confidence in your answer from 1 (pure guess) to 5 (very sure) by pressing the corresponding button.</p>\n     ","response":4,"image":"img/drum.jpg","task":"confidence","old_or_new":"old","trial_type":"html-button-response","trial_index":30,"time_elapsed":65157,"internal_node_id":"0.0-3.0-1.13","subject_id":"5d2cd6efce04670001b0ea04","study_id":"607de2837874a824e2e8c6ec","session_id":"608860adaacd9e43adc208d7"},{"rt":1855.7199999995646,"stimulus":"img/hat_alternate.jpg","response":"n","image":"img/hat_alternate.jpg","old_or_new":"new","task":"recognition","trial_type":"image-keyboard-response","trial_index":31,"time_elapsed":67515,"internal_node_id":"0.0-3.0-0.14","subject_id":"5d2cd6efce04670001b0ea04","study_id":"607de2837874a824e2e8c6ec","session_id":"608860adaacd9e43adc208d7","correct":true},{"rt":1216.6550000001735,"stimulus":"\n      <p>How sure are you?</p>\n      <p>Rate your confidence in your answer from 1 (pure guess) to 5 (very sure) by pressing the corresponding button.</p>\n     ","response":4,"image":"img/hat_alternate.jpg","task":"confidence","old_or_new":"new","trial_type":"html-button-response","trial_index":32,"time_elapsed":68733,"internal_node_id":"0.0-3.0-1.14","subject_id":"5d2cd6efce04670001b0ea04","study_id":"607de2837874a824e2e8c6ec","session_id":"608860adaacd9e43adc208d7"},{"rt":1093.2200000006414,"stimulus":"img/hair_tie.jpg","response":"y","image":"img/hair_tie.jpg","old_or_new":"old","task":"recognition","trial_type":"image-keyboard-response","trial_index":33,"time_elapsed":70329,"internal_node_id":"0.0-3.0-0.15","subject_id":"5d2cd6efce04670001b0ea04","study_id":"607de2837874a824e2e8c6ec","session_id":"608860adaacd9e43adc208d7","correct":true},{"rt":1366.664999999557,"stimulus":"\n      <p>How sure are you?</p>\n      <p>Rate your confidence in your answer from 1 (pure guess) to 5 (very sure) by pressing the corresponding button.</p>\n     ","response":3,"image":"img/hair_tie.jpg","task":"confidence","old_or_new":"old","trial_type":"html-button-response","trial_index":34,"time_elapsed":71697,"internal_node_id":"0.0-3.0-1.15","subject_id":"5d2cd6efce04670001b0ea04","study_id":"607de2837874a824e2e8c6ec","session_id":"608860adaacd9e43adc208d7"},{"rt":1540.7149999991816,"stimulus":"img/backpack_alternate.jpg","response":"n","image":"img/backpack_alternate.jpg","old_or_new":"new","task":"recognition","trial_type":"image-keyboard-response","trial_index":35,"time_elapsed":73741,"internal_node_id":"0.0-3.0-0.16","subject_id":"5d2cd6efce04670001b0ea04","study_id":"607de2837874a824e2e8c6ec","session_id":"608860adaacd9e43adc208d7","correct":true},{"rt":1266.6449999996985,"stimulus":"\n      <p>How sure are you?</p>\n      <p>Rate your confidence in your answer from 1 (pure guess) to 5 (very sure) by pressing the corresponding button.</p>\n     ","response":2,"image":"img/backpack_alternate.jpg","task":"confidence","old_or_new":"new","trial_type":"html-button-response","trial_index":36,"time_elapsed":75009,"internal_node_id":"0.0-3.0-1.16","subject_id":"5d2cd6efce04670001b0ea04","study_id":"607de2837874a824e2e8c6ec","session_id":"608860adaacd9e43adc208d7"},{"rt":1083.599999999933,"stimulus":"img/coin.jpg","response":"y","image":"img/coin.jpg","old_or_new":"old","task":"recognition","trial_type":"image-keyboard-response","trial_index":37,"time_elapsed":76595,"internal_node_id":"0.0-3.0-0.17","subject_id":"5d2cd6efce04670001b0ea04","study_id":"607de2837874a824e2e8c6ec","session_id":"608860adaacd9e43adc208d7","correct":true},{"rt":1972.7450000000244,"stimulus":"\n      <p>How sure are you?</p>\n      <p>Rate your confidence in your answer from 1 (pure guess) to 5 (very sure) by pressing the corresponding button.</p>\n     ","response":4,"image":"img/coin.jpg","task":"confidence","old_or_new":"old","trial_type":"html-button-response","trial_index":38,"time_elapsed":78569,"internal_node_id":"0.0-3.0-1.17","subject_id":"5d2cd6efce04670001b0ea04","study_id":"607de2837874a824e2e8c6ec","session_id":"608860adaacd9e43adc208d7"},{"rt":864.8849999999511,"stimulus":"img/chair.jpg","response":"y","image":"img/chair.jpg","old_or_new":"old","task":"recognition","trial_type":"image-keyboard-response","trial_index":39,"time_elapsed":79938,"internal_node_id":"0.0-3.0-0.18","subject_id":"5d2cd6efce04670001b0ea04","study_id":"607de2837874a824e2e8c6ec","session_id":"608860adaacd9e43adc208d7","correct":true},{"rt":1026.9049999997223,"stimulus":"\n      <p>How sure are you?</p>\n      <p>Rate your confidence in your answer from 1 (pure guess) to 5 (very sure) by pressing the corresponding button.</p>\n     ","response":4,"image":"img/chair.jpg","task":"confidence","old_or_new":"old","trial_type":"html-button-response","trial_index":40,"time_elapsed":80967,"internal_node_id":"0.0-3.0-1.18","subject_id":"5d2cd6efce04670001b0ea04","study_id":"607de2837874a824e2e8c6ec","session_id":"608860adaacd9e43adc208d7"},{"rt":2313.3349999998172,"stimulus":"img/calculator_alternate.jpg","response":"n","image":"img/calculator_alternate.jpg","old_or_new":"new","task":"recognition","trial_type":"image-keyboard-response","trial_index":41,"time_elapsed":83784,"internal_node_id":"0.0-3.0-0.19","subject_id":"5d2cd6efce04670001b0ea04","study_id":"607de2837874a824e2e8c6ec","session_id":"608860adaacd9e43adc208d7","correct":true},{"rt":1571.0650000000896,"stimulus":"\n      <p>How sure are you?</p>\n      <p>Rate your confidence in your answer from 1 (pure guess) to 5 (very sure) by pressing the corresponding button.</p>\n     ","response":1,"image":"img/calculator_alternate.jpg","task":"confidence","old_or_new":"new","trial_type":"html-button-response","trial_index":42,"time_elapsed":85357,"internal_node_id":"0.0-3.0-1.19","subject_id":"5d2cd6efce04670001b0ea04","study_id":"607de2837874a824e2e8c6ec","session_id":"608860adaacd9e43adc208d7"},{"rt":860.1300000000338,"stimulus":"img/hourglass.jpg","response":"y","image":"img/hourglass.jpg","old_or_new":"old","task":"recognition","trial_type":"image-keyboard-response","trial_index":43,"time_elapsed":86719,"internal_node_id":"0.0-3.0-0.20","subject_id":"5d2cd6efce04670001b0ea04","study_id":"607de2837874a824e2e8c6ec","session_id":"608860adaacd9e43adc208d7","correct":true},{"rt":1160.649999999805,"stimulus":"\n      <p>How sure are you?</p>\n      <p>Rate your confidence in your answer from 1 (pure guess) to 5 (very sure) by pressing the corresponding button.</p>\n     ","response":4,"image":"img/hourglass.jpg","task":"confidence","old_or_new":"old","trial_type":"html-button-response","trial_index":44,"time_elapsed":87882,"internal_node_id":"0.0-3.0-1.20","subject_id":"5d2cd6efce04670001b0ea04","study_id":"607de2837874a824e2e8c6ec","session_id":"608860adaacd9e43adc208d7"},{"rt":1247.4550000006275,"stimulus":"img/hair_tie_alternate.jpg","response":"n","image":"img/hair_tie_alternate.jpg","old_or_new":"new","task":"recognition","trial_type":"image-keyboard-response","trial_index":45,"time_elapsed":89633,"internal_node_id":"0.0-3.0-0.21","subject_id":"5d2cd6efce04670001b0ea04","study_id":"607de2837874a824e2e8c6ec","session_id":"608860adaacd9e43adc208d7","correct":true},{"rt":1385.8250000002881,"stimulus":"\n      <p>How sure are you?</p>\n      <p>Rate your confidence in your answer from 1 (pure guess) to 5 (very sure) by pressing the corresponding button.</p>\n     ","response":4,"image":"img/hair_tie_alternate.jpg","task":"confidence","old_or_new":"new","trial_type":"html-button-response","trial_index":46,"time_elapsed":91020,"internal_node_id":"0.0-3.0-1.21","subject_id":"5d2cd6efce04670001b0ea04","study_id":"607de2837874a824e2e8c6ec","session_id":"608860adaacd9e43adc208d7"},{"rt":1141.5749999996333,"stimulus":"img/hourglass_alternate.jpg","response":"n","image":"img/hourglass_alternate.jpg","old_or_new":"new","task":"recognition","trial_type":"image-keyboard-response","trial_index":47,"time_elapsed":92664,"internal_node_id":"0.0-3.0-0.22","subject_id":"5d2cd6efce04670001b0ea04","study_id":"607de2837874a824e2e8c6ec","session_id":"608860adaacd9e43adc208d7","correct":true},{"rt":644.809999999794,"stimulus":"\n      <p>How sure are you?</p>\n      <p>Rate your confidence in your answer from 1 (pure guess) to 5 (very sure) by pressing the corresponding button.</p>\n     ","response":4,"image":"img/hourglass_alternate.jpg","task":"confidence","old_or_new":"new","trial_type":"html-button-response","trial_index":48,"time_elapsed":93311,"internal_node_id":"0.0-3.0-1.22","subject_id":"5d2cd6efce04670001b0ea04","study_id":"607de2837874a824e2e8c6ec","session_id":"608860adaacd9e43adc208d7"},{"rt":2843.1700000001,"stimulus":"img/helmet_alternate.jpg","response":"n","image":"img/helmet_alternate.jpg","old_or_new":"new","task":"recognition","trial_type":"image-keyboard-response","trial_index":49,"time_elapsed":96657,"internal_node_id":"0.0-3.0-0.23","subject_id":"5d2cd6efce04670001b0ea04","study_id":"607de2837874a824e2e8c6ec","session_id":"608860adaacd9e43adc208d7","correct":true},{"rt":1924.1449999999604,"stimulus":"\n      <p>How sure are you?</p>\n      <p>Rate your confidence in your answer from 1 (pure guess) to 5 (very sure) by pressing the corresponding button.</p>\n     ","response":1,"image":"img/helmet_alternate.jpg","task":"confidence","old_or_new":"new","trial_type":"html-button-response","trial_index":50,"time_elapsed":98583,"internal_node_id":"0.0-3.0-1.23","subject_id":"5d2cd6efce04670001b0ea04","study_id":"607de2837874a824e2e8c6ec","session_id":"608860adaacd9e43adc208d7"},{"rt":861.3399999994726,"stimulus":"img/backpack.jpg","response":"y","image":"img/backpack.jpg","old_or_new":"old","task":"recognition","trial_type":"image-keyboard-response","trial_index":51,"time_elapsed":99948,"internal_node_id":"0.0-3.0-0.24","subject_id":"5d2cd6efce04670001b0ea04","study_id":"607de2837874a824e2e8c6ec","session_id":"608860adaacd9e43adc208d7","correct":true},{"rt":1122.4300000003568,"stimulus":"\n      <p>How sure are you?</p>\n      <p>Rate your confidence in your answer from 1 (pure guess) to 5 (very sure) by pressing the corresponding button.</p>\n     ","response":4,"image":"img/backpack.jpg","task":"confidence","old_or_new":"old","trial_type":"html-button-response","trial_index":52,"time_elapsed":101072,"internal_node_id":"0.0-3.0-1.24","subject_id":"5d2cd6efce04670001b0ea04","study_id":"607de2837874a824e2e8c6ec","session_id":"608860adaacd9e43adc208d7"},{"rt":2370.6699999993434,"stimulus":"img/bowl.jpg","response":"n","image":"img/bowl.jpg","old_or_new":"old","task":"recognition","trial_type":"image-keyboard-response","trial_index":53,"time_elapsed":103945,"internal_node_id":"0.0-3.0-0.25","subject_id":"5d2cd6efce04670001b0ea04","study_id":"607de2837874a824e2e8c6ec","session_id":"608860adaacd9e43adc208d7","correct":false},{"rt":1353.83499999989,"stimulus":"\n      <p>How sure are you?</p>\n      <p>Rate your confidence in your answer from 1 (pure guess) to 5 (very sure) by pressing the corresponding button.</p>\n     ","response":1,"image":"img/bowl.jpg","task":"confidence","old_or_new":"old","trial_type":"html-button-response","trial_index":54,"time_elapsed":105300,"internal_node_id":"0.0-3.0-1.25","subject_id":"5d2cd6efce04670001b0ea04","study_id":"607de2837874a824e2e8c6ec","session_id":"608860adaacd9e43adc208d7"},{"rt":1434.5899999998364,"stimulus":"img/apple_alternate.jpg","response":"n","image":"img/apple_alternate.jpg","old_or_new":"new","task":"recognition","trial_type":"image-keyboard-response","trial_index":55,"time_elapsed":107239,"internal_node_id":"0.0-3.0-0.26","subject_id":"5d2cd6efce04670001b0ea04","study_id":"607de2837874a824e2e8c6ec","session_id":"608860adaacd9e43adc208d7","correct":true},{"rt":526.8550000000687,"stimulus":"\n      <p>How sure are you?</p>\n      <p>Rate your confidence in your answer from 1 (pure guess) to 5 (very sure) by pressing the corresponding button.</p>\n     ","response":1,"image":"img/apple_alternate.jpg","task":"confidence","old_or_new":"new","trial_type":"html-button-response","trial_index":56,"time_elapsed":107768,"internal_node_id":"0.0-3.0-1.26","subject_id":"5d2cd6efce04670001b0ea04","study_id":"607de2837874a824e2e8c6ec","session_id":"608860adaacd9e43adc208d7"},{"rt":1188.7249999999767,"stimulus":"img/coin_alternate.jpg","response":"n","image":"img/coin_alternate.jpg","old_or_new":"new","task":"recognition","trial_type":"image-keyboard-response","trial_index":57,"time_elapsed":109460,"internal_node_id":"0.0-3.0-0.27","subject_id":"5d2cd6efce04670001b0ea04","study_id":"607de2837874a824e2e8c6ec","session_id":"608860adaacd9e43adc208d7","correct":true},{"rt":1296.7250000001513,"stimulus":"\n      <p>How sure are you?</p>\n      <p>Rate your confidence in your answer from 1 (pure guess) to 5 (very sure) by pressing the corresponding button.</p>\n     ","response":2,"image":"img/coin_alternate.jpg","task":"confidence","old_or_new":"new","trial_type":"html-button-response","trial_index":58,"time_elapsed":110758,"internal_node_id":"0.0-3.0-1.27","subject_id":"5d2cd6efce04670001b0ea04","study_id":"607de2837874a824e2e8c6ec","session_id":"608860adaacd9e43adc208d7"},{"rt":955.979999999734,"stimulus":"img/calculator.jpg","response":"y","image":"img/calculator.jpg","old_or_new":"old","task":"recognition","trial_type":"image-keyboard-response","trial_index":59,"time_elapsed":112217,"internal_node_id":"0.0-3.0-0.28","subject_id":"5d2cd6efce04670001b0ea04","study_id":"607de2837874a824e2e8c6ec","session_id":"608860adaacd9e43adc208d7","correct":true},{"rt":1087.1850000003178,"stimulus":"\n      <p>How sure are you?</p>\n      <p>Rate your confidence in your answer from 1 (pure guess) to 5 (very sure) by pressing the corresponding button.</p>\n     ","response":4,"image":"img/calculator.jpg","task":"confidence","old_or_new":"old","trial_type":"html-button-response","trial_index":60,"time_elapsed":113307,"internal_node_id":"0.0-3.0-1.28","subject_id":"5d2cd6efce04670001b0ea04","study_id":"607de2837874a824e2e8c6ec","session_id":"608860adaacd9e43adc208d7"},{"rt":1042.8350000001956,"stimulus":"img/basket_alternate.jpg","response":"n","image":"img/basket_alternate.jpg","old_or_new":"new","task":"recognition","trial_type":"image-keyboard-response","trial_index":61,"time_elapsed":114853,"internal_node_id":"0.0-3.0-0.29","subject_id":"5d2cd6efce04670001b0ea04","study_id":"607de2837874a824e2e8c6ec","session_id":"608860adaacd9e43adc208d7","correct":true},{"rt":962.7149999996473,"stimulus":"\n      <p>How sure are you?</p>\n      <p>Rate your confidence in your answer from 1 (pure guess) to 5 (very sure) by pressing the corresponding button.</p>\n     ","response":4,"image":"img/basket_alternate.jpg","task":"confidence","old_or_new":"new","trial_type":"html-button-response","trial_index":62,"time_elapsed":115817,"internal_node_id":"0.0-3.0-1.29","subject_id":"5d2cd6efce04670001b0ea04","study_id":"607de2837874a824e2e8c6ec","session_id":"608860adaacd9e43adc208d7"},{"rt":1388.7050000002928,"stimulus":"img/drum_alternate.jpg","response":"n","image":"img/drum_alternate.jpg","old_or_new":"new","task":"recognition","trial_type":"image-keyboard-response","trial_index":63,"time_elapsed":117709,"internal_node_id":"0.0-3.0-0.30","subject_id":"5d2cd6efce04670001b0ea04","study_id":"607de2837874a824e2e8c6ec","session_id":"608860adaacd9e43adc208d7","correct":true},{"rt":1083.4300000006042,"stimulus":"\n      <p>How sure are you?</p>\n      <p>Rate your confidence in your answer from 1 (pure guess) to 5 (very sure) by pressing the corresponding button.</p>\n     ","response":2,"image":"img/drum_alternate.jpg","task":"confidence","old_or_new":"new","trial_type":"html-button-response","trial_index":64,"time_elapsed":118793,"internal_node_id":"0.0-3.0-1.30","subject_id":"5d2cd6efce04670001b0ea04","study_id":"607de2837874a824e2e8c6ec","session_id":"608860adaacd9e43adc208d7"},{"rt":908.9399999993475,"stimulus":"img/fan_alternate.jpg","response":"n","image":"img/fan_alternate.jpg","old_or_new":"new","task":"recognition","trial_type":"image-keyboard-response","trial_index":65,"time_elapsed":120216,"internal_node_id":"0.0-3.0-0.31","subject_id":"5d2cd6efce04670001b0ea04","study_id":"607de2837874a824e2e8c6ec","session_id":"608860adaacd9e43adc208d7","correct":true},{"rt":524.0949999997683,"stimulus":"\n      <p>How sure are you?</p>\n      <p>Rate your confidence in your answer from 1 (pure guess) to 5 (very sure) by pressing the corresponding button.</p>\n     ","response":2,"image":"img/fan_alternate.jpg","task":"confidence","old_or_new":"new","trial_type":"html-button-response","trial_index":66,"time_elapsed":120742,"internal_node_id":"0.0-3.0-1.31","subject_id":"5d2cd6efce04670001b0ea04","study_id":"607de2837874a824e2e8c6ec","session_id":"608860adaacd9e43adc208d7"},{"rt":1379.8200000001088,"stimulus":"img/bowl_alternate.jpg","response":"n","image":"img/bowl_alternate.jpg","old_or_new":"new","task":"recognition","trial_type":"image-keyboard-response","trial_index":67,"time_elapsed":122625,"internal_node_id":"0.0-3.0-0.32","subject_id":"5d2cd6efce04670001b0ea04","study_id":"607de2837874a824e2e8c6ec","session_id":"608860adaacd9e43adc208d7","correct":true},{"rt":484.9750000003114,"stimulus":"\n      <p>How sure are you?</p>\n      <p>Rate your confidence in your answer from 1 (pure guess) to 5 (very sure) by pressing the corresponding button.</p>\n     ","response":2,"image":"img/bowl_alternate.jpg","task":"confidence","old_or_new":"new","trial_type":"html-button-response","trial_index":68,"time_elapsed":123112,"internal_node_id":"0.0-3.0-1.32","subject_id":"5d2cd6efce04670001b0ea04","study_id":"607de2837874a824e2e8c6ec","session_id":"608860adaacd9e43adc208d7"},{"rt":1090.2599999999366,"stimulus":"img/folder_alternate.jpg","response":"n","image":"img/folder_alternate.jpg","old_or_new":"new","task":"recognition","trial_type":"image-keyboard-response","trial_index":69,"time_elapsed":124706,"internal_node_id":"0.0-3.0-0.33","subject_id":"5d2cd6efce04670001b0ea04","study_id":"607de2837874a824e2e8c6ec","session_id":"608860adaacd9e43adc208d7","correct":true},{"rt":1247.269999999844,"stimulus":"\n      <p>How sure are you?</p>\n      <p>Rate your confidence in your answer from 1 (pure guess) to 5 (very sure) by pressing the corresponding button.</p>\n     ","response":4,"image":"img/folder_alternate.jpg","task":"confidence","old_or_new":"new","trial_type":"html-button-response","trial_index":70,"time_elapsed":125955,"internal_node_id":"0.0-3.0-1.33","subject_id":"5d2cd6efce04670001b0ea04","study_id":"607de2837874a824e2e8c6ec","session_id":"608860adaacd9e43adc208d7"},{"rt":1526.929999999993,"stimulus":"img/camera.jpg","response":"y","image":"img/camera.jpg","old_or_new":"old","task":"recognition","trial_type":"image-keyboard-response","trial_index":71,"time_elapsed":127994,"internal_node_id":"0.0-3.0-0.34","subject_id":"5d2cd6efce04670001b0ea04","study_id":"607de2837874a824e2e8c6ec","session_id":"608860adaacd9e43adc208d7","correct":true},{"rt":530.1900000004098,"stimulus":"\n      <p>How sure are you?</p>\n      <p>Rate your confidence in your answer from 1 (pure guess) to 5 (very sure) by pressing the corresponding button.</p>\n     ","response":4,"image":"img/camera.jpg","task":"confidence","old_or_new":"old","trial_type":"html-button-response","trial_index":72,"time_elapsed":128525,"internal_node_id":"0.0-3.0-1.34","subject_id":"5d2cd6efce04670001b0ea04","study_id":"607de2837874a824e2e8c6ec","session_id":"608860adaacd9e43adc208d7"},{"rt":1072.7800000004354,"stimulus":"img/camera_alternate.jpg","response":"n","image":"img/camera_alternate.jpg","old_or_new":"new","task":"recognition","trial_type":"image-keyboard-response","trial_index":73,"time_elapsed":130101,"internal_node_id":"0.0-3.0-0.35","subject_id":"5d2cd6efce04670001b0ea04","study_id":"607de2837874a824e2e8c6ec","session_id":"608860adaacd9e43adc208d7","correct":true},{"rt":534.5400000005611,"stimulus":"\n      <p>How sure are you?</p>\n      <p>Rate your confidence in your answer from 1 (pure guess) to 5 (very sure) by pressing the corresponding button.</p>\n     ","response":4,"image":"img/camera_alternate.jpg","task":"confidence","old_or_new":"new","trial_type":"html-button-response","trial_index":74,"time_elapsed":130637,"internal_node_id":"0.0-3.0-1.35","subject_id":"5d2cd6efce04670001b0ea04","study_id":"607de2837874a824e2e8c6ec","session_id":"608860adaacd9e43adc208d7"},{"rt":954.0300000007846,"stimulus":"img/folder.jpg","response":"y","image":"img/folder.jpg","old_or_new":"old","task":"recognition","trial_type":"image-keyboard-response","trial_index":75,"time_elapsed":132095,"internal_node_id":"0.0-3.0-0.36","subject_id":"5d2cd6efce04670001b0ea04","study_id":"607de2837874a824e2e8c6ec","session_id":"608860adaacd9e43adc208d7","correct":true},{"rt":525.0099999993981,"stimulus":"\n      <p>How sure are you?</p>\n      <p>Rate your confidence in your answer from 1 (pure guess) to 5 (very sure) by pressing the corresponding button.</p>\n     ","response":4,"image":"img/folder.jpg","task":"confidence","old_or_new":"old","trial_type":"html-button-response","trial_index":76,"time_elapsed":132621,"internal_node_id":"0.0-3.0-1.36","subject_id":"5d2cd6efce04670001b0ea04","study_id":"607de2837874a824e2e8c6ec","session_id":"608860adaacd9e43adc208d7"},{"rt":922.8750000002037,"stimulus":"img/ladder.jpg","response":"y","image":"img/ladder.jpg","old_or_new":"old","task":"recognition","trial_type":"image-keyboard-response","trial_index":77,"time_elapsed":134047,"internal_node_id":"0.0-3.0-0.37","subject_id":"5d2cd6efce04670001b0ea04","study_id":"607de2837874a824e2e8c6ec","session_id":"608860adaacd9e43adc208d7","correct":true},{"rt":541.1850000000559,"stimulus":"\n      <p>How sure are you?</p>\n      <p>Rate your confidence in your answer from 1 (pure guess) to 5 (very sure) by pressing the corresponding button.</p>\n     ","response":4,"image":"img/ladder.jpg","task":"confidence","old_or_new":"old","trial_type":"html-button-response","trial_index":78,"time_elapsed":134590,"internal_node_id":"0.0-3.0-1.37","subject_id":"5d2cd6efce04670001b0ea04","study_id":"607de2837874a824e2e8c6ec","session_id":"608860adaacd9e43adc208d7"},{"rt":2073.244999999588,"stimulus":"img/glasses_alternate.jpg","response":"n","image":"img/glasses_alternate.jpg","old_or_new":"new","task":"recognition","trial_type":"image-keyboard-response","trial_index":79,"time_elapsed":137166,"internal_node_id":"0.0-3.0-0.38","subject_id":"5d2cd6efce04670001b0ea04","study_id":"607de2837874a824e2e8c6ec","session_id":"608860adaacd9e43adc208d7","correct":true},{"rt":1065.8149999999441,"stimulus":"\n      <p>How sure are you?</p>\n      <p>Rate your confidence in your answer from 1 (pure guess) to 5 (very sure) by pressing the corresponding button.</p>\n     ","response":2,"image":"img/glasses_alternate.jpg","task":"confidence","old_or_new":"new","trial_type":"html-button-response","trial_index":80,"time_elapsed":138233,"internal_node_id":"0.0-3.0-1.38","subject_id":"5d2cd6efce04670001b0ea04","study_id":"607de2837874a824e2e8c6ec","session_id":"608860adaacd9e43adc208d7"},{"rt":875.6550000007264,"stimulus":"img/hairbrush_alternate.jpg","response":"n","image":"img/hairbrush_alternate.jpg","old_or_new":"new","task":"recognition","trial_type":"image-keyboard-response","trial_index":81,"time_elapsed":139617,"internal_node_id":"0.0-3.0-0.39","subject_id":"5d2cd6efce04670001b0ea04","study_id":"607de2837874a824e2e8c6ec","session_id":"608860adaacd9e43adc208d7","correct":true},{"rt":1607.070000000036,"stimulus":"\n      <p>How sure are you?</p>\n      <p>Rate your confidence in your answer from 1 (pure guess) to 5 (very sure) by pressing the corresponding button.</p>\n     ","response":1,"image":"img/hairbrush_alternate.jpg","task":"confidence","old_or_new":"new","trial_type":"html-button-response","trial_index":82,"time_elapsed":141225,"internal_node_id":"0.0-3.0-1.39","subject_id":"5d2cd6efce04670001b0ea04","study_id":"607de2837874a824e2e8c6ec","session_id":"608860adaacd9e43adc208d7"},{"rt":1181.9799999993702,"stimulus":"img/globe_alternate.jpg","response":"n","image":"img/globe_alternate.jpg","old_or_new":"new","task":"recognition","trial_type":"image-keyboard-response","trial_index":83,"time_elapsed":142911,"internal_node_id":"0.0-3.0-0.40","subject_id":"5d2cd6efce04670001b0ea04","study_id":"607de2837874a824e2e8c6ec","session_id":"608860adaacd9e43adc208d7","correct":true},{"rt":1067.3199999992212,"stimulus":"\n      <p>How sure are you?</p>\n      <p>Rate your confidence in your answer from 1 (pure guess) to 5 (very sure) by pressing the corresponding button.</p>\n     ","response":4,"image":"img/globe_alternate.jpg","task":"confidence","old_or_new":"new","trial_type":"html-button-response","trial_index":84,"time_elapsed":143980,"internal_node_id":"0.0-3.0-1.40","subject_id":"5d2cd6efce04670001b0ea04","study_id":"607de2837874a824e2e8c6ec","session_id":"608860adaacd9e43adc208d7"},{"rt":988.6900000001478,"stimulus":"img/grapes.jpg","response":"y","image":"img/grapes.jpg","old_or_new":"old","task":"recognition","trial_type":"image-keyboard-response","trial_index":85,"time_elapsed":145471,"internal_node_id":"0.0-3.0-0.41","subject_id":"5d2cd6efce04670001b0ea04","study_id":"607de2837874a824e2e8c6ec","session_id":"608860adaacd9e43adc208d7","correct":true},{"rt":529.5649999998277,"stimulus":"\n      <p>How sure are you?</p>\n      <p>Rate your confidence in your answer from 1 (pure guess) to 5 (very sure) by pressing the corresponding button.</p>\n     ","response":4,"image":"img/grapes.jpg","task":"confidence","old_or_new":"old","trial_type":"html-button-response","trial_index":86,"time_elapsed":146003,"internal_node_id":"0.0-3.0-1.41","subject_id":"5d2cd6efce04670001b0ea04","study_id":"607de2837874a824e2e8c6ec","session_id":"608860adaacd9e43adc208d7"},{"rt":1118.0700000004435,"stimulus":"img/glasses.jpg","response":"n","image":"img/glasses.jpg","old_or_new":"old","task":"recognition","trial_type":"image-keyboard-response","trial_index":87,"time_elapsed":147624,"internal_node_id":"0.0-3.0-0.42","subject_id":"5d2cd6efce04670001b0ea04","study_id":"607de2837874a824e2e8c6ec","session_id":"608860adaacd9e43adc208d7","correct":false},{"rt":1723.7500000001164,"stimulus":"\n      <p>How sure are you?</p>\n      <p>Rate your confidence in your answer from 1 (pure guess) to 5 (very sure) by pressing the corresponding button.</p>\n     ","response":2,"image":"img/glasses.jpg","task":"confidence","old_or_new":"old","trial_type":"html-button-response","trial_index":88,"time_elapsed":149349,"internal_node_id":"0.0-3.0-1.42","subject_id":"5d2cd6efce04670001b0ea04","study_id":"607de2837874a824e2e8c6ec","session_id":"608860adaacd9e43adc208d7"},{"rt":850.1299999998009,"stimulus":"img/leaf_alternate.jpg","response":"n","image":"img/leaf_alternate.jpg","old_or_new":"new","task":"recognition","trial_type":"image-keyboard-response","trial_index":89,"time_elapsed":150702,"internal_node_id":"0.0-3.0-0.43","subject_id":"5d2cd6efce04670001b0ea04","study_id":"607de2837874a824e2e8c6ec","session_id":"608860adaacd9e43adc208d7","correct":true},{"rt":1192.7850000001781,"stimulus":"\n      <p>How sure are you?</p>\n      <p>Rate your confidence in your answer from 1 (pure guess) to 5 (very sure) by pressing the corresponding button.</p>\n     ","response":4,"image":"img/leaf_alternate.jpg","task":"confidence","old_or_new":"new","trial_type":"html-button-response","trial_index":90,"time_elapsed":151896,"internal_node_id":"0.0-3.0-1.43","subject_id":"5d2cd6efce04670001b0ea04","study_id":"607de2837874a824e2e8c6ec","session_id":"608860adaacd9e43adc208d7"},{"rt":861.459999999177,"stimulus":"img/lightbulb_alternate.jpg","response":"n","image":"img/lightbulb_alternate.jpg","old_or_new":"new","task":"recognition","trial_type":"image-keyboard-response","trial_index":91,"time_elapsed":153260,"internal_node_id":"0.0-3.0-0.44","subject_id":"5d2cd6efce04670001b0ea04","study_id":"607de2837874a824e2e8c6ec","session_id":"608860adaacd9e43adc208d7","correct":true},{"rt":665.3599999999569,"stimulus":"\n      <p>How sure are you?</p>\n      <p>Rate your confidence in your answer from 1 (pure guess) to 5 (very sure) by pressing the corresponding button.</p>\n     ","response":4,"image":"img/lightbulb_alternate.jpg","task":"confidence","old_or_new":"new","trial_type":"html-button-response","trial_index":92,"time_elapsed":153927,"internal_node_id":"0.0-3.0-1.44","subject_id":"5d2cd6efce04670001b0ea04","study_id":"607de2837874a824e2e8c6ec","session_id":"608860adaacd9e43adc208d7"},{"rt":1097.4749999995984,"stimulus":"img/lightbulb.jpg","response":"y","image":"img/lightbulb.jpg","old_or_new":"old","task":"recognition","trial_type":"image-keyboard-response","trial_index":93,"time_elapsed":155528,"internal_node_id":"0.0-3.0-0.45","subject_id":"5d2cd6efce04670001b0ea04","study_id":"607de2837874a824e2e8c6ec","session_id":"608860adaacd9e43adc208d7","correct":true},{"rt":551.0400000002992,"stimulus":"\n      <p>How sure are you?</p>\n      <p>Rate your confidence in your answer from 1 (pure guess) to 5 (very sure) by pressing the corresponding button.</p>\n     ","response":4,"image":"img/lightbulb.jpg","task":"confidence","old_or_new":"old","trial_type":"html-button-response","trial_index":94,"time_elapsed":156080,"internal_node_id":"0.0-3.0-1.45","subject_id":"5d2cd6efce04670001b0ea04","study_id":"607de2837874a824e2e8c6ec","session_id":"608860adaacd9e43adc208d7"},{"rt":915.7199999999721,"stimulus":"img/helmet.jpg","response":"y","image":"img/helmet.jpg","old_or_new":"old","task":"recognition","trial_type":"image-keyboard-response","trial_index":95,"time_elapsed":157499,"internal_node_id":"0.0-3.0-0.46","subject_id":"5d2cd6efce04670001b0ea04","study_id":"607de2837874a824e2e8c6ec","session_id":"608860adaacd9e43adc208d7","correct":true},{"rt":512.5099999995437,"stimulus":"\n      <p>How sure are you?</p>\n      <p>Rate your confidence in your answer from 1 (pure guess) to 5 (very sure) by pressing the corresponding button.</p>\n     ","response":4,"image":"img/helmet.jpg","task":"confidence","old_or_new":"old","trial_type":"html-button-response","trial_index":96,"time_elapsed":158013,"internal_node_id":"0.0-3.0-1.46","subject_id":"5d2cd6efce04670001b0ea04","study_id":"607de2837874a824e2e8c6ec","session_id":"608860adaacd9e43adc208d7"},{"rt":1190.9800000003306,"stimulus":"img/dryer_alternate.jpg","response":"n","image":"img/dryer_alternate.jpg","old_or_new":"new","task":"recognition","trial_type":"image-keyboard-response","trial_index":97,"time_elapsed":159708,"internal_node_id":"0.0-3.0-0.47","subject_id":"5d2cd6efce04670001b0ea04","study_id":"607de2837874a824e2e8c6ec","session_id":"608860adaacd9e43adc208d7","correct":true},{"rt":600.6500000003143,"stimulus":"\n      <p>How sure are you?</p>\n      <p>Rate your confidence in your answer from 1 (pure guess) to 5 (very sure) by pressing the corresponding button.</p>\n     ","response":4,"image":"img/dryer_alternate.jpg","task":"confidence","old_or_new":"new","trial_type":"html-button-response","trial_index":98,"time_elapsed":160310,"internal_node_id":"0.0-3.0-1.47","subject_id":"5d2cd6efce04670001b0ea04","study_id":"607de2837874a824e2e8c6ec","session_id":"608860adaacd9e43adc208d7"}]