[{"success":true,"timeout":false,"failed_images":[],"failed_audio":[],"failed_video":[],"trial_type":"preload","trial_index":0,"time_elapsed":5182,"internal_node_id":"0.0-0.0","subject_id":"5ecd7c0104c6a70e566f039c","study_id":"606233c0e42b980319b6a18e","session_id":"608834453295c864509f2acf"},{"rt":18278.43999999459,"stimulus":"\n      <div style=\"width:800px; text-align: left;\">\n        <p>Welcome to day 2 of the experiment! Thanks for coming back.</p>\n        <p>You will be presented with a series of images. Images will appear one at a time.</p>\n        <p>Each image will remain on the screen until you press either <span style=\"font-weight: bold;\">\"y\" to indicate you have seen the \n        exact same photo the day before or \"n\" to indicate you have not seen the exact same photo the day before.</span></p>\n        <p>After you answer yes (\"y\") or no (\"n\"), you will then be prompted to rate your certainty on a scale of\n        1 (pure guess) to 5 (very sure).</p>\n      </div>\n    ","response":0,"trial_type":"html-button-response","trial_index":1,"time_elapsed":23463,"internal_node_id":"0.0-1.0","subject_id":"5ecd7c0104c6a70e566f039c","study_id":"606233c0e42b980319b6a18e","session_id":"608834453295c864509f2acf"},{"success":true,"trial_type":"fullscreen","trial_index":2,"time_elapsed":28067,"internal_node_id":"0.0-2.0","subject_id":"5ecd7c0104c6a70e566f039c","study_id":"606233c0e42b980319b6a18e","session_id":"608834453295c864509f2acf"},{"rt":3521.470000006957,"stimulus":"img/trophy_alternate.jpg","response":"n","image":"img/trophy_alternate.jpg","old_or_new":"new","task":"recognition","trial_type":"image-keyboard-response","trial_index":3,"time_elapsed":31599,"internal_node_id":"0.0-3.0-0.0","subject_id":"5ecd7c0104c6a70e566f039c","study_id":"606233c0e42b980319b6a18e","session_id":"608834453295c864509f2acf","correct":true},{"rt":2804.9600000085775,"stimulus":"\n      <p>How sure are you?</p>\n      <p>Rate your confidence in your answer from 1 (pure guess) to 5 (very sure) by pressing the corresponding button.</p>\n     ","response":4,"image":"img/trophy_alternate.jpg","task":"confidence","old_or_new":"new","trial_type":"html-button-response","trial_index":4,"time_elapsed":34406,"internal_node_id":"0.0-3.0-1.0","subject_id":"5ecd7c0104c6a70e566f039c","study_id":"606233c0e42b980319b6a18e","session_id":"608834453295c864509f2acf"},{"rt":1929.165000008652,"stimulus":"img/shirt.jpg","response":"y","image":"img/shirt.jpg","old_or_new":"old","task":"recognition","trial_type":"image-keyboard-response","trial_index":5,"time_elapsed":36838,"internal_node_id":"0.0-3.0-0.1","subject_id":"5ecd7c0104c6a70e566f039c","study_id":"606233c0e42b980319b6a18e","session_id":"608834453295c864509f2acf","correct":true},{"rt":1678.8000000233296,"stimulus":"\n      <p>How sure are you?</p>\n      <p>Rate your confidence in your answer from 1 (pure guess) to 5 (very sure) by pressing the corresponding button.</p>\n     ","response":4,"image":"img/shirt.jpg","task":"confidence","old_or_new":"old","trial_type":"html-button-response","trial_index":6,"time_elapsed":38518,"internal_node_id":"0.0-3.0-1.1","subject_id":"5ecd7c0104c6a70e566f039c","study_id":"606233c0e42b980319b6a18e","session_id":"608834453295c864509f2acf"},{"rt":3377.295000012964,"stimulus":"img/shoe_alternate.jpg","response":"n","image":"img/shoe_alternate.jpg","old_or_new":"new","task":"recognition","trial_type":"image-keyboard-response","trial_index":7,"time_elapsed":42402,"internal_node_id":"0.0-3.0-0.2","subject_id":"5ecd7c0104c6a70e566f039c","study_id":"606233c0e42b980319b6a18e","session_id":"608834453295c864509f2acf","correct":true},{"rt":1522.335000016028,"stimulus":"\n      <p>How sure are you?</p>\n      <p>Rate your confidence in your answer from 1 (pure guess) to 5 (very sure) by pressing the corresponding button.</p>\n     ","response":3,"image":"img/shoe_alternate.jpg","task":"confidence","old_or_new":"new","trial_type":"html-button-response","trial_index":8,"time_elapsed":43926,"internal_node_id":"0.0-3.0-1.2","subject_id":"5ecd7c0104c6a70e566f039c","study_id":"606233c0e42b980319b6a18e","session_id":"608834453295c864509f2acf"},{"rt":1379.480000003241,"stimulus":"img/umbrella.jpg","response":"y","image":"img/umbrella.jpg","old_or_new":"old","task":"recognition","trial_type":"image-keyboard-response","trial_index":9,"time_elapsed":45812,"internal_node_id":"0.0-3.0-0.3","subject_id":"5ecd7c0104c6a70e566f039c","study_id":"606233c0e42b980319b6a18e","session_id":"608834453295c864509f2acf","correct":true},{"rt":1424.7150000010151,"stimulus":"\n      <p>How sure are you?</p>\n      <p>Rate your confidence in your answer from 1 (pure guess) to 5 (very sure) by pressing the corresponding button.</p>\n     ","response":4,"image":"img/umbrella.jpg","task":"confidence","old_or_new":"old","trial_type":"html-button-response","trial_index":10,"time_elapsed":47238,"internal_node_id":"0.0-3.0-1.3","subject_id":"5ecd7c0104c6a70e566f039c","study_id":"606233c0e42b980319b6a18e","session_id":"608834453295c864509f2acf"},{"rt":1910.860000003595,"stimulus":"img/tv_alternate.jpg","response":"n","image":"img/tv_alternate.jpg","old_or_new":"new","task":"recognition","trial_type":"image-keyboard-response","trial_index":11,"time_elapsed":49658,"internal_node_id":"0.0-3.0-0.4","subject_id":"5ecd7c0104c6a70e566f039c","study_id":"606233c0e42b980319b6a18e","session_id":"608834453295c864509f2acf","correct":true},{"rt":794.4300000090152,"stimulus":"\n      <p>How sure are you?</p>\n      <p>Rate your confidence in your answer from 1 (pure guess) to 5 (very sure) by pressing the corresponding button.</p>\n     ","response":4,"image":"img/tv_alternate.jpg","task":"confidence","old_or_new":"new","trial_type":"html-button-response","trial_index":12,"time_elapsed":50454,"internal_node_id":"0.0-3.0-1.4","subject_id":"5ecd7c0104c6a70e566f039c","study_id":"606233c0e42b980319b6a18e","session_id":"608834453295c864509f2acf"},{"rt":1173.2900000060908,"stimulus":"img/sink.jpg","response":"y","image":"img/sink.jpg","old_or_new":"old","task":"recognition","trial_type":"image-keyboard-response","trial_index":13,"time_elapsed":52139,"internal_node_id":"0.0-3.0-0.5","subject_id":"5ecd7c0104c6a70e566f039c","study_id":"606233c0e42b980319b6a18e","session_id":"608834453295c864509f2acf","correct":true},{"rt":753.7600000214297,"stimulus":"\n      <p>How sure are you?</p>\n      <p>Rate your confidence in your answer from 1 (pure guess) to 5 (very sure) by pressing the corresponding button.</p>\n     ","response":4,"image":"img/sink.jpg","task":"confidence","old_or_new":"old","trial_type":"html-button-response","trial_index":14,"time_elapsed":52894,"internal_node_id":"0.0-3.0-1.5","subject_id":"5ecd7c0104c6a70e566f039c","study_id":"606233c0e42b980319b6a18e","session_id":"608834453295c864509f2acf"},{"rt":1065.4600000125356,"stimulus":"img/wheel_barrow.jpg","response":"y","image":"img/wheel_barrow.jpg","old_or_new":"old","task":"recognition","trial_type":"image-keyboard-response","trial_index":15,"time_elapsed":54463,"internal_node_id":"0.0-3.0-0.6","subject_id":"5ecd7c0104c6a70e566f039c","study_id":"606233c0e42b980319b6a18e","session_id":"608834453295c864509f2acf","correct":true},{"rt":885.7200000202283,"stimulus":"\n      <p>How sure are you?</p>\n      <p>Rate your confidence in your answer from 1 (pure guess) to 5 (very sure) by pressing the corresponding button.</p>\n     ","response":4,"image":"img/wheel_barrow.jpg","task":"confidence","old_or_new":"old","trial_type":"html-button-response","trial_index":16,"time_elapsed":55350,"internal_node_id":"0.0-3.0-1.6","subject_id":"5ecd7c0104c6a70e566f039c","study_id":"606233c0e42b980319b6a18e","session_id":"608834453295c864509f2acf"},{"rt":2245.9300000045914,"stimulus":"img/shovel_alternate.jpg","response":"n","image":"img/shovel_alternate.jpg","old_or_new":"new","task":"recognition","trial_type":"image-keyboard-response","trial_index":17,"time_elapsed":58106,"internal_node_id":"0.0-3.0-0.7","subject_id":"5ecd7c0104c6a70e566f039c","study_id":"606233c0e42b980319b6a18e","session_id":"608834453295c864509f2acf","correct":true},{"rt":1874.020000017481,"stimulus":"\n      <p>How sure are you?</p>\n      <p>Rate your confidence in your answer from 1 (pure guess) to 5 (very sure) by pressing the corresponding button.</p>\n     ","response":3,"image":"img/shovel_alternate.jpg","task":"confidence","old_or_new":"new","trial_type":"html-button-response","trial_index":18,"time_elapsed":59982,"internal_node_id":"0.0-3.0-1.7","subject_id":"5ecd7c0104c6a70e566f039c","study_id":"606233c0e42b980319b6a18e","session_id":"608834453295c864509f2acf"},{"rt":1713.7100000109058,"stimulus":"img/knife.jpg","response":"y","image":"img/knife.jpg","old_or_new":"old","task":"recognition","trial_type":"image-keyboard-response","trial_index":19,"time_elapsed":62208,"internal_node_id":"0.0-3.0-0.8","subject_id":"5ecd7c0104c6a70e566f039c","study_id":"606233c0e42b980319b6a18e","session_id":"608834453295c864509f2acf","correct":true},{"rt":988.5399999911897,"stimulus":"\n      <p>How sure are you?</p>\n      <p>Rate your confidence in your answer from 1 (pure guess) to 5 (very sure) by pressing the corresponding button.</p>\n     ","response":4,"image":"img/knife.jpg","task":"confidence","old_or_new":"old","trial_type":"html-button-response","trial_index":20,"time_elapsed":63198,"internal_node_id":"0.0-3.0-1.8","subject_id":"5ecd7c0104c6a70e566f039c","study_id":"606233c0e42b980319b6a18e","session_id":"608834453295c864509f2acf"},{"rt":7042.699999990873,"stimulus":"img/pencil_sharpener_alternate.jpg","response":"n","image":"img/pencil_sharpener_alternate.jpg","old_or_new":"new","task":"recognition","trial_type":"image-keyboard-response","trial_index":21,"time_elapsed":70750,"internal_node_id":"0.0-3.0-0.9","subject_id":"5ecd7c0104c6a70e566f039c","study_id":"606233c0e42b980319b6a18e","session_id":"608834453295c864509f2acf","correct":true},{"rt":1965.570000000298,"stimulus":"\n      <p>How sure are you?</p>\n      <p>Rate your confidence in your answer from 1 (pure guess) to 5 (very sure) by pressing the corresponding button.</p>\n     ","response":2,"image":"img/pencil_sharpener_alternate.jpg","task":"confidence","old_or_new":"new","trial_type":"html-button-response","trial_index":22,"time_elapsed":72718,"internal_node_id":"0.0-3.0-1.9","subject_id":"5ecd7c0104c6a70e566f039c","study_id":"606233c0e42b980319b6a18e","session_id":"608834453295c864509f2acf"},{"rt":1156.1899999796879,"stimulus":"img/plate.jpg","response":"y","image":"img/plate.jpg","old_or_new":"old","task":"recognition","trial_type":"image-keyboard-response","trial_index":23,"time_elapsed":74387,"internal_node_id":"0.0-3.0-0.10","subject_id":"5ecd7c0104c6a70e566f039c","study_id":"606233c0e42b980319b6a18e","session_id":"608834453295c864509f2acf","correct":true},{"rt":1281.1250000086147,"stimulus":"\n      <p>How sure are you?</p>\n      <p>Rate your confidence in your answer from 1 (pure guess) to 5 (very sure) by pressing the corresponding button.</p>\n     ","response":4,"image":"img/plate.jpg","task":"confidence","old_or_new":"old","trial_type":"html-button-response","trial_index":24,"time_elapsed":75670,"internal_node_id":"0.0-3.0-1.10","subject_id":"5ecd7c0104c6a70e566f039c","study_id":"606233c0e42b980319b6a18e","session_id":"608834453295c864509f2acf"},{"rt":1598.809999995865,"stimulus":"img/spoon_alternate.jpg","response":"n","image":"img/spoon_alternate.jpg","old_or_new":"new","task":"recognition","trial_type":"image-keyboard-response","trial_index":25,"time_elapsed":77775,"internal_node_id":"0.0-3.0-0.11","subject_id":"5ecd7c0104c6a70e566f039c","study_id":"606233c0e42b980319b6a18e","session_id":"608834453295c864509f2acf","correct":true},{"rt":589.124999998603,"stimulus":"\n      <p>How sure are you?</p>\n      <p>Rate your confidence in your answer from 1 (pure guess) to 5 (very sure) by pressing the corresponding button.</p>\n     ","response":4,"image":"img/spoon_alternate.jpg","task":"confidence","old_or_new":"new","trial_type":"html-button-response","trial_index":26,"time_elapsed":78365,"internal_node_id":"0.0-3.0-1.11","subject_id":"5ecd7c0104c6a70e566f039c","study_id":"606233c0e42b980319b6a18e","session_id":"608834453295c864509f2acf"},{"rt":868.5500000137836,"stimulus":"img/plane.jpg","response":"y","image":"img/plane.jpg","old_or_new":"old","task":"recognition","trial_type":"image-keyboard-response","trial_index":27,"time_elapsed":79743,"internal_node_id":"0.0-3.0-0.12","subject_id":"5ecd7c0104c6a70e566f039c","study_id":"606233c0e42b980319b6a18e","session_id":"608834453295c864509f2acf","correct":true},{"rt":557.3199999926146,"stimulus":"\n      <p>How sure are you?</p>\n      <p>Rate your confidence in your answer from 1 (pure guess) to 5 (very sure) by pressing the corresponding button.</p>\n     ","response":4,"image":"img/plane.jpg","task":"confidence","old_or_new":"old","trial_type":"html-button-response","trial_index":28,"time_elapsed":80302,"internal_node_id":"0.0-3.0-1.12","subject_id":"5ecd7c0104c6a70e566f039c","study_id":"606233c0e42b980319b6a18e","session_id":"608834453295c864509f2acf"},{"rt":809.6000000077765,"stimulus":"img/toaster.jpg","response":"y","image":"img/toaster.jpg","old_or_new":"old","task":"recognition","trial_type":"image-keyboard-response","trial_index":29,"time_elapsed":81617,"internal_node_id":"0.0-3.0-0.13","subject_id":"5ecd7c0104c6a70e566f039c","study_id":"606233c0e42b980319b6a18e","session_id":"608834453295c864509f2acf","correct":true},{"rt":547.7350000001024,"stimulus":"\n      <p>How sure are you?</p>\n      <p>Rate your confidence in your answer from 1 (pure guess) to 5 (very sure) by pressing the corresponding button.</p>\n     ","response":4,"image":"img/toaster.jpg","task":"confidence","old_or_new":"old","trial_type":"html-button-response","trial_index":30,"time_elapsed":82166,"internal_node_id":"0.0-3.0-1.13","subject_id":"5ecd7c0104c6a70e566f039c","study_id":"606233c0e42b980319b6a18e","session_id":"608834453295c864509f2acf"},{"rt":1259.4199999875855,"stimulus":"img/shirt_alternate.jpg","response":"n","image":"img/shirt_alternate.jpg","old_or_new":"new","task":"recognition","trial_type":"image-keyboard-response","trial_index":31,"time_elapsed":83928,"internal_node_id":"0.0-3.0-0.14","subject_id":"5ecd7c0104c6a70e566f039c","study_id":"606233c0e42b980319b6a18e","session_id":"608834453295c864509f2acf","correct":true},{"rt":740.1649999956135,"stimulus":"\n      <p>How sure are you?</p>\n      <p>Rate your confidence in your answer from 1 (pure guess) to 5 (very sure) by pressing the corresponding button.</p>\n     ","response":4,"image":"img/shirt_alternate.jpg","task":"confidence","old_or_new":"new","trial_type":"html-button-response","trial_index":32,"time_elapsed":84670,"internal_node_id":"0.0-3.0-1.14","subject_id":"5ecd7c0104c6a70e566f039c","study_id":"606233c0e42b980319b6a18e","session_id":"608834453295c864509f2acf"},{"rt":3987.2449999966193,"stimulus":"img/trophy.jpg","response":"y","image":"img/trophy.jpg","old_or_new":"old","task":"recognition","trial_type":"image-keyboard-response","trial_index":33,"time_elapsed":89164,"internal_node_id":"0.0-3.0-0.15","subject_id":"5ecd7c0104c6a70e566f039c","study_id":"606233c0e42b980319b6a18e","session_id":"608834453295c864509f2acf","correct":true},{"rt":1135.7999999891035,"stimulus":"\n      <p>How sure are you?</p>\n      <p>Rate your confidence in your answer from 1 (pure guess) to 5 (very sure) by pressing the corresponding button.</p>\n     ","response":3,"image":"img/trophy.jpg","task":"confidence","old_or_new":"old","trial_type":"html-button-response","trial_index":34,"time_elapsed":90301,"internal_node_id":"0.0-3.0-1.15","subject_id":"5ecd7c0104c6a70e566f039c","study_id":"606233c0e42b980319b6a18e","session_id":"608834453295c864509f2acf"},{"rt":3433.194999990519,"stimulus":"img/rolling_pin_alternate.jpg","response":"n","image":"img/rolling_pin_alternate.jpg","old_or_new":"new","task":"recognition","trial_type":"image-keyboard-response","trial_index":35,"time_elapsed":94243,"internal_node_id":"0.0-3.0-0.16","subject_id":"5ecd7c0104c6a70e566f039c","study_id":"606233c0e42b980319b6a18e","session_id":"608834453295c864509f2acf","correct":true},{"rt":1560.3600000031292,"stimulus":"\n      <p>How sure are you?</p>\n      <p>Rate your confidence in your answer from 1 (pure guess) to 5 (very sure) by pressing the corresponding button.</p>\n     ","response":2,"image":"img/rolling_pin_alternate.jpg","task":"confidence","old_or_new":"new","trial_type":"html-button-response","trial_index":36,"time_elapsed":95805,"internal_node_id":"0.0-3.0-1.16","subject_id":"5ecd7c0104c6a70e566f039c","study_id":"606233c0e42b980319b6a18e","session_id":"608834453295c864509f2acf"},{"rt":1427.559999981895,"stimulus":"img/plane_alternate.jpg","response":"n","image":"img/plane_alternate.jpg","old_or_new":"new","task":"recognition","trial_type":"image-keyboard-response","trial_index":37,"time_elapsed":97738,"internal_node_id":"0.0-3.0-0.17","subject_id":"5ecd7c0104c6a70e566f039c","study_id":"606233c0e42b980319b6a18e","session_id":"608834453295c864509f2acf","correct":true},{"rt":1586.4500000025146,"stimulus":"\n      <p>How sure are you?</p>\n      <p>Rate your confidence in your answer from 1 (pure guess) to 5 (very sure) by pressing the corresponding button.</p>\n     ","response":4,"image":"img/plane_alternate.jpg","task":"confidence","old_or_new":"new","trial_type":"html-button-response","trial_index":38,"time_elapsed":99325,"internal_node_id":"0.0-3.0-1.17","subject_id":"5ecd7c0104c6a70e566f039c","study_id":"606233c0e42b980319b6a18e","session_id":"608834453295c864509f2acf"},{"rt":3230.0749999994878,"stimulus":"img/pizza_alternate.jpg","response":"n","image":"img/pizza_alternate.jpg","old_or_new":"new","task":"recognition","trial_type":"image-keyboard-response","trial_index":39,"time_elapsed":103060,"internal_node_id":"0.0-3.0-0.18","subject_id":"5ecd7c0104c6a70e566f039c","study_id":"606233c0e42b980319b6a18e","session_id":"608834453295c864509f2acf","correct":true},{"rt":1176.0499999800231,"stimulus":"\n      <p>How sure are you?</p>\n      <p>Rate your confidence in your answer from 1 (pure guess) to 5 (very sure) by pressing the corresponding button.</p>\n     ","response":3,"image":"img/pizza_alternate.jpg","task":"confidence","old_or_new":"new","trial_type":"html-button-response","trial_index":40,"time_elapsed":104237,"internal_node_id":"0.0-3.0-1.18","subject_id":"5ecd7c0104c6a70e566f039c","study_id":"606233c0e42b980319b6a18e","session_id":"608834453295c864509f2acf"},{"rt":940.904999995837,"stimulus":"img/pizza.jpg","response":"y","image":"img/pizza.jpg","old_or_new":"old","task":"recognition","trial_type":"image-keyboard-response","trial_index":41,"time_elapsed":105690,"internal_node_id":"0.0-3.0-0.19","subject_id":"5ecd7c0104c6a70e566f039c","study_id":"606233c0e42b980319b6a18e","session_id":"608834453295c864509f2acf","correct":true},{"rt":1289.855000009993,"stimulus":"\n      <p>How sure are you?</p>\n      <p>Rate your confidence in your answer from 1 (pure guess) to 5 (very sure) by pressing the corresponding button.</p>\n     ","response":4,"image":"img/pizza.jpg","task":"confidence","old_or_new":"old","trial_type":"html-button-response","trial_index":42,"time_elapsed":106981,"internal_node_id":"0.0-3.0-1.19","subject_id":"5ecd7c0104c6a70e566f039c","study_id":"606233c0e42b980319b6a18e","session_id":"608834453295c864509f2acf"},{"rt":1083.5500000102911,"stimulus":"img/shoe.jpg","response":"y","image":"img/shoe.jpg","old_or_new":"old","task":"recognition","trial_type":"image-keyboard-response","trial_index":43,"time_elapsed":108580,"internal_node_id":"0.0-3.0-0.20","subject_id":"5ecd7c0104c6a70e566f039c","study_id":"606233c0e42b980319b6a18e","session_id":"608834453295c864509f2acf","correct":true},{"rt":535.8899999991991,"stimulus":"\n      <p>How sure are you?</p>\n      <p>Rate your confidence in your answer from 1 (pure guess) to 5 (very sure) by pressing the corresponding button.</p>\n     ","response":4,"image":"img/shoe.jpg","task":"confidence","old_or_new":"old","trial_type":"html-button-response","trial_index":44,"time_elapsed":109117,"internal_node_id":"0.0-3.0-1.20","subject_id":"5ecd7c0104c6a70e566f039c","study_id":"606233c0e42b980319b6a18e","session_id":"608834453295c864509f2acf"},{"rt":813.9899999951012,"stimulus":"img/yarn.jpg","response":"y","image":"img/yarn.jpg","old_or_new":"old","task":"recognition","trial_type":"image-keyboard-response","trial_index":45,"time_elapsed":110445,"internal_node_id":"0.0-3.0-0.21","subject_id":"5ecd7c0104c6a70e566f039c","study_id":"606233c0e42b980319b6a18e","session_id":"608834453295c864509f2acf","correct":true},{"rt":511.224999994738,"stimulus":"\n      <p>How sure are you?</p>\n      <p>Rate your confidence in your answer from 1 (pure guess) to 5 (very sure) by pressing the corresponding button.</p>\n     ","response":4,"image":"img/yarn.jpg","task":"confidence","old_or_new":"old","trial_type":"html-button-response","trial_index":46,"time_elapsed":110957,"internal_node_id":"0.0-3.0-1.21","subject_id":"5ecd7c0104c6a70e566f039c","study_id":"606233c0e42b980319b6a18e","session_id":"608834453295c864509f2acf"},{"rt":1359.1399999859277,"stimulus":"img/plate_alternate.jpg","response":"n","image":"img/plate_alternate.jpg","old_or_new":"new","task":"recognition","trial_type":"image-keyboard-response","trial_index":47,"time_elapsed":112819,"internal_node_id":"0.0-3.0-0.22","subject_id":"5ecd7c0104c6a70e566f039c","study_id":"606233c0e42b980319b6a18e","session_id":"608834453295c864509f2acf","correct":true},{"rt":1192.4599999911152,"stimulus":"\n      <p>How sure are you?</p>\n      <p>Rate your confidence in your answer from 1 (pure guess) to 5 (very sure) by pressing the corresponding button.</p>\n     ","response":3,"image":"img/plate_alternate.jpg","task":"confidence","old_or_new":"new","trial_type":"html-button-response","trial_index":48,"time_elapsed":114013,"internal_node_id":"0.0-3.0-1.22","subject_id":"5ecd7c0104c6a70e566f039c","study_id":"606233c0e42b980319b6a18e","session_id":"608834453295c864509f2acf"},{"rt":1387.9949999973178,"stimulus":"img/wheel_barrow_alternate.jpg","response":"n","image":"img/wheel_barrow_alternate.jpg","old_or_new":"new","task":"recognition","trial_type":"image-keyboard-response","trial_index":49,"time_elapsed":115903,"internal_node_id":"0.0-3.0-0.23","subject_id":"5ecd7c0104c6a70e566f039c","study_id":"606233c0e42b980319b6a18e","session_id":"608834453295c864509f2acf","correct":true},{"rt":1228.46500002197,"stimulus":"\n      <p>How sure are you?</p>\n      <p>Rate your confidence in your answer from 1 (pure guess) to 5 (very sure) by pressing the corresponding button.</p>\n     ","response":4,"image":"img/wheel_barrow_alternate.jpg","task":"confidence","old_or_new":"new","trial_type":"html-button-response","trial_index":50,"time_elapsed":117133,"internal_node_id":"0.0-3.0-1.23","subject_id":"5ecd7c0104c6a70e566f039c","study_id":"606233c0e42b980319b6a18e","session_id":"608834453295c864509f2acf"},{"rt":1601.1600000201724,"stimulus":"img/tv.jpg","response":"y","image":"img/tv.jpg","old_or_new":"old","task":"recognition","trial_type":"image-keyboard-response","trial_index":51,"time_elapsed":119241,"internal_node_id":"0.0-3.0-0.24","subject_id":"5ecd7c0104c6a70e566f039c","study_id":"606233c0e42b980319b6a18e","session_id":"608834453295c864509f2acf","correct":true},{"rt":1083.2700000028126,"stimulus":"\n      <p>How sure are you?</p>\n      <p>Rate your confidence in your answer from 1 (pure guess) to 5 (very sure) by pressing the corresponding button.</p>\n     ","response":3,"image":"img/tv.jpg","task":"confidence","old_or_new":"old","trial_type":"html-button-response","trial_index":52,"time_elapsed":120326,"internal_node_id":"0.0-3.0-1.24","subject_id":"5ecd7c0104c6a70e566f039c","study_id":"606233c0e42b980319b6a18e","session_id":"608834453295c864509f2acf"},{"rt":892.1550000086427,"stimulus":"img/rolling_pin.jpg","response":"y","image":"img/rolling_pin.jpg","old_or_new":"old","task":"recognition","trial_type":"image-keyboard-response","trial_index":53,"time_elapsed":121731,"internal_node_id":"0.0-3.0-0.25","subject_id":"5ecd7c0104c6a70e566f039c","study_id":"606233c0e42b980319b6a18e","session_id":"608834453295c864509f2acf","correct":true},{"rt":905.4499999911059,"stimulus":"\n      <p>How sure are you?</p>\n      <p>Rate your confidence in your answer from 1 (pure guess) to 5 (very sure) by pressing the corresponding button.</p>\n     ","response":4,"image":"img/rolling_pin.jpg","task":"confidence","old_or_new":"old","trial_type":"html-button-response","trial_index":54,"time_elapsed":122638,"internal_node_id":"0.0-3.0-1.25","subject_id":"5ecd7c0104c6a70e566f039c","study_id":"606233c0e42b980319b6a18e","session_id":"608834453295c864509f2acf"},{"rt":2005.4649999947287,"stimulus":"img/seashell_alternate.jpg","response":"n","image":"img/seashell_alternate.jpg","old_or_new":"new","task":"recognition","trial_type":"image-keyboard-response","trial_index":55,"time_elapsed":125148,"internal_node_id":"0.0-3.0-0.26","subject_id":"5ecd7c0104c6a70e566f039c","study_id":"606233c0e42b980319b6a18e","session_id":"608834453295c864509f2acf","correct":true},{"rt":2432.2099999990314,"stimulus":"\n      <p>How sure are you?</p>\n      <p>Rate your confidence in your answer from 1 (pure guess) to 5 (very sure) by pressing the corresponding button.</p>\n     ","response":4,"image":"img/seashell_alternate.jpg","task":"confidence","old_or_new":"new","trial_type":"html-button-response","trial_index":56,"time_elapsed":127582,"internal_node_id":"0.0-3.0-1.26","subject_id":"5ecd7c0104c6a70e566f039c","study_id":"606233c0e42b980319b6a18e","session_id":"608834453295c864509f2acf"},{"rt":820.3000000212342,"stimulus":"img/parfait.jpg","response":"y","image":"img/parfait.jpg","old_or_new":"old","task":"recognition","trial_type":"image-keyboard-response","trial_index":57,"time_elapsed":128913,"internal_node_id":"0.0-3.0-0.27","subject_id":"5ecd7c0104c6a70e566f039c","study_id":"606233c0e42b980319b6a18e","session_id":"608834453295c864509f2acf","correct":true},{"rt":459.63500000652857,"stimulus":"\n      <p>How sure are you?</p>\n      <p>Rate your confidence in your answer from 1 (pure guess) to 5 (very sure) by pressing the corresponding button.</p>\n     ","response":4,"image":"img/parfait.jpg","task":"confidence","old_or_new":"old","trial_type":"html-button-response","trial_index":58,"time_elapsed":129374,"internal_node_id":"0.0-3.0-1.27","subject_id":"5ecd7c0104c6a70e566f039c","study_id":"606233c0e42b980319b6a18e","session_id":"608834453295c864509f2acf"},{"rt":1815.744999999879,"stimulus":"img/toothbrush_alternate.jpg","response":"n","image":"img/toothbrush_alternate.jpg","old_or_new":"new","task":"recognition","trial_type":"image-keyboard-response","trial_index":59,"time_elapsed":131706,"internal_node_id":"0.0-3.0-0.28","subject_id":"5ecd7c0104c6a70e566f039c","study_id":"606233c0e42b980319b6a18e","session_id":"608834453295c864509f2acf","correct":true},{"rt":1009.8699999798555,"stimulus":"\n      <p>How sure are you?</p>\n      <p>Rate your confidence in your answer from 1 (pure guess) to 5 (very sure) by pressing the corresponding button.</p>\n     ","response":3,"image":"img/toothbrush_alternate.jpg","task":"confidence","old_or_new":"new","trial_type":"html-button-response","trial_index":60,"time_elapsed":132717,"internal_node_id":"0.0-3.0-1.28","subject_id":"5ecd7c0104c6a70e566f039c","study_id":"606233c0e42b980319b6a18e","session_id":"608834453295c864509f2acf"},{"rt":733.2100000057835,"stimulus":"img/scissors.jpg","response":"y","image":"img/scissors.jpg","old_or_new":"old","task":"recognition","trial_type":"image-keyboard-response","trial_index":61,"time_elapsed":133968,"internal_node_id":"0.0-3.0-0.29","subject_id":"5ecd7c0104c6a70e566f039c","study_id":"606233c0e42b980319b6a18e","session_id":"608834453295c864509f2acf","correct":true},{"rt":812.8349999897182,"stimulus":"\n      <p>How sure are you?</p>\n      <p>Rate your confidence in your answer from 1 (pure guess) to 5 (very sure) by pressing the corresponding button.</p>\n     ","response":4,"image":"img/scissors.jpg","task":"confidence","old_or_new":"old","trial_type":"html-button-response","trial_index":62,"time_elapsed":134782,"internal_node_id":"0.0-3.0-1.29","subject_id":"5ecd7c0104c6a70e566f039c","study_id":"606233c0e42b980319b6a18e","session_id":"608834453295c864509f2acf"},{"rt":1226.6600000148173,"stimulus":"img/sink_alternate.jpg","response":"n","image":"img/sink_alternate.jpg","old_or_new":"new","task":"recognition","trial_type":"image-keyboard-response","trial_index":63,"time_elapsed":136523,"internal_node_id":"0.0-3.0-0.30","subject_id":"5ecd7c0104c6a70e566f039c","study_id":"606233c0e42b980319b6a18e","session_id":"608834453295c864509f2acf","correct":true},{"rt":697.3299999954179,"stimulus":"\n      <p>How sure are you?</p>\n      <p>Rate your confidence in your answer from 1 (pure guess) to 5 (very sure) by pressing the corresponding button.</p>\n     ","response":4,"image":"img/sink_alternate.jpg","task":"confidence","old_or_new":"new","trial_type":"html-button-response","trial_index":64,"time_elapsed":137222,"internal_node_id":"0.0-3.0-1.30","subject_id":"5ecd7c0104c6a70e566f039c","study_id":"606233c0e42b980319b6a18e","session_id":"608834453295c864509f2acf"},{"rt":1506.3450000016019,"stimulus":"img/toaster_alternate.jpg","response":"n","image":"img/toaster_alternate.jpg","old_or_new":"new","task":"recognition","trial_type":"image-keyboard-response","trial_index":65,"time_elapsed":139241,"internal_node_id":"0.0-3.0-0.31","subject_id":"5ecd7c0104c6a70e566f039c","study_id":"606233c0e42b980319b6a18e","session_id":"608834453295c864509f2acf","correct":true},{"rt":971.5500000165775,"stimulus":"\n      <p>How sure are you?</p>\n      <p>Rate your confidence in your answer from 1 (pure guess) to 5 (very sure) by pressing the corresponding button.</p>\n     ","response":4,"image":"img/toaster_alternate.jpg","task":"confidence","old_or_new":"new","trial_type":"html-button-response","trial_index":66,"time_elapsed":140214,"internal_node_id":"0.0-3.0-1.31","subject_id":"5ecd7c0104c6a70e566f039c","study_id":"606233c0e42b980319b6a18e","session_id":"608834453295c864509f2acf"},{"rt":1266.9049999967683,"stimulus":"img/shovel.jpg","response":"y","image":"img/shovel.jpg","old_or_new":"old","task":"recognition","trial_type":"image-keyboard-response","trial_index":67,"time_elapsed":141988,"internal_node_id":"0.0-3.0-0.32","subject_id":"5ecd7c0104c6a70e566f039c","study_id":"606233c0e42b980319b6a18e","session_id":"608834453295c864509f2acf","correct":true},{"rt":1240.059999981895,"stimulus":"\n      <p>How sure are you?</p>\n      <p>Rate your confidence in your answer from 1 (pure guess) to 5 (very sure) by pressing the corresponding button.</p>\n     ","response":4,"image":"img/shovel.jpg","task":"confidence","old_or_new":"old","trial_type":"html-button-response","trial_index":68,"time_elapsed":143230,"internal_node_id":"0.0-3.0-1.32","subject_id":"5ecd7c0104c6a70e566f039c","study_id":"606233c0e42b980319b6a18e","session_id":"608834453295c864509f2acf"},{"rt":1164.7499999962747,"stimulus":"img/scissors_alternate.jpg","response":"n","image":"img/scissors_alternate.jpg","old_or_new":"new","task":"recognition","trial_type":"image-keyboard-response","trial_index":69,"time_elapsed":144900,"internal_node_id":"0.0-3.0-0.33","subject_id":"5ecd7c0104c6a70e566f039c","study_id":"606233c0e42b980319b6a18e","session_id":"608834453295c864509f2acf","correct":true},{"rt":520.5349999887403,"stimulus":"\n      <p>How sure are you?</p>\n      <p>Rate your confidence in your answer from 1 (pure guess) to 5 (very sure) by pressing the corresponding button.</p>\n     ","response":4,"image":"img/scissors_alternate.jpg","task":"confidence","old_or_new":"new","trial_type":"html-button-response","trial_index":70,"time_elapsed":145422,"internal_node_id":"0.0-3.0-1.33","subject_id":"5ecd7c0104c6a70e566f039c","study_id":"606233c0e42b980319b6a18e","session_id":"608834453295c864509f2acf"},{"rt":1127.680000005057,"stimulus":"img/skates.jpg","response":"y","image":"img/skates.jpg","old_or_new":"old","task":"recognition","trial_type":"image-keyboard-response","trial_index":71,"time_elapsed":147058,"internal_node_id":"0.0-3.0-0.34","subject_id":"5ecd7c0104c6a70e566f039c","study_id":"606233c0e42b980319b6a18e","session_id":"608834453295c864509f2acf","correct":true},{"rt":602.0300000091083,"stimulus":"\n      <p>How sure are you?</p>\n      <p>Rate your confidence in your answer from 1 (pure guess) to 5 (very sure) by pressing the corresponding button.</p>\n     ","response":4,"image":"img/skates.jpg","task":"confidence","old_or_new":"old","trial_type":"html-button-response","trial_index":72,"time_elapsed":147661,"internal_node_id":"0.0-3.0-1.34","subject_id":"5ecd7c0104c6a70e566f039c","study_id":"606233c0e42b980319b6a18e","session_id":"608834453295c864509f2acf"},{"rt":2216.675000003306,"stimulus":"img/power_cord_alternate.jpg","response":"n","image":"img/power_cord_alternate.jpg","old_or_new":"new","task":"recognition","trial_type":"image-keyboard-response","trial_index":73,"time_elapsed":150381,"internal_node_id":"0.0-3.0-0.35","subject_id":"5ecd7c0104c6a70e566f039c","study_id":"606233c0e42b980319b6a18e","session_id":"608834453295c864509f2acf","correct":true},{"rt":3455.470000015339,"stimulus":"\n      <p>How sure are you?</p>\n      <p>Rate your confidence in your answer from 1 (pure guess) to 5 (very sure) by pressing the corresponding button.</p>\n     ","response":2,"image":"img/power_cord_alternate.jpg","task":"confidence","old_or_new":"new","trial_type":"html-button-response","trial_index":74,"time_elapsed":153837,"internal_node_id":"0.0-3.0-1.35","subject_id":"5ecd7c0104c6a70e566f039c","study_id":"606233c0e42b980319b6a18e","session_id":"608834453295c864509f2acf"},{"rt":791.7599999927916,"stimulus":"img/seashell.jpg","response":"y","image":"img/seashell.jpg","old_or_new":"old","task":"recognition","trial_type":"image-keyboard-response","trial_index":75,"time_elapsed":155132,"internal_node_id":"0.0-3.0-0.36","subject_id":"5ecd7c0104c6a70e566f039c","study_id":"606233c0e42b980319b6a18e","session_id":"608834453295c864509f2acf","correct":true},{"rt":591.8750000128057,"stimulus":"\n      <p>How sure are you?</p>\n      <p>Rate your confidence in your answer from 1 (pure guess) to 5 (very sure) by pressing the corresponding button.</p>\n     ","response":4,"image":"img/seashell.jpg","task":"confidence","old_or_new":"old","trial_type":"html-button-response","trial_index":76,"time_elapsed":155725,"internal_node_id":"0.0-3.0-1.36","subject_id":"5ecd7c0104c6a70e566f039c","study_id":"606233c0e42b980319b6a18e","session_id":"608834453295c864509f2acf"},{"rt":1630.795000004582,"stimulus":"img/umbrella_alternate.jpg","response":"n","image":"img/umbrella_alternate.jpg","old_or_new":"new","task":"recognition","trial_type":"image-keyboard-response","trial_index":77,"time_elapsed":157859,"internal_node_id":"0.0-3.0-0.37","subject_id":"5ecd7c0104c6a70e566f039c","study_id":"606233c0e42b980319b6a18e","session_id":"608834453295c864509f2acf","correct":true},{"rt":544.6200000005774,"stimulus":"\n      <p>How sure are you?</p>\n      <p>Rate your confidence in your answer from 1 (pure guess) to 5 (very sure) by pressing the corresponding button.</p>\n     ","response":4,"image":"img/umbrella_alternate.jpg","task":"confidence","old_or_new":"new","trial_type":"html-button-response","trial_index":78,"time_elapsed":158405,"internal_node_id":"0.0-3.0-1.37","subject_id":"5ecd7c0104c6a70e566f039c","study_id":"606233c0e42b980319b6a18e","session_id":"608834453295c864509f2acf"},{"rt":871.629999979632,"stimulus":"img/watch.jpg","response":"y","image":"img/watch.jpg","old_or_new":"old","task":"recognition","trial_type":"image-keyboard-response","trial_index":79,"time_elapsed":159780,"internal_node_id":"0.0-3.0-0.38","subject_id":"5ecd7c0104c6a70e566f039c","study_id":"606233c0e42b980319b6a18e","session_id":"608834453295c864509f2acf","correct":true},{"rt":533.8800000026822,"stimulus":"\n      <p>How sure are you?</p>\n      <p>Rate your confidence in your answer from 1 (pure guess) to 5 (very sure) by pressing the corresponding button.</p>\n     ","response":4,"image":"img/watch.jpg","task":"confidence","old_or_new":"old","trial_type":"html-button-response","trial_index":80,"time_elapsed":160318,"internal_node_id":"0.0-3.0-1.38","subject_id":"5ecd7c0104c6a70e566f039c","study_id":"606233c0e42b980319b6a18e","session_id":"608834453295c864509f2acf"},{"rt":1670.8500000240747,"stimulus":"img/spoon.jpg","response":"y","image":"img/spoon.jpg","old_or_new":"old","task":"recognition","trial_type":"image-keyboard-response","trial_index":81,"time_elapsed":162494,"internal_node_id":"0.0-3.0-0.39","subject_id":"5ecd7c0104c6a70e566f039c","study_id":"606233c0e42b980319b6a18e","session_id":"608834453295c864509f2acf","correct":true},{"rt":646.4600000181235,"stimulus":"\n      <p>How sure are you?</p>\n      <p>Rate your confidence in your answer from 1 (pure guess) to 5 (very sure) by pressing the corresponding button.</p>\n     ","response":4,"image":"img/spoon.jpg","task":"confidence","old_or_new":"old","trial_type":"html-button-response","trial_index":82,"time_elapsed":163141,"internal_node_id":"0.0-3.0-1.39","subject_id":"5ecd7c0104c6a70e566f039c","study_id":"606233c0e42b980319b6a18e","session_id":"608834453295c864509f2acf"},{"rt":2014.100000000326,"stimulus":"img/pencil_sharpener.jpg","response":"y","image":"img/pencil_sharpener.jpg","old_or_new":"old","task":"recognition","trial_type":"image-keyboard-response","trial_index":83,"time_elapsed":165670,"internal_node_id":"0.0-3.0-0.40","subject_id":"5ecd7c0104c6a70e566f039c","study_id":"606233c0e42b980319b6a18e","session_id":"608834453295c864509f2acf","correct":true},{"rt":654.2349999945145,"stimulus":"\n      <p>How sure are you?</p>\n      <p>Rate your confidence in your answer from 1 (pure guess) to 5 (very sure) by pressing the corresponding button.</p>\n     ","response":4,"image":"img/pencil_sharpener.jpg","task":"confidence","old_or_new":"old","trial_type":"html-button-response","trial_index":84,"time_elapsed":166325,"internal_node_id":"0.0-3.0-1.40","subject_id":"5ecd7c0104c6a70e566f039c","study_id":"606233c0e42b980319b6a18e","session_id":"608834453295c864509f2acf"},{"rt":1874.790000001667,"stimulus":"img/power_cord.jpg","response":"y","image":"img/power_cord.jpg","old_or_new":"old","task":"recognition","trial_type":"image-keyboard-response","trial_index":85,"time_elapsed":168707,"internal_node_id":"0.0-3.0-0.41","subject_id":"5ecd7c0104c6a70e566f039c","study_id":"606233c0e42b980319b6a18e","session_id":"608834453295c864509f2acf","correct":true},{"rt":657.6049999857787,"stimulus":"\n      <p>How sure are you?</p>\n      <p>Rate your confidence in your answer from 1 (pure guess) to 5 (very sure) by pressing the corresponding button.</p>\n     ","response":4,"image":"img/power_cord.jpg","task":"confidence","old_or_new":"old","trial_type":"html-button-response","trial_index":86,"time_elapsed":169366,"internal_node_id":"0.0-3.0-1.41","subject_id":"5ecd7c0104c6a70e566f039c","study_id":"606233c0e42b980319b6a18e","session_id":"608834453295c864509f2acf"},{"rt":900.629999989178,"stimulus":"img/watch_alternate.jpg","response":"n","image":"img/watch_alternate.jpg","old_or_new":"new","task":"recognition","trial_type":"image-keyboard-response","trial_index":87,"time_elapsed":170774,"internal_node_id":"0.0-3.0-0.42","subject_id":"5ecd7c0104c6a70e566f039c","study_id":"606233c0e42b980319b6a18e","session_id":"608834453295c864509f2acf","correct":true},{"rt":629.9100000178441,"stimulus":"\n      <p>How sure are you?</p>\n      <p>Rate your confidence in your answer from 1 (pure guess) to 5 (very sure) by pressing the corresponding button.</p>\n     ","response":4,"image":"img/watch_alternate.jpg","task":"confidence","old_or_new":"new","trial_type":"html-button-response","trial_index":88,"time_elapsed":171405,"internal_node_id":"0.0-3.0-1.42","subject_id":"5ecd7c0104c6a70e566f039c","study_id":"606233c0e42b980319b6a18e","session_id":"608834453295c864509f2acf"},{"rt":864.5499999984168,"stimulus":"img/toothbrush.jpg","response":"y","image":"img/toothbrush.jpg","old_or_new":"old","task":"recognition","trial_type":"image-keyboard-response","trial_index":89,"time_elapsed":172774,"internal_node_id":"0.0-3.0-0.43","subject_id":"5ecd7c0104c6a70e566f039c","study_id":"606233c0e42b980319b6a18e","session_id":"608834453295c864509f2acf","correct":true},{"rt":542.3249999876134,"stimulus":"\n      <p>How sure are you?</p>\n      <p>Rate your confidence in your answer from 1 (pure guess) to 5 (very sure) by pressing the corresponding button.</p>\n     ","response":4,"image":"img/toothbrush.jpg","task":"confidence","old_or_new":"old","trial_type":"html-button-response","trial_index":90,"time_elapsed":173317,"internal_node_id":"0.0-3.0-1.43","subject_id":"5ecd7c0104c6a70e566f039c","study_id":"606233c0e42b980319b6a18e","session_id":"608834453295c864509f2acf"},{"rt":1078.9550000044983,"stimulus":"img/knife_alternate.jpg","response":"n","image":"img/knife_alternate.jpg","old_or_new":"new","task":"recognition","trial_type":"image-keyboard-response","trial_index":91,"time_elapsed":174904,"internal_node_id":"0.0-3.0-0.44","subject_id":"5ecd7c0104c6a70e566f039c","study_id":"606233c0e42b980319b6a18e","session_id":"608834453295c864509f2acf","correct":true},{"rt":564.5749999966938,"stimulus":"\n      <p>How sure are you?</p>\n      <p>Rate your confidence in your answer from 1 (pure guess) to 5 (very sure) by pressing the corresponding button.</p>\n     ","response":4,"image":"img/knife_alternate.jpg","task":"confidence","old_or_new":"new","trial_type":"html-button-response","trial_index":92,"time_elapsed":175469,"internal_node_id":"0.0-3.0-1.44","subject_id":"5ecd7c0104c6a70e566f039c","study_id":"606233c0e42b980319b6a18e","session_id":"608834453295c864509f2acf"},{"rt":1289.92000001017,"stimulus":"img/parfait_alternate.jpg","response":"n","image":"img/parfait_alternate.jpg","old_or_new":"new","task":"recognition","trial_type":"image-keyboard-response","trial_index":93,"time_elapsed":177272,"internal_node_id":"0.0-3.0-0.45","subject_id":"5ecd7c0104c6a70e566f039c","study_id":"606233c0e42b980319b6a18e","session_id":"608834453295c864509f2acf","correct":true},{"rt":499.53000000095926,"stimulus":"\n      <p>How sure are you?</p>\n      <p>Rate your confidence in your answer from 1 (pure guess) to 5 (very sure) by pressing the corresponding button.</p>\n     ","response":4,"image":"img/parfait_alternate.jpg","task":"confidence","old_or_new":"new","trial_type":"html-button-response","trial_index":94,"time_elapsed":177773,"internal_node_id":"0.0-3.0-1.45","subject_id":"5ecd7c0104c6a70e566f039c","study_id":"606233c0e42b980319b6a18e","session_id":"608834453295c864509f2acf"},{"rt":921.0050000110641,"stimulus":"img/yarn_alternate.jpg","response":"n","image":"img/yarn_alternate.jpg","old_or_new":"new","task":"recognition","trial_type":"image-keyboard-response","trial_index":95,"time_elapsed":179206,"internal_node_id":"0.0-3.0-0.46","subject_id":"5ecd7c0104c6a70e566f039c","study_id":"606233c0e42b980319b6a18e","session_id":"608834453295c864509f2acf","correct":true},{"rt":501.69499998446554,"stimulus":"\n      <p>How sure are you?</p>\n      <p>Rate your confidence in your answer from 1 (pure guess) to 5 (very sure) by pressing the corresponding button.</p>\n     ","response":4,"image":"img/yarn_alternate.jpg","task":"confidence","old_or_new":"new","trial_type":"html-button-response","trial_index":96,"time_elapsed":179709,"internal_node_id":"0.0-3.0-1.46","subject_id":"5ecd7c0104c6a70e566f039c","study_id":"606233c0e42b980319b6a18e","session_id":"608834453295c864509f2acf"},{"rt":923.399999999674,"stimulus":"img/skates_alternate.jpg","response":"n","image":"img/skates_alternate.jpg","old_or_new":"new","task":"recognition","trial_type":"image-keyboard-response","trial_index":97,"time_elapsed":181149,"internal_node_id":"0.0-3.0-0.47","subject_id":"5ecd7c0104c6a70e566f039c","study_id":"606233c0e42b980319b6a18e","session_id":"608834453295c864509f2acf","correct":true},{"rt":494.7099999990314,"stimulus":"\n      <p>How sure are you?</p>\n      <p>Rate your confidence in your answer from 1 (pure guess) to 5 (very sure) by pressing the corresponding button.</p>\n     ","response":4,"image":"img/skates_alternate.jpg","task":"confidence","old_or_new":"new","trial_type":"html-button-response","trial_index":98,"time_elapsed":181645,"internal_node_id":"0.0-3.0-1.47","subject_id":"5ecd7c0104c6a70e566f039c","study_id":"606233c0e42b980319b6a18e","session_id":"608834453295c864509f2acf"}]