[{"success":true,"timeout":false,"failed_images":[],"failed_audio":[],"failed_video":[],"trial_type":"preload","trial_index":0,"time_elapsed":8172,"internal_node_id":"0.0-0.0","subject_id":"5c7fff551c40f30001b45b83","study_id":"606233c0e42b980319b6a18e","session_id":"6088346c57813a6349c61e58"},{"rt":37506.40499999281,"stimulus":"\n      <div style=\"width:800px; text-align: left;\">\n        <p>Welcome to day 2 of the experiment! Thanks for coming back.</p>\n        <p>You will be presented with a series of images. Images will appear one at a time.</p>\n        <p>Each image will remain on the screen until you press either <span style=\"font-weight: bold;\">\"y\" to indicate you have seen the \n        exact same photo the day before or \"n\" to indicate you have not seen the exact same photo the day before.</span></p>\n        <p>After you answer yes (\"y\") or no (\"n\"), you will then be prompted to rate your certainty on a scale of\n        1 (pure guess) to 5 (very sure).</p>\n      </div>\n    ","response":0,"trial_type":"html-button-response","trial_index":1,"time_elapsed":45683,"internal_node_id":"0.0-1.0","subject_id":"5c7fff551c40f30001b45b83","study_id":"606233c0e42b980319b6a18e","session_id":"6088346c57813a6349c61e58"},{"success":true,"trial_type":"fullscreen","trial_index":2,"time_elapsed":48693,"internal_node_id":"0.0-2.0","subject_id":"5c7fff551c40f30001b45b83","study_id":"606233c0e42b980319b6a18e","session_id":"6088346c57813a6349c61e58"},{"rt":2922.0300000160933,"stimulus":"img/plane_alternate.jpg","response":"n","image":"img/plane_alternate.jpg","old_or_new":"new","task":"recognition","trial_type":"image-keyboard-response","trial_index":3,"time_elapsed":51644,"internal_node_id":"0.0-3.0-0.0","subject_id":"5c7fff551c40f30001b45b83","study_id":"606233c0e42b980319b6a18e","session_id":"6088346c57813a6349c61e58","correct":true},{"rt":1675.680000014836,"stimulus":"\n      <p>How sure are you?</p>\n      <p>Rate your confidence in your answer from 1 (pure guess) to 5 (very sure) by pressing the corresponding button.</p>\n     ","response":3,"image":"img/plane_alternate.jpg","task":"confidence","old_or_new":"new","trial_type":"html-button-response","trial_index":4,"time_elapsed":53323,"internal_node_id":"0.0-3.0-1.0","subject_id":"5c7fff551c40f30001b45b83","study_id":"606233c0e42b980319b6a18e","session_id":"6088346c57813a6349c61e58"},{"rt":1664.3299999996088,"stimulus":"img/toaster_alternate.jpg","response":"y","image":"img/toaster_alternate.jpg","old_or_new":"new","task":"recognition","trial_type":"image-keyboard-response","trial_index":5,"time_elapsed":55503,"internal_node_id":"0.0-3.0-0.1","subject_id":"5c7fff551c40f30001b45b83","study_id":"606233c0e42b980319b6a18e","session_id":"6088346c57813a6349c61e58","correct":false},{"rt":1096.2149999977555,"stimulus":"\n      <p>How sure are you?</p>\n      <p>Rate your confidence in your answer from 1 (pure guess) to 5 (very sure) by pressing the corresponding button.</p>\n     ","response":4,"image":"img/toaster_alternate.jpg","task":"confidence","old_or_new":"new","trial_type":"html-button-response","trial_index":6,"time_elapsed":56603,"internal_node_id":"0.0-3.0-1.1","subject_id":"5c7fff551c40f30001b45b83","study_id":"606233c0e42b980319b6a18e","session_id":"6088346c57813a6349c61e58"},{"rt":770.5299999797717,"stimulus":"img/wheel_barrow.jpg","response":"y","image":"img/wheel_barrow.jpg","old_or_new":"old","task":"recognition","trial_type":"image-keyboard-response","trial_index":7,"time_elapsed":57878,"internal_node_id":"0.0-3.0-0.2","subject_id":"5c7fff551c40f30001b45b83","study_id":"606233c0e42b980319b6a18e","session_id":"6088346c57813a6349c61e58","correct":true},{"rt":738.2250000082422,"stimulus":"\n      <p>How sure are you?</p>\n      <p>Rate your confidence in your answer from 1 (pure guess) to 5 (very sure) by pressing the corresponding button.</p>\n     ","response":4,"image":"img/wheel_barrow.jpg","task":"confidence","old_or_new":"old","trial_type":"html-button-response","trial_index":8,"time_elapsed":58620,"internal_node_id":"0.0-3.0-1.2","subject_id":"5c7fff551c40f30001b45b83","study_id":"606233c0e42b980319b6a18e","session_id":"6088346c57813a6349c61e58"},{"rt":809.6500000101514,"stimulus":"img/parfait.jpg","response":"y","image":"img/parfait.jpg","old_or_new":"old","task":"recognition","trial_type":"image-keyboard-response","trial_index":9,"time_elapsed":59937,"internal_node_id":"0.0-3.0-0.3","subject_id":"5c7fff551c40f30001b45b83","study_id":"606233c0e42b980319b6a18e","session_id":"6088346c57813a6349c61e58","correct":true},{"rt":655.4100000066683,"stimulus":"\n      <p>How sure are you?</p>\n      <p>Rate your confidence in your answer from 1 (pure guess) to 5 (very sure) by pressing the corresponding button.</p>\n     ","response":4,"image":"img/parfait.jpg","task":"confidence","old_or_new":"old","trial_type":"html-button-response","trial_index":10,"time_elapsed":60595,"internal_node_id":"0.0-3.0-1.3","subject_id":"5c7fff551c40f30001b45b83","study_id":"606233c0e42b980319b6a18e","session_id":"6088346c57813a6349c61e58"},{"rt":997.0099999918602,"stimulus":"img/skates.jpg","response":"y","image":"img/skates.jpg","old_or_new":"old","task":"recognition","trial_type":"image-keyboard-response","trial_index":11,"time_elapsed":62106,"internal_node_id":"0.0-3.0-0.4","subject_id":"5c7fff551c40f30001b45b83","study_id":"606233c0e42b980319b6a18e","session_id":"6088346c57813a6349c61e58","correct":true},{"rt":574.9200000136625,"stimulus":"\n      <p>How sure are you?</p>\n      <p>Rate your confidence in your answer from 1 (pure guess) to 5 (very sure) by pressing the corresponding button.</p>\n     ","response":4,"image":"img/skates.jpg","task":"confidence","old_or_new":"old","trial_type":"html-button-response","trial_index":12,"time_elapsed":62683,"internal_node_id":"0.0-3.0-1.4","subject_id":"5c7fff551c40f30001b45b83","study_id":"606233c0e42b980319b6a18e","session_id":"6088346c57813a6349c61e58"},{"rt":583.2850000006147,"stimulus":"img/rolling_pin.jpg","response":"y","image":"img/rolling_pin.jpg","old_or_new":"old","task":"recognition","trial_type":"image-keyboard-response","trial_index":13,"time_elapsed":63773,"internal_node_id":"0.0-3.0-0.5","subject_id":"5c7fff551c40f30001b45b83","study_id":"606233c0e42b980319b6a18e","session_id":"6088346c57813a6349c61e58","correct":true},{"rt":563.8949999993201,"stimulus":"\n      <p>How sure are you?</p>\n      <p>Rate your confidence in your answer from 1 (pure guess) to 5 (very sure) by pressing the corresponding button.</p>\n     ","response":4,"image":"img/rolling_pin.jpg","task":"confidence","old_or_new":"old","trial_type":"html-button-response","trial_index":14,"time_elapsed":64339,"internal_node_id":"0.0-3.0-1.5","subject_id":"5c7fff551c40f30001b45b83","study_id":"606233c0e42b980319b6a18e","session_id":"6088346c57813a6349c61e58"},{"rt":8115.625000005821,"stimulus":"img/shovel_alternate.jpg","response":"n","image":"img/shovel_alternate.jpg","old_or_new":"new","task":"recognition","trial_type":"image-keyboard-response","trial_index":15,"time_elapsed":72957,"internal_node_id":"0.0-3.0-0.6","subject_id":"5c7fff551c40f30001b45b83","study_id":"606233c0e42b980319b6a18e","session_id":"6088346c57813a6349c61e58","correct":true},{"rt":1338.2500000006985,"stimulus":"\n      <p>How sure are you?</p>\n      <p>Rate your confidence in your answer from 1 (pure guess) to 5 (very sure) by pressing the corresponding button.</p>\n     ","response":1,"image":"img/shovel_alternate.jpg","task":"confidence","old_or_new":"new","trial_type":"html-button-response","trial_index":16,"time_elapsed":74299,"internal_node_id":"0.0-3.0-1.6","subject_id":"5c7fff551c40f30001b45b83","study_id":"606233c0e42b980319b6a18e","session_id":"6088346c57813a6349c61e58"},{"rt":1102.180000016233,"stimulus":"img/yarn_alternate.jpg","response":"n","image":"img/yarn_alternate.jpg","old_or_new":"new","task":"recognition","trial_type":"image-keyboard-response","trial_index":17,"time_elapsed":75904,"internal_node_id":"0.0-3.0-0.7","subject_id":"5c7fff551c40f30001b45b83","study_id":"606233c0e42b980319b6a18e","session_id":"6088346c57813a6349c61e58","correct":true},{"rt":1200.2950000169221,"stimulus":"\n      <p>How sure are you?</p>\n      <p>Rate your confidence in your answer from 1 (pure guess) to 5 (very sure) by pressing the corresponding button.</p>\n     ","response":4,"image":"img/yarn_alternate.jpg","task":"confidence","old_or_new":"new","trial_type":"html-button-response","trial_index":18,"time_elapsed":77107,"internal_node_id":"0.0-3.0-1.7","subject_id":"5c7fff551c40f30001b45b83","study_id":"606233c0e42b980319b6a18e","session_id":"6088346c57813a6349c61e58"},{"rt":1043.504999979632,"stimulus":"img/yarn.jpg","response":"y","image":"img/yarn.jpg","old_or_new":"old","task":"recognition","trial_type":"image-keyboard-response","trial_index":19,"time_elapsed":78654,"internal_node_id":"0.0-3.0-0.8","subject_id":"5c7fff551c40f30001b45b83","study_id":"606233c0e42b980319b6a18e","session_id":"6088346c57813a6349c61e58","correct":true},{"rt":602.5300000037532,"stimulus":"\n      <p>How sure are you?</p>\n      <p>Rate your confidence in your answer from 1 (pure guess) to 5 (very sure) by pressing the corresponding button.</p>\n     ","response":4,"image":"img/yarn.jpg","task":"confidence","old_or_new":"old","trial_type":"html-button-response","trial_index":20,"time_elapsed":79259,"internal_node_id":"0.0-3.0-1.8","subject_id":"5c7fff551c40f30001b45b83","study_id":"606233c0e42b980319b6a18e","session_id":"6088346c57813a6349c61e58"},{"rt":1740.7299999904353,"stimulus":"img/parfait_alternate.jpg","response":"n","image":"img/parfait_alternate.jpg","old_or_new":"new","task":"recognition","trial_type":"image-keyboard-response","trial_index":21,"time_elapsed":81516,"internal_node_id":"0.0-3.0-0.9","subject_id":"5c7fff551c40f30001b45b83","study_id":"606233c0e42b980319b6a18e","session_id":"6088346c57813a6349c61e58","correct":true},{"rt":1988.695000007283,"stimulus":"\n      <p>How sure are you?</p>\n      <p>Rate your confidence in your answer from 1 (pure guess) to 5 (very sure) by pressing the corresponding button.</p>\n     ","response":4,"image":"img/parfait_alternate.jpg","task":"confidence","old_or_new":"new","trial_type":"html-button-response","trial_index":22,"time_elapsed":83507,"internal_node_id":"0.0-3.0-1.9","subject_id":"5c7fff551c40f30001b45b83","study_id":"606233c0e42b980319b6a18e","session_id":"6088346c57813a6349c61e58"},{"rt":829.2950000031851,"stimulus":"img/pencil_sharpener.jpg","response":"y","image":"img/pencil_sharpener.jpg","old_or_new":"old","task":"recognition","trial_type":"image-keyboard-response","trial_index":23,"time_elapsed":84841,"internal_node_id":"0.0-3.0-0.10","subject_id":"5c7fff551c40f30001b45b83","study_id":"606233c0e42b980319b6a18e","session_id":"6088346c57813a6349c61e58","correct":true},{"rt":679.1050000174437,"stimulus":"\n      <p>How sure are you?</p>\n      <p>Rate your confidence in your answer from 1 (pure guess) to 5 (very sure) by pressing the corresponding button.</p>\n     ","response":4,"image":"img/pencil_sharpener.jpg","task":"confidence","old_or_new":"old","trial_type":"html-button-response","trial_index":24,"time_elapsed":85523,"internal_node_id":"0.0-3.0-1.10","subject_id":"5c7fff551c40f30001b45b83","study_id":"606233c0e42b980319b6a18e","session_id":"6088346c57813a6349c61e58"},{"rt":1197.5750000274274,"stimulus":"img/watch_alternate.jpg","response":"n","image":"img/watch_alternate.jpg","old_or_new":"new","task":"recognition","trial_type":"image-keyboard-response","trial_index":25,"time_elapsed":87238,"internal_node_id":"0.0-3.0-0.11","subject_id":"5c7fff551c40f30001b45b83","study_id":"606233c0e42b980319b6a18e","session_id":"6088346c57813a6349c61e58","correct":true},{"rt":1082.219999982044,"stimulus":"\n      <p>How sure are you?</p>\n      <p>Rate your confidence in your answer from 1 (pure guess) to 5 (very sure) by pressing the corresponding button.</p>\n     ","response":2,"image":"img/watch_alternate.jpg","task":"confidence","old_or_new":"new","trial_type":"html-button-response","trial_index":26,"time_elapsed":88323,"internal_node_id":"0.0-3.0-1.11","subject_id":"5c7fff551c40f30001b45b83","study_id":"606233c0e42b980319b6a18e","session_id":"6088346c57813a6349c61e58"},{"rt":1611.5399999835063,"stimulus":"img/pizza_alternate.jpg","response":"n","image":"img/pizza_alternate.jpg","old_or_new":"new","task":"recognition","trial_type":"image-keyboard-response","trial_index":27,"time_elapsed":90444,"internal_node_id":"0.0-3.0-0.12","subject_id":"5c7fff551c40f30001b45b83","study_id":"606233c0e42b980319b6a18e","session_id":"6088346c57813a6349c61e58","correct":true},{"rt":837.1800000022631,"stimulus":"\n      <p>How sure are you?</p>\n      <p>Rate your confidence in your answer from 1 (pure guess) to 5 (very sure) by pressing the corresponding button.</p>\n     ","response":4,"image":"img/pizza_alternate.jpg","task":"confidence","old_or_new":"new","trial_type":"html-button-response","trial_index":28,"time_elapsed":91283,"internal_node_id":"0.0-3.0-1.12","subject_id":"5c7fff551c40f30001b45b83","study_id":"606233c0e42b980319b6a18e","session_id":"6088346c57813a6349c61e58"},{"rt":1140.3300000238232,"stimulus":"img/shirt_alternate.jpg","response":"y","image":"img/shirt_alternate.jpg","old_or_new":"new","task":"recognition","trial_type":"image-keyboard-response","trial_index":29,"time_elapsed":92936,"internal_node_id":"0.0-3.0-0.13","subject_id":"5c7fff551c40f30001b45b83","study_id":"606233c0e42b980319b6a18e","session_id":"6088346c57813a6349c61e58","correct":false},{"rt":2535.98499999498,"stimulus":"\n      <p>How sure are you?</p>\n      <p>Rate your confidence in your answer from 1 (pure guess) to 5 (very sure) by pressing the corresponding button.</p>\n     ","response":0,"image":"img/shirt_alternate.jpg","task":"confidence","old_or_new":"new","trial_type":"html-button-response","trial_index":30,"time_elapsed":95474,"internal_node_id":"0.0-3.0-1.13","subject_id":"5c7fff551c40f30001b45b83","study_id":"606233c0e42b980319b6a18e","session_id":"6088346c57813a6349c61e58"},{"rt":2769.444999983534,"stimulus":"img/plate.jpg","response":"y","image":"img/plate.jpg","old_or_new":"old","task":"recognition","trial_type":"image-keyboard-response","trial_index":31,"time_elapsed":98748,"internal_node_id":"0.0-3.0-0.14","subject_id":"5c7fff551c40f30001b45b83","study_id":"606233c0e42b980319b6a18e","session_id":"6088346c57813a6349c61e58","correct":true},{"rt":1107.8900000138674,"stimulus":"\n      <p>How sure are you?</p>\n      <p>Rate your confidence in your answer from 1 (pure guess) to 5 (very sure) by pressing the corresponding button.</p>\n     ","response":4,"image":"img/plate.jpg","task":"confidence","old_or_new":"old","trial_type":"html-button-response","trial_index":32,"time_elapsed":99859,"internal_node_id":"0.0-3.0-1.14","subject_id":"5c7fff551c40f30001b45b83","study_id":"606233c0e42b980319b6a18e","session_id":"6088346c57813a6349c61e58"},{"rt":913.7099999934435,"stimulus":"img/shoe_alternate.jpg","response":"n","image":"img/shoe_alternate.jpg","old_or_new":"new","task":"recognition","trial_type":"image-keyboard-response","trial_index":33,"time_elapsed":101281,"internal_node_id":"0.0-3.0-0.15","subject_id":"5c7fff551c40f30001b45b83","study_id":"606233c0e42b980319b6a18e","session_id":"6088346c57813a6349c61e58","correct":true},{"rt":799.8849999858066,"stimulus":"\n      <p>How sure are you?</p>\n      <p>Rate your confidence in your answer from 1 (pure guess) to 5 (very sure) by pressing the corresponding button.</p>\n     ","response":4,"image":"img/shoe_alternate.jpg","task":"confidence","old_or_new":"new","trial_type":"html-button-response","trial_index":34,"time_elapsed":102083,"internal_node_id":"0.0-3.0-1.15","subject_id":"5c7fff551c40f30001b45b83","study_id":"606233c0e42b980319b6a18e","session_id":"6088346c57813a6349c61e58"},{"rt":1162.224999978207,"stimulus":"img/trophy.jpg","response":"y","image":"img/trophy.jpg","old_or_new":"old","task":"recognition","trial_type":"image-keyboard-response","trial_index":35,"time_elapsed":103758,"internal_node_id":"0.0-3.0-0.16","subject_id":"5c7fff551c40f30001b45b83","study_id":"606233c0e42b980319b6a18e","session_id":"6088346c57813a6349c61e58","correct":true},{"rt":570.3950000170153,"stimulus":"\n      <p>How sure are you?</p>\n      <p>Rate your confidence in your answer from 1 (pure guess) to 5 (very sure) by pressing the corresponding button.</p>\n     ","response":3,"image":"img/trophy.jpg","task":"confidence","old_or_new":"old","trial_type":"html-button-response","trial_index":36,"time_elapsed":104330,"internal_node_id":"0.0-3.0-1.16","subject_id":"5c7fff551c40f30001b45b83","study_id":"606233c0e42b980319b6a18e","session_id":"6088346c57813a6349c61e58"},{"rt":1306.3299999921583,"stimulus":"img/seashell_alternate.jpg","response":"n","image":"img/seashell_alternate.jpg","old_or_new":"new","task":"recognition","trial_type":"image-keyboard-response","trial_index":37,"time_elapsed":106154,"internal_node_id":"0.0-3.0-0.17","subject_id":"5c7fff551c40f30001b45b83","study_id":"606233c0e42b980319b6a18e","session_id":"6088346c57813a6349c61e58","correct":true},{"rt":2310.0149999954738,"stimulus":"\n      <p>How sure are you?</p>\n      <p>Rate your confidence in your answer from 1 (pure guess) to 5 (very sure) by pressing the corresponding button.</p>\n     ","response":4,"image":"img/seashell_alternate.jpg","task":"confidence","old_or_new":"new","trial_type":"html-button-response","trial_index":38,"time_elapsed":108466,"internal_node_id":"0.0-3.0-1.17","subject_id":"5c7fff551c40f30001b45b83","study_id":"606233c0e42b980319b6a18e","session_id":"6088346c57813a6349c61e58"},{"rt":1881.6200000001118,"stimulus":"img/plane.jpg","response":"y","image":"img/plane.jpg","old_or_new":"old","task":"recognition","trial_type":"image-keyboard-response","trial_index":39,"time_elapsed":110863,"internal_node_id":"0.0-3.0-0.18","subject_id":"5c7fff551c40f30001b45b83","study_id":"606233c0e42b980319b6a18e","session_id":"6088346c57813a6349c61e58","correct":true},{"rt":600.670000014361,"stimulus":"\n      <p>How sure are you?</p>\n      <p>Rate your confidence in your answer from 1 (pure guess) to 5 (very sure) by pressing the corresponding button.</p>\n     ","response":3,"image":"img/plane.jpg","task":"confidence","old_or_new":"old","trial_type":"html-button-response","trial_index":40,"time_elapsed":111466,"internal_node_id":"0.0-3.0-1.18","subject_id":"5c7fff551c40f30001b45b83","study_id":"606233c0e42b980319b6a18e","session_id":"6088346c57813a6349c61e58"},{"rt":3510.7049999933224,"stimulus":"img/shoe.jpg","response":"y","image":"img/shoe.jpg","old_or_new":"old","task":"recognition","trial_type":"image-keyboard-response","trial_index":41,"time_elapsed":115487,"internal_node_id":"0.0-3.0-0.19","subject_id":"5c7fff551c40f30001b45b83","study_id":"606233c0e42b980319b6a18e","session_id":"6088346c57813a6349c61e58","correct":true},{"rt":1200.8749999804422,"stimulus":"\n      <p>How sure are you?</p>\n      <p>Rate your confidence in your answer from 1 (pure guess) to 5 (very sure) by pressing the corresponding button.</p>\n     ","response":2,"image":"img/shoe.jpg","task":"confidence","old_or_new":"old","trial_type":"html-button-response","trial_index":42,"time_elapsed":116690,"internal_node_id":"0.0-3.0-1.19","subject_id":"5c7fff551c40f30001b45b83","study_id":"606233c0e42b980319b6a18e","session_id":"6088346c57813a6349c61e58"},{"rt":853.2049999921583,"stimulus":"img/scissors.jpg","response":"y","image":"img/scissors.jpg","old_or_new":"old","task":"recognition","trial_type":"image-keyboard-response","trial_index":43,"time_elapsed":118049,"internal_node_id":"0.0-3.0-0.20","subject_id":"5c7fff551c40f30001b45b83","study_id":"606233c0e42b980319b6a18e","session_id":"6088346c57813a6349c61e58","correct":true},{"rt":703.4399999829475,"stimulus":"\n      <p>How sure are you?</p>\n      <p>Rate your confidence in your answer from 1 (pure guess) to 5 (very sure) by pressing the corresponding button.</p>\n     ","response":3,"image":"img/scissors.jpg","task":"confidence","old_or_new":"old","trial_type":"html-button-response","trial_index":44,"time_elapsed":118755,"internal_node_id":"0.0-3.0-1.20","subject_id":"5c7fff551c40f30001b45b83","study_id":"606233c0e42b980319b6a18e","session_id":"6088346c57813a6349c61e58"},{"rt":1145.2549999812618,"stimulus":"img/shovel.jpg","response":"y","image":"img/shovel.jpg","old_or_new":"old","task":"recognition","trial_type":"image-keyboard-response","trial_index":45,"time_elapsed":120411,"internal_node_id":"0.0-3.0-0.21","subject_id":"5c7fff551c40f30001b45b83","study_id":"606233c0e42b980319b6a18e","session_id":"6088346c57813a6349c61e58","correct":true},{"rt":1181.2349999963772,"stimulus":"\n      <p>How sure are you?</p>\n      <p>Rate your confidence in your answer from 1 (pure guess) to 5 (very sure) by pressing the corresponding button.</p>\n     ","response":4,"image":"img/shovel.jpg","task":"confidence","old_or_new":"old","trial_type":"html-button-response","trial_index":46,"time_elapsed":121594,"internal_node_id":"0.0-3.0-1.21","subject_id":"5c7fff551c40f30001b45b83","study_id":"606233c0e42b980319b6a18e","session_id":"6088346c57813a6349c61e58"},{"rt":1043.5799999977462,"stimulus":"img/rolling_pin_alternate.jpg","response":"n","image":"img/rolling_pin_alternate.jpg","old_or_new":"new","task":"recognition","trial_type":"image-keyboard-response","trial_index":47,"time_elapsed":123148,"internal_node_id":"0.0-3.0-0.22","subject_id":"5c7fff551c40f30001b45b83","study_id":"606233c0e42b980319b6a18e","session_id":"6088346c57813a6349c61e58","correct":true},{"rt":684.3600000138395,"stimulus":"\n      <p>How sure are you?</p>\n      <p>Rate your confidence in your answer from 1 (pure guess) to 5 (very sure) by pressing the corresponding button.</p>\n     ","response":4,"image":"img/rolling_pin_alternate.jpg","task":"confidence","old_or_new":"new","trial_type":"html-button-response","trial_index":48,"time_elapsed":123835,"internal_node_id":"0.0-3.0-1.22","subject_id":"5c7fff551c40f30001b45b83","study_id":"606233c0e42b980319b6a18e","session_id":"6088346c57813a6349c61e58"},{"rt":1199.9850000138395,"stimulus":"img/knife.jpg","response":"y","image":"img/knife.jpg","old_or_new":"old","task":"recognition","trial_type":"image-keyboard-response","trial_index":49,"time_elapsed":125578,"internal_node_id":"0.0-3.0-0.23","subject_id":"5c7fff551c40f30001b45b83","study_id":"606233c0e42b980319b6a18e","session_id":"6088346c57813a6349c61e58","correct":true},{"rt":605.5599999963306,"stimulus":"\n      <p>How sure are you?</p>\n      <p>Rate your confidence in your answer from 1 (pure guess) to 5 (very sure) by pressing the corresponding button.</p>\n     ","response":3,"image":"img/knife.jpg","task":"confidence","old_or_new":"old","trial_type":"html-button-response","trial_index":50,"time_elapsed":126186,"internal_node_id":"0.0-3.0-1.23","subject_id":"5c7fff551c40f30001b45b83","study_id":"606233c0e42b980319b6a18e","session_id":"6088346c57813a6349c61e58"},{"rt":2134.619999997085,"stimulus":"img/umbrella_alternate.jpg","response":"n","image":"img/umbrella_alternate.jpg","old_or_new":"new","task":"recognition","trial_type":"image-keyboard-response","trial_index":51,"time_elapsed":128825,"internal_node_id":"0.0-3.0-0.24","subject_id":"5c7fff551c40f30001b45b83","study_id":"606233c0e42b980319b6a18e","session_id":"6088346c57813a6349c61e58","correct":true},{"rt":687.0449999987613,"stimulus":"\n      <p>How sure are you?</p>\n      <p>Rate your confidence in your answer from 1 (pure guess) to 5 (very sure) by pressing the corresponding button.</p>\n     ","response":2,"image":"img/umbrella_alternate.jpg","task":"confidence","old_or_new":"new","trial_type":"html-button-response","trial_index":52,"time_elapsed":129515,"internal_node_id":"0.0-3.0-1.24","subject_id":"5c7fff551c40f30001b45b83","study_id":"606233c0e42b980319b6a18e","session_id":"6088346c57813a6349c61e58"},{"rt":1297.4199999880511,"stimulus":"img/toothbrush_alternate.jpg","response":"n","image":"img/toothbrush_alternate.jpg","old_or_new":"new","task":"recognition","trial_type":"image-keyboard-response","trial_index":53,"time_elapsed":131326,"internal_node_id":"0.0-3.0-0.25","subject_id":"5c7fff551c40f30001b45b83","study_id":"606233c0e42b980319b6a18e","session_id":"6088346c57813a6349c61e58","correct":true},{"rt":2233.815000014147,"stimulus":"\n      <p>How sure are you?</p>\n      <p>Rate your confidence in your answer from 1 (pure guess) to 5 (very sure) by pressing the corresponding button.</p>\n     ","response":3,"image":"img/toothbrush_alternate.jpg","task":"confidence","old_or_new":"new","trial_type":"html-button-response","trial_index":54,"time_elapsed":133562,"internal_node_id":"0.0-3.0-1.25","subject_id":"5c7fff551c40f30001b45b83","study_id":"606233c0e42b980319b6a18e","session_id":"6088346c57813a6349c61e58"},{"rt":758.6400000145659,"stimulus":"img/umbrella.jpg","response":"y","image":"img/umbrella.jpg","old_or_new":"old","task":"recognition","trial_type":"image-keyboard-response","trial_index":55,"time_elapsed":134827,"internal_node_id":"0.0-3.0-0.26","subject_id":"5c7fff551c40f30001b45b83","study_id":"606233c0e42b980319b6a18e","session_id":"6088346c57813a6349c61e58","correct":true},{"rt":557.4049999995623,"stimulus":"\n      <p>How sure are you?</p>\n      <p>Rate your confidence in your answer from 1 (pure guess) to 5 (very sure) by pressing the corresponding button.</p>\n     ","response":4,"image":"img/umbrella.jpg","task":"confidence","old_or_new":"old","trial_type":"html-button-response","trial_index":56,"time_elapsed":135387,"internal_node_id":"0.0-3.0-1.26","subject_id":"5c7fff551c40f30001b45b83","study_id":"606233c0e42b980319b6a18e","session_id":"6088346c57813a6349c61e58"},{"rt":1559.9700000020675,"stimulus":"img/knife_alternate.jpg","response":"n","image":"img/knife_alternate.jpg","old_or_new":"new","task":"recognition","trial_type":"image-keyboard-response","trial_index":57,"time_elapsed":137456,"internal_node_id":"0.0-3.0-0.27","subject_id":"5c7fff551c40f30001b45b83","study_id":"606233c0e42b980319b6a18e","session_id":"6088346c57813a6349c61e58","correct":true},{"rt":935.7799999997951,"stimulus":"\n      <p>How sure are you?</p>\n      <p>Rate your confidence in your answer from 1 (pure guess) to 5 (very sure) by pressing the corresponding button.</p>\n     ","response":4,"image":"img/knife_alternate.jpg","task":"confidence","old_or_new":"new","trial_type":"html-button-response","trial_index":58,"time_elapsed":138394,"internal_node_id":"0.0-3.0-1.27","subject_id":"5c7fff551c40f30001b45b83","study_id":"606233c0e42b980319b6a18e","session_id":"6088346c57813a6349c61e58"},{"rt":7945.449999999255,"stimulus":"img/watch.jpg","response":"n","image":"img/watch.jpg","old_or_new":"old","task":"recognition","trial_type":"image-keyboard-response","trial_index":59,"time_elapsed":146849,"internal_node_id":"0.0-3.0-0.28","subject_id":"5c7fff551c40f30001b45b83","study_id":"606233c0e42b980319b6a18e","session_id":"6088346c57813a6349c61e58","correct":false},{"rt":821.9149999786168,"stimulus":"\n      <p>How sure are you?</p>\n      <p>Rate your confidence in your answer from 1 (pure guess) to 5 (very sure) by pressing the corresponding button.</p>\n     ","response":2,"image":"img/watch.jpg","task":"confidence","old_or_new":"old","trial_type":"html-button-response","trial_index":60,"time_elapsed":147674,"internal_node_id":"0.0-3.0-1.28","subject_id":"5c7fff551c40f30001b45b83","study_id":"606233c0e42b980319b6a18e","session_id":"6088346c57813a6349c61e58"},{"rt":1179.4799999915995,"stimulus":"img/sink.jpg","response":"y","image":"img/sink.jpg","old_or_new":"old","task":"recognition","trial_type":"image-keyboard-response","trial_index":61,"time_elapsed":149359,"internal_node_id":"0.0-3.0-0.29","subject_id":"5c7fff551c40f30001b45b83","study_id":"606233c0e42b980319b6a18e","session_id":"6088346c57813a6349c61e58","correct":true},{"rt":584.7849999845494,"stimulus":"\n      <p>How sure are you?</p>\n      <p>Rate your confidence in your answer from 1 (pure guess) to 5 (very sure) by pressing the corresponding button.</p>\n     ","response":3,"image":"img/sink.jpg","task":"confidence","old_or_new":"old","trial_type":"html-button-response","trial_index":62,"time_elapsed":149946,"internal_node_id":"0.0-3.0-1.29","subject_id":"5c7fff551c40f30001b45b83","study_id":"606233c0e42b980319b6a18e","session_id":"6088346c57813a6349c61e58"},{"rt":1053.730000014184,"stimulus":"img/skates_alternate.jpg","response":"n","image":"img/skates_alternate.jpg","old_or_new":"new","task":"recognition","trial_type":"image-keyboard-response","trial_index":63,"time_elapsed":151510,"internal_node_id":"0.0-3.0-0.30","subject_id":"5c7fff551c40f30001b45b83","study_id":"606233c0e42b980319b6a18e","session_id":"6088346c57813a6349c61e58","correct":true},{"rt":1435.6049999769311,"stimulus":"\n      <p>How sure are you?</p>\n      <p>Rate your confidence in your answer from 1 (pure guess) to 5 (very sure) by pressing the corresponding button.</p>\n     ","response":4,"image":"img/skates_alternate.jpg","task":"confidence","old_or_new":"new","trial_type":"html-button-response","trial_index":64,"time_elapsed":152947,"internal_node_id":"0.0-3.0-1.30","subject_id":"5c7fff551c40f30001b45b83","study_id":"606233c0e42b980319b6a18e","session_id":"6088346c57813a6349c61e58"},{"rt":809.16000000434,"stimulus":"img/seashell.jpg","response":"y","image":"img/seashell.jpg","old_or_new":"old","task":"recognition","trial_type":"image-keyboard-response","trial_index":65,"time_elapsed":154260,"internal_node_id":"0.0-3.0-0.31","subject_id":"5c7fff551c40f30001b45b83","study_id":"606233c0e42b980319b6a18e","session_id":"6088346c57813a6349c61e58","correct":true},{"rt":531.6800000146031,"stimulus":"\n      <p>How sure are you?</p>\n      <p>Rate your confidence in your answer from 1 (pure guess) to 5 (very sure) by pressing the corresponding button.</p>\n     ","response":4,"image":"img/seashell.jpg","task":"confidence","old_or_new":"old","trial_type":"html-button-response","trial_index":66,"time_elapsed":154794,"internal_node_id":"0.0-3.0-1.31","subject_id":"5c7fff551c40f30001b45b83","study_id":"606233c0e42b980319b6a18e","session_id":"6088346c57813a6349c61e58"},{"rt":965.5949999869335,"stimulus":"img/sink_alternate.jpg","response":"n","image":"img/sink_alternate.jpg","old_or_new":"new","task":"recognition","trial_type":"image-keyboard-response","trial_index":67,"time_elapsed":156266,"internal_node_id":"0.0-3.0-0.32","subject_id":"5c7fff551c40f30001b45b83","study_id":"606233c0e42b980319b6a18e","session_id":"6088346c57813a6349c61e58","correct":true},{"rt":806.3050000055227,"stimulus":"\n      <p>How sure are you?</p>\n      <p>Rate your confidence in your answer from 1 (pure guess) to 5 (very sure) by pressing the corresponding button.</p>\n     ","response":4,"image":"img/sink_alternate.jpg","task":"confidence","old_or_new":"new","trial_type":"html-button-response","trial_index":68,"time_elapsed":157074,"internal_node_id":"0.0-3.0-1.32","subject_id":"5c7fff551c40f30001b45b83","study_id":"606233c0e42b980319b6a18e","session_id":"6088346c57813a6349c61e58"},{"rt":1405.8850000146776,"stimulus":"img/pencil_sharpener_alternate.jpg","response":"n","image":"img/pencil_sharpener_alternate.jpg","old_or_new":"new","task":"recognition","trial_type":"image-keyboard-response","trial_index":69,"time_elapsed":158994,"internal_node_id":"0.0-3.0-0.33","subject_id":"5c7fff551c40f30001b45b83","study_id":"606233c0e42b980319b6a18e","session_id":"6088346c57813a6349c61e58","correct":true},{"rt":541.9399999955203,"stimulus":"\n      <p>How sure are you?</p>\n      <p>Rate your confidence in your answer from 1 (pure guess) to 5 (very sure) by pressing the corresponding button.</p>\n     ","response":4,"image":"img/pencil_sharpener_alternate.jpg","task":"confidence","old_or_new":"new","trial_type":"html-button-response","trial_index":70,"time_elapsed":159538,"internal_node_id":"0.0-3.0-1.33","subject_id":"5c7fff551c40f30001b45b83","study_id":"606233c0e42b980319b6a18e","session_id":"6088346c57813a6349c61e58"},{"rt":1301.4149999944493,"stimulus":"img/scissors_alternate.jpg","response":"n","image":"img/scissors_alternate.jpg","old_or_new":"new","task":"recognition","trial_type":"image-keyboard-response","trial_index":71,"time_elapsed":161343,"internal_node_id":"0.0-3.0-0.34","subject_id":"5c7fff551c40f30001b45b83","study_id":"606233c0e42b980319b6a18e","session_id":"6088346c57813a6349c61e58","correct":true},{"rt":609.0649999969173,"stimulus":"\n      <p>How sure are you?</p>\n      <p>Rate your confidence in your answer from 1 (pure guess) to 5 (very sure) by pressing the corresponding button.</p>\n     ","response":4,"image":"img/scissors_alternate.jpg","task":"confidence","old_or_new":"new","trial_type":"html-button-response","trial_index":72,"time_elapsed":161954,"internal_node_id":"0.0-3.0-1.34","subject_id":"5c7fff551c40f30001b45b83","study_id":"606233c0e42b980319b6a18e","session_id":"6088346c57813a6349c61e58"},{"rt":907.3550000030082,"stimulus":"img/plate_alternate.jpg","response":"n","image":"img/plate_alternate.jpg","old_or_new":"new","task":"recognition","trial_type":"image-keyboard-response","trial_index":73,"time_elapsed":163368,"internal_node_id":"0.0-3.0-0.35","subject_id":"5c7fff551c40f30001b45b83","study_id":"606233c0e42b980319b6a18e","session_id":"6088346c57813a6349c61e58","correct":true},{"rt":455.22999999229796,"stimulus":"\n      <p>How sure are you?</p>\n      <p>Rate your confidence in your answer from 1 (pure guess) to 5 (very sure) by pressing the corresponding button.</p>\n     ","response":4,"image":"img/plate_alternate.jpg","task":"confidence","old_or_new":"new","trial_type":"html-button-response","trial_index":74,"time_elapsed":163826,"internal_node_id":"0.0-3.0-1.35","subject_id":"5c7fff551c40f30001b45b83","study_id":"606233c0e42b980319b6a18e","session_id":"6088346c57813a6349c61e58"},{"rt":1373.4150000091176,"stimulus":"img/trophy_alternate.jpg","response":"n","image":"img/trophy_alternate.jpg","old_or_new":"new","task":"recognition","trial_type":"image-keyboard-response","trial_index":75,"time_elapsed":165717,"internal_node_id":"0.0-3.0-0.36","subject_id":"5c7fff551c40f30001b45b83","study_id":"606233c0e42b980319b6a18e","session_id":"6088346c57813a6349c61e58","correct":true},{"rt":546.4300000166986,"stimulus":"\n      <p>How sure are you?</p>\n      <p>Rate your confidence in your answer from 1 (pure guess) to 5 (very sure) by pressing the corresponding button.</p>\n     ","response":4,"image":"img/trophy_alternate.jpg","task":"confidence","old_or_new":"new","trial_type":"html-button-response","trial_index":76,"time_elapsed":166266,"internal_node_id":"0.0-3.0-1.36","subject_id":"5c7fff551c40f30001b45b83","study_id":"606233c0e42b980319b6a18e","session_id":"6088346c57813a6349c61e58"},{"rt":1393.6199999880046,"stimulus":"img/toothbrush.jpg","response":"y","image":"img/toothbrush.jpg","old_or_new":"old","task":"recognition","trial_type":"image-keyboard-response","trial_index":77,"time_elapsed":168175,"internal_node_id":"0.0-3.0-0.37","subject_id":"5c7fff551c40f30001b45b83","study_id":"606233c0e42b980319b6a18e","session_id":"6088346c57813a6349c61e58","correct":true},{"rt":560.605000006035,"stimulus":"\n      <p>How sure are you?</p>\n      <p>Rate your confidence in your answer from 1 (pure guess) to 5 (very sure) by pressing the corresponding button.</p>\n     ","response":3,"image":"img/toothbrush.jpg","task":"confidence","old_or_new":"old","trial_type":"html-button-response","trial_index":78,"time_elapsed":168738,"internal_node_id":"0.0-3.0-1.37","subject_id":"5c7fff551c40f30001b45b83","study_id":"606233c0e42b980319b6a18e","session_id":"6088346c57813a6349c61e58"},{"rt":2082.9049999883864,"stimulus":"img/tv.jpg","response":"y","image":"img/tv.jpg","old_or_new":"old","task":"recognition","trial_type":"image-keyboard-response","trial_index":79,"time_elapsed":171331,"internal_node_id":"0.0-3.0-0.38","subject_id":"5c7fff551c40f30001b45b83","study_id":"606233c0e42b980319b6a18e","session_id":"6088346c57813a6349c61e58","correct":true},{"rt":676.789999997709,"stimulus":"\n      <p>How sure are you?</p>\n      <p>Rate your confidence in your answer from 1 (pure guess) to 5 (very sure) by pressing the corresponding button.</p>\n     ","response":3,"image":"img/tv.jpg","task":"confidence","old_or_new":"old","trial_type":"html-button-response","trial_index":80,"time_elapsed":172010,"internal_node_id":"0.0-3.0-1.38","subject_id":"5c7fff551c40f30001b45b83","study_id":"606233c0e42b980319b6a18e","session_id":"6088346c57813a6349c61e58"},{"rt":1348.4149999858346,"stimulus":"img/spoon_alternate.jpg","response":"n","image":"img/spoon_alternate.jpg","old_or_new":"new","task":"recognition","trial_type":"image-keyboard-response","trial_index":81,"time_elapsed":173870,"internal_node_id":"0.0-3.0-0.39","subject_id":"5c7fff551c40f30001b45b83","study_id":"606233c0e42b980319b6a18e","session_id":"6088346c57813a6349c61e58","correct":true},{"rt":737.859999993816,"stimulus":"\n      <p>How sure are you?</p>\n      <p>Rate your confidence in your answer from 1 (pure guess) to 5 (very sure) by pressing the corresponding button.</p>\n     ","response":4,"image":"img/spoon_alternate.jpg","task":"confidence","old_or_new":"new","trial_type":"html-button-response","trial_index":82,"time_elapsed":174610,"internal_node_id":"0.0-3.0-1.39","subject_id":"5c7fff551c40f30001b45b83","study_id":"606233c0e42b980319b6a18e","session_id":"6088346c57813a6349c61e58"},{"rt":1056.7250000021886,"stimulus":"img/pizza.jpg","response":"y","image":"img/pizza.jpg","old_or_new":"old","task":"recognition","trial_type":"image-keyboard-response","trial_index":83,"time_elapsed":176172,"internal_node_id":"0.0-3.0-0.40","subject_id":"5c7fff551c40f30001b45b83","study_id":"606233c0e42b980319b6a18e","session_id":"6088346c57813a6349c61e58","correct":true},{"rt":507.2350000264123,"stimulus":"\n      <p>How sure are you?</p>\n      <p>Rate your confidence in your answer from 1 (pure guess) to 5 (very sure) by pressing the corresponding button.</p>\n     ","response":4,"image":"img/pizza.jpg","task":"confidence","old_or_new":"old","trial_type":"html-button-response","trial_index":84,"time_elapsed":176682,"internal_node_id":"0.0-3.0-1.40","subject_id":"5c7fff551c40f30001b45b83","study_id":"606233c0e42b980319b6a18e","session_id":"6088346c57813a6349c61e58"},{"rt":1079.3899999989662,"stimulus":"img/tv_alternate.jpg","response":"n","image":"img/tv_alternate.jpg","old_or_new":"new","task":"recognition","trial_type":"image-keyboard-response","trial_index":85,"time_elapsed":178271,"internal_node_id":"0.0-3.0-0.41","subject_id":"5c7fff551c40f30001b45b83","study_id":"606233c0e42b980319b6a18e","session_id":"6088346c57813a6349c61e58","correct":true},{"rt":728.4500000241678,"stimulus":"\n      <p>How sure are you?</p>\n      <p>Rate your confidence in your answer from 1 (pure guess) to 5 (very sure) by pressing the corresponding button.</p>\n     ","response":4,"image":"img/tv_alternate.jpg","task":"confidence","old_or_new":"new","trial_type":"html-button-response","trial_index":86,"time_elapsed":179002,"internal_node_id":"0.0-3.0-1.41","subject_id":"5c7fff551c40f30001b45b83","study_id":"606233c0e42b980319b6a18e","session_id":"6088346c57813a6349c61e58"},{"rt":2905.995000008261,"stimulus":"img/shirt.jpg","response":"y","image":"img/shirt.jpg","old_or_new":"old","task":"recognition","trial_type":"image-keyboard-response","trial_index":87,"time_elapsed":182419,"internal_node_id":"0.0-3.0-0.42","subject_id":"5c7fff551c40f30001b45b83","study_id":"606233c0e42b980319b6a18e","session_id":"6088346c57813a6349c61e58","correct":true},{"rt":635.1750000030734,"stimulus":"\n      <p>How sure are you?</p>\n      <p>Rate your confidence in your answer from 1 (pure guess) to 5 (very sure) by pressing the corresponding button.</p>\n     ","response":3,"image":"img/shirt.jpg","task":"confidence","old_or_new":"old","trial_type":"html-button-response","trial_index":88,"time_elapsed":183058,"internal_node_id":"0.0-3.0-1.42","subject_id":"5c7fff551c40f30001b45b83","study_id":"606233c0e42b980319b6a18e","session_id":"6088346c57813a6349c61e58"},{"rt":1091.0100000037346,"stimulus":"img/spoon.jpg","response":"y","image":"img/spoon.jpg","old_or_new":"old","task":"recognition","trial_type":"image-keyboard-response","trial_index":89,"time_elapsed":184652,"internal_node_id":"0.0-3.0-0.43","subject_id":"5c7fff551c40f30001b45b83","study_id":"606233c0e42b980319b6a18e","session_id":"6088346c57813a6349c61e58","correct":true},{"rt":787.0899999979883,"stimulus":"\n      <p>How sure are you?</p>\n      <p>Rate your confidence in your answer from 1 (pure guess) to 5 (very sure) by pressing the corresponding button.</p>\n     ","response":4,"image":"img/spoon.jpg","task":"confidence","old_or_new":"old","trial_type":"html-button-response","trial_index":90,"time_elapsed":185442,"internal_node_id":"0.0-3.0-1.43","subject_id":"5c7fff551c40f30001b45b83","study_id":"606233c0e42b980319b6a18e","session_id":"6088346c57813a6349c61e58"},{"rt":6381.250000005821,"stimulus":"img/power_cord_alternate.jpg","response":"y","image":"img/power_cord_alternate.jpg","old_or_new":"new","task":"recognition","trial_type":"image-keyboard-response","trial_index":91,"time_elapsed":192332,"internal_node_id":"0.0-3.0-0.44","subject_id":"5c7fff551c40f30001b45b83","study_id":"606233c0e42b980319b6a18e","session_id":"6088346c57813a6349c61e58","correct":false},{"rt":858.0350000120234,"stimulus":"\n      <p>How sure are you?</p>\n      <p>Rate your confidence in your answer from 1 (pure guess) to 5 (very sure) by pressing the corresponding button.</p>\n     ","response":2,"image":"img/power_cord_alternate.jpg","task":"confidence","old_or_new":"new","trial_type":"html-button-response","trial_index":92,"time_elapsed":193194,"internal_node_id":"0.0-3.0-1.44","subject_id":"5c7fff551c40f30001b45b83","study_id":"606233c0e42b980319b6a18e","session_id":"6088346c57813a6349c61e58"},{"rt":1211.6150000074413,"stimulus":"img/toaster.jpg","response":"y","image":"img/toaster.jpg","old_or_new":"old","task":"recognition","trial_type":"image-keyboard-response","trial_index":93,"time_elapsed":194909,"internal_node_id":"0.0-3.0-0.45","subject_id":"5c7fff551c40f30001b45b83","study_id":"606233c0e42b980319b6a18e","session_id":"6088346c57813a6349c61e58","correct":true},{"rt":578.4700000076555,"stimulus":"\n      <p>How sure are you?</p>\n      <p>Rate your confidence in your answer from 1 (pure guess) to 5 (very sure) by pressing the corresponding button.</p>\n     ","response":4,"image":"img/toaster.jpg","task":"confidence","old_or_new":"old","trial_type":"html-button-response","trial_index":94,"time_elapsed":195490,"internal_node_id":"0.0-3.0-1.45","subject_id":"5c7fff551c40f30001b45b83","study_id":"606233c0e42b980319b6a18e","session_id":"6088346c57813a6349c61e58"},{"rt":2707.415000011679,"stimulus":"img/wheel_barrow_alternate.jpg","response":"n","image":"img/wheel_barrow_alternate.jpg","old_or_new":"new","task":"recognition","trial_type":"image-keyboard-response","trial_index":95,"time_elapsed":198715,"internal_node_id":"0.0-3.0-0.46","subject_id":"5c7fff551c40f30001b45b83","study_id":"606233c0e42b980319b6a18e","session_id":"6088346c57813a6349c61e58","correct":true},{"rt":635.6949999753851,"stimulus":"\n      <p>How sure are you?</p>\n      <p>Rate your confidence in your answer from 1 (pure guess) to 5 (very sure) by pressing the corresponding button.</p>\n     ","response":3,"image":"img/wheel_barrow_alternate.jpg","task":"confidence","old_or_new":"new","trial_type":"html-button-response","trial_index":96,"time_elapsed":199354,"internal_node_id":"0.0-3.0-1.46","subject_id":"5c7fff551c40f30001b45b83","study_id":"606233c0e42b980319b6a18e","session_id":"6088346c57813a6349c61e58"},{"rt":1009.4999999855645,"stimulus":"img/power_cord.jpg","response":"y","image":"img/power_cord.jpg","old_or_new":"old","task":"recognition","trial_type":"image-keyboard-response","trial_index":97,"time_elapsed":200870,"internal_node_id":"0.0-3.0-0.47","subject_id":"5c7fff551c40f30001b45b83","study_id":"606233c0e42b980319b6a18e","session_id":"6088346c57813a6349c61e58","correct":true},{"rt":553.1349999946542,"stimulus":"\n      <p>How sure are you?</p>\n      <p>Rate your confidence in your answer from 1 (pure guess) to 5 (very sure) by pressing the corresponding button.</p>\n     ","response":4,"image":"img/power_cord.jpg","task":"confidence","old_or_new":"old","trial_type":"html-button-response","trial_index":98,"time_elapsed":201426,"internal_node_id":"0.0-3.0-1.47","subject_id":"5c7fff551c40f30001b45b83","study_id":"606233c0e42b980319b6a18e","session_id":"6088346c57813a6349c61e58"}]