[{"success":true,"timeout":false,"failed_images":[],"failed_audio":[],"failed_video":[],"trial_type":"preload","trial_index":0,"time_elapsed":3879,"internal_node_id":"0.0-0.0","subject_id":"5fadb808fad6ff17f4be06dc","study_id":"606233c0e42b980319b6a18e","session_id":"608838f582765c79d3da7406"},{"rt":25286.554999649525,"stimulus":"\n      <div style=\"width:800px; text-align: left;\">\n        <p>Welcome to day 2 of the experiment! Thanks for coming back.</p>\n        <p>You will be presented with a series of images. Images will appear one at a time.</p>\n        <p>Each image will remain on the screen until you press either <span style=\"font-weight: bold;\">\"y\" to indicate you have seen the \n        exact same photo the day before or \"n\" to indicate you have not seen the exact same photo the day before.</span></p>\n        <p>After you answer yes (\"y\") or no (\"n\"), you will then be prompted to rate your certainty on a scale of\n        1 (pure guess) to 5 (very sure).</p>\n      </div>\n    ","response":0,"trial_type":"html-button-response","trial_index":1,"time_elapsed":29167,"internal_node_id":"0.0-1.0","subject_id":"5fadb808fad6ff17f4be06dc","study_id":"606233c0e42b980319b6a18e","session_id":"608838f582765c79d3da7406"},{"success":true,"trial_type":"fullscreen","trial_index":2,"time_elapsed":36117,"internal_node_id":"0.0-2.0","subject_id":"5fadb808fad6ff17f4be06dc","study_id":"606233c0e42b980319b6a18e","session_id":"608838f582765c79d3da7406"},{"rt":6027.31000026688,"stimulus":"img/umbrella_alternate.jpg","response":"n","image":"img/umbrella_alternate.jpg","old_or_new":"new","task":"recognition","trial_type":"image-keyboard-response","trial_index":3,"time_elapsed":42148,"internal_node_id":"0.0-3.0-0.0","subject_id":"5fadb808fad6ff17f4be06dc","study_id":"606233c0e42b980319b6a18e","session_id":"608838f582765c79d3da7406","correct":true},{"rt":3472.6499998942018,"stimulus":"\n      <p>How sure are you?</p>\n      <p>Rate your confidence in your answer from 1 (pure guess) to 5 (very sure) by pressing the corresponding button.</p>\n     ","response":3,"image":"img/umbrella_alternate.jpg","task":"confidence","old_or_new":"new","trial_type":"html-button-response","trial_index":4,"time_elapsed":45624,"internal_node_id":"0.0-3.0-1.0","subject_id":"5fadb808fad6ff17f4be06dc","study_id":"606233c0e42b980319b6a18e","session_id":"608838f582765c79d3da7406"},{"rt":1813.1750002503395,"stimulus":"img/shirt_alternate.jpg","response":"n","image":"img/shirt_alternate.jpg","old_or_new":"new","task":"recognition","trial_type":"image-keyboard-response","trial_index":5,"time_elapsed":47940,"internal_node_id":"0.0-3.0-0.1","subject_id":"5fadb808fad6ff17f4be06dc","study_id":"606233c0e42b980319b6a18e","session_id":"608838f582765c79d3da7406","correct":true},{"rt":2202.4600002914667,"stimulus":"\n      <p>How sure are you?</p>\n      <p>Rate your confidence in your answer from 1 (pure guess) to 5 (very sure) by pressing the corresponding button.</p>\n     ","response":4,"image":"img/shirt_alternate.jpg","task":"confidence","old_or_new":"new","trial_type":"html-button-response","trial_index":6,"time_elapsed":50144,"internal_node_id":"0.0-3.0-1.1","subject_id":"5fadb808fad6ff17f4be06dc","study_id":"606233c0e42b980319b6a18e","session_id":"608838f582765c79d3da7406"},{"rt":2245.779999997467,"stimulus":"img/knife.jpg","response":"y","image":"img/knife.jpg","old_or_new":"old","task":"recognition","trial_type":"image-keyboard-response","trial_index":7,"time_elapsed":52892,"internal_node_id":"0.0-3.0-0.2","subject_id":"5fadb808fad6ff17f4be06dc","study_id":"606233c0e42b980319b6a18e","session_id":"608838f582765c79d3da7406","correct":true},{"rt":1824.955000076443,"stimulus":"\n      <p>How sure are you?</p>\n      <p>Rate your confidence in your answer from 1 (pure guess) to 5 (very sure) by pressing the corresponding button.</p>\n     ","response":4,"image":"img/knife.jpg","task":"confidence","old_or_new":"old","trial_type":"html-button-response","trial_index":8,"time_elapsed":54719,"internal_node_id":"0.0-3.0-1.2","subject_id":"5fadb808fad6ff17f4be06dc","study_id":"606233c0e42b980319b6a18e","session_id":"608838f582765c79d3da7406"},{"rt":2970.4950000159442,"stimulus":"img/spoon.jpg","response":"y","image":"img/spoon.jpg","old_or_new":"old","task":"recognition","trial_type":"image-keyboard-response","trial_index":9,"time_elapsed":58193,"internal_node_id":"0.0-3.0-0.3","subject_id":"5fadb808fad6ff17f4be06dc","study_id":"606233c0e42b980319b6a18e","session_id":"608838f582765c79d3da7406","correct":true},{"rt":2415.6750002875924,"stimulus":"\n      <p>How sure are you?</p>\n      <p>Rate your confidence in your answer from 1 (pure guess) to 5 (very sure) by pressing the corresponding button.</p>\n     ","response":4,"image":"img/spoon.jpg","task":"confidence","old_or_new":"old","trial_type":"html-button-response","trial_index":10,"time_elapsed":60610,"internal_node_id":"0.0-3.0-1.3","subject_id":"5fadb808fad6ff17f4be06dc","study_id":"606233c0e42b980319b6a18e","session_id":"608838f582765c79d3da7406"},{"rt":1218.6999996192753,"stimulus":"img/plane_alternate.jpg","response":"n","image":"img/plane_alternate.jpg","old_or_new":"new","task":"recognition","trial_type":"image-keyboard-response","trial_index":11,"time_elapsed":62331,"internal_node_id":"0.0-3.0-0.4","subject_id":"5fadb808fad6ff17f4be06dc","study_id":"606233c0e42b980319b6a18e","session_id":"608838f582765c79d3da7406","correct":true},{"rt":2149.2200000211596,"stimulus":"\n      <p>How sure are you?</p>\n      <p>Rate your confidence in your answer from 1 (pure guess) to 5 (very sure) by pressing the corresponding button.</p>\n     ","response":4,"image":"img/plane_alternate.jpg","task":"confidence","old_or_new":"new","trial_type":"html-button-response","trial_index":12,"time_elapsed":64482,"internal_node_id":"0.0-3.0-1.4","subject_id":"5fadb808fad6ff17f4be06dc","study_id":"606233c0e42b980319b6a18e","session_id":"608838f582765c79d3da7406"},{"rt":2997.280000243336,"stimulus":"img/umbrella.jpg","response":"n","image":"img/umbrella.jpg","old_or_new":"old","task":"recognition","trial_type":"image-keyboard-response","trial_index":13,"time_elapsed":67981,"internal_node_id":"0.0-3.0-0.5","subject_id":"5fadb808fad6ff17f4be06dc","study_id":"606233c0e42b980319b6a18e","session_id":"608838f582765c79d3da7406","correct":false},{"rt":1653.6550000309944,"stimulus":"\n      <p>How sure are you?</p>\n      <p>Rate your confidence in your answer from 1 (pure guess) to 5 (very sure) by pressing the corresponding button.</p>\n     ","response":2,"image":"img/umbrella.jpg","task":"confidence","old_or_new":"old","trial_type":"html-button-response","trial_index":14,"time_elapsed":69637,"internal_node_id":"0.0-3.0-1.5","subject_id":"5fadb808fad6ff17f4be06dc","study_id":"606233c0e42b980319b6a18e","session_id":"608838f582765c79d3da7406"},{"rt":1512.0550002902746,"stimulus":"img/shovel_alternate.jpg","response":"n","image":"img/shovel_alternate.jpg","old_or_new":"new","task":"recognition","trial_type":"image-keyboard-response","trial_index":15,"time_elapsed":71650,"internal_node_id":"0.0-3.0-0.6","subject_id":"5fadb808fad6ff17f4be06dc","study_id":"606233c0e42b980319b6a18e","session_id":"608838f582765c79d3da7406","correct":true},{"rt":1692.8249998018146,"stimulus":"\n      <p>How sure are you?</p>\n      <p>Rate your confidence in your answer from 1 (pure guess) to 5 (very sure) by pressing the corresponding button.</p>\n     ","response":4,"image":"img/shovel_alternate.jpg","task":"confidence","old_or_new":"new","trial_type":"html-button-response","trial_index":16,"time_elapsed":73344,"internal_node_id":"0.0-3.0-1.6","subject_id":"5fadb808fad6ff17f4be06dc","study_id":"606233c0e42b980319b6a18e","session_id":"608838f582765c79d3da7406"},{"rt":2504.304999951273,"stimulus":"img/seashell.jpg","response":"y","image":"img/seashell.jpg","old_or_new":"old","task":"recognition","trial_type":"image-keyboard-response","trial_index":17,"time_elapsed":76352,"internal_node_id":"0.0-3.0-0.7","subject_id":"5fadb808fad6ff17f4be06dc","study_id":"606233c0e42b980319b6a18e","session_id":"608838f582765c79d3da7406","correct":true},{"rt":1550.9599996730685,"stimulus":"\n      <p>How sure are you?</p>\n      <p>Rate your confidence in your answer from 1 (pure guess) to 5 (very sure) by pressing the corresponding button.</p>\n     ","response":4,"image":"img/seashell.jpg","task":"confidence","old_or_new":"old","trial_type":"html-button-response","trial_index":18,"time_elapsed":77904,"internal_node_id":"0.0-3.0-1.7","subject_id":"5fadb808fad6ff17f4be06dc","study_id":"606233c0e42b980319b6a18e","session_id":"608838f582765c79d3da7406"},{"rt":1224.404999986291,"stimulus":"img/plate_alternate.jpg","response":"n","image":"img/plate_alternate.jpg","old_or_new":"new","task":"recognition","trial_type":"image-keyboard-response","trial_index":19,"time_elapsed":79631,"internal_node_id":"0.0-3.0-0.8","subject_id":"5fadb808fad6ff17f4be06dc","study_id":"606233c0e42b980319b6a18e","session_id":"608838f582765c79d3da7406","correct":true},{"rt":1976.684999652207,"stimulus":"\n      <p>How sure are you?</p>\n      <p>Rate your confidence in your answer from 1 (pure guess) to 5 (very sure) by pressing the corresponding button.</p>\n     ","response":3,"image":"img/plate_alternate.jpg","task":"confidence","old_or_new":"new","trial_type":"html-button-response","trial_index":20,"time_elapsed":81609,"internal_node_id":"0.0-3.0-1.8","subject_id":"5fadb808fad6ff17f4be06dc","study_id":"606233c0e42b980319b6a18e","session_id":"608838f582765c79d3da7406"},{"rt":1314.6049999631941,"stimulus":"img/yarn_alternate.jpg","response":"n","image":"img/yarn_alternate.jpg","old_or_new":"new","task":"recognition","trial_type":"image-keyboard-response","trial_index":21,"time_elapsed":83435,"internal_node_id":"0.0-3.0-0.9","subject_id":"5fadb808fad6ff17f4be06dc","study_id":"606233c0e42b980319b6a18e","session_id":"608838f582765c79d3da7406","correct":true},{"rt":4217.000000178814,"stimulus":"\n      <p>How sure are you?</p>\n      <p>Rate your confidence in your answer from 1 (pure guess) to 5 (very sure) by pressing the corresponding button.</p>\n     ","response":3,"image":"img/yarn_alternate.jpg","task":"confidence","old_or_new":"new","trial_type":"html-button-response","trial_index":22,"time_elapsed":87653,"internal_node_id":"0.0-3.0-1.9","subject_id":"5fadb808fad6ff17f4be06dc","study_id":"606233c0e42b980319b6a18e","session_id":"608838f582765c79d3da7406"},{"rt":2061.9299998506904,"stimulus":"img/shoe_alternate.jpg","response":"n","image":"img/shoe_alternate.jpg","old_or_new":"new","task":"recognition","trial_type":"image-keyboard-response","trial_index":23,"time_elapsed":90224,"internal_node_id":"0.0-3.0-0.10","subject_id":"5fadb808fad6ff17f4be06dc","study_id":"606233c0e42b980319b6a18e","session_id":"608838f582765c79d3da7406","correct":true},{"rt":1237.3399999924004,"stimulus":"\n      <p>How sure are you?</p>\n      <p>Rate your confidence in your answer from 1 (pure guess) to 5 (very sure) by pressing the corresponding button.</p>\n     ","response":3,"image":"img/shoe_alternate.jpg","task":"confidence","old_or_new":"new","trial_type":"html-button-response","trial_index":24,"time_elapsed":91462,"internal_node_id":"0.0-3.0-1.10","subject_id":"5fadb808fad6ff17f4be06dc","study_id":"606233c0e42b980319b6a18e","session_id":"608838f582765c79d3da7406"},{"rt":2279.9750003032386,"stimulus":"img/watch.jpg","response":"y","image":"img/watch.jpg","old_or_new":"old","task":"recognition","trial_type":"image-keyboard-response","trial_index":25,"time_elapsed":94257,"internal_node_id":"0.0-3.0-0.11","subject_id":"5fadb808fad6ff17f4be06dc","study_id":"606233c0e42b980319b6a18e","session_id":"608838f582765c79d3da7406","correct":true},{"rt":1556.5599999390543,"stimulus":"\n      <p>How sure are you?</p>\n      <p>Rate your confidence in your answer from 1 (pure guess) to 5 (very sure) by pressing the corresponding button.</p>\n     ","response":4,"image":"img/watch.jpg","task":"confidence","old_or_new":"old","trial_type":"html-button-response","trial_index":26,"time_elapsed":95815,"internal_node_id":"0.0-3.0-1.11","subject_id":"5fadb808fad6ff17f4be06dc","study_id":"606233c0e42b980319b6a18e","session_id":"608838f582765c79d3da7406"},{"rt":3991.1099998280406,"stimulus":"img/skates.jpg","response":"y","image":"img/skates.jpg","old_or_new":"old","task":"recognition","trial_type":"image-keyboard-response","trial_index":27,"time_elapsed":100329,"internal_node_id":"0.0-3.0-0.12","subject_id":"5fadb808fad6ff17f4be06dc","study_id":"606233c0e42b980319b6a18e","session_id":"608838f582765c79d3da7406","correct":true},{"rt":1616.9199999421835,"stimulus":"\n      <p>How sure are you?</p>\n      <p>Rate your confidence in your answer from 1 (pure guess) to 5 (very sure) by pressing the corresponding button.</p>\n     ","response":2,"image":"img/skates.jpg","task":"confidence","old_or_new":"old","trial_type":"html-button-response","trial_index":28,"time_elapsed":101948,"internal_node_id":"0.0-3.0-1.12","subject_id":"5fadb808fad6ff17f4be06dc","study_id":"606233c0e42b980319b6a18e","session_id":"608838f582765c79d3da7406"},{"rt":2239.9799996055663,"stimulus":"img/toothbrush_alternate.jpg","response":"n","image":"img/toothbrush_alternate.jpg","old_or_new":"new","task":"recognition","trial_type":"image-keyboard-response","trial_index":29,"time_elapsed":104704,"internal_node_id":"0.0-3.0-0.13","subject_id":"5fadb808fad6ff17f4be06dc","study_id":"606233c0e42b980319b6a18e","session_id":"608838f582765c79d3da7406","correct":true},{"rt":1425.5249998532236,"stimulus":"\n      <p>How sure are you?</p>\n      <p>Rate your confidence in your answer from 1 (pure guess) to 5 (very sure) by pressing the corresponding button.</p>\n     ","response":3,"image":"img/toothbrush_alternate.jpg","task":"confidence","old_or_new":"new","trial_type":"html-button-response","trial_index":30,"time_elapsed":106131,"internal_node_id":"0.0-3.0-1.13","subject_id":"5fadb808fad6ff17f4be06dc","study_id":"606233c0e42b980319b6a18e","session_id":"608838f582765c79d3da7406"},{"rt":1215.6699998304248,"stimulus":"img/toaster_alternate.jpg","response":"n","image":"img/toaster_alternate.jpg","old_or_new":"new","task":"recognition","trial_type":"image-keyboard-response","trial_index":31,"time_elapsed":107870,"internal_node_id":"0.0-3.0-0.14","subject_id":"5fadb808fad6ff17f4be06dc","study_id":"606233c0e42b980319b6a18e","session_id":"608838f582765c79d3da7406","correct":true},{"rt":1536.9600001722574,"stimulus":"\n      <p>How sure are you?</p>\n      <p>Rate your confidence in your answer from 1 (pure guess) to 5 (very sure) by pressing the corresponding button.</p>\n     ","response":4,"image":"img/toaster_alternate.jpg","task":"confidence","old_or_new":"new","trial_type":"html-button-response","trial_index":32,"time_elapsed":109408,"internal_node_id":"0.0-3.0-1.14","subject_id":"5fadb808fad6ff17f4be06dc","study_id":"606233c0e42b980319b6a18e","session_id":"608838f582765c79d3da7406"},{"rt":1548.0499998666346,"stimulus":"img/parfait.jpg","response":"y","image":"img/parfait.jpg","old_or_new":"old","task":"recognition","trial_type":"image-keyboard-response","trial_index":33,"time_elapsed":111473,"internal_node_id":"0.0-3.0-0.15","subject_id":"5fadb808fad6ff17f4be06dc","study_id":"606233c0e42b980319b6a18e","session_id":"608838f582765c79d3da7406","correct":true},{"rt":1168.3900002390146,"stimulus":"\n      <p>How sure are you?</p>\n      <p>Rate your confidence in your answer from 1 (pure guess) to 5 (very sure) by pressing the corresponding button.</p>\n     ","response":4,"image":"img/parfait.jpg","task":"confidence","old_or_new":"old","trial_type":"html-button-response","trial_index":34,"time_elapsed":112643,"internal_node_id":"0.0-3.0-1.15","subject_id":"5fadb808fad6ff17f4be06dc","study_id":"606233c0e42b980319b6a18e","session_id":"608838f582765c79d3da7406"},{"rt":3017.574999947101,"stimulus":"img/plate.jpg","response":"y","image":"img/plate.jpg","old_or_new":"old","task":"recognition","trial_type":"image-keyboard-response","trial_index":35,"time_elapsed":116171,"internal_node_id":"0.0-3.0-0.16","subject_id":"5fadb808fad6ff17f4be06dc","study_id":"606233c0e42b980319b6a18e","session_id":"608838f582765c79d3da7406","correct":true},{"rt":1416.6950001381338,"stimulus":"\n      <p>How sure are you?</p>\n      <p>Rate your confidence in your answer from 1 (pure guess) to 5 (very sure) by pressing the corresponding button.</p>\n     ","response":2,"image":"img/plate.jpg","task":"confidence","old_or_new":"old","trial_type":"html-button-response","trial_index":36,"time_elapsed":117590,"internal_node_id":"0.0-3.0-1.16","subject_id":"5fadb808fad6ff17f4be06dc","study_id":"606233c0e42b980319b6a18e","session_id":"608838f582765c79d3da7406"},{"rt":3693.2749999687076,"stimulus":"img/tv.jpg","response":"y","image":"img/tv.jpg","old_or_new":"old","task":"recognition","trial_type":"image-keyboard-response","trial_index":37,"time_elapsed":121785,"internal_node_id":"0.0-3.0-0.17","subject_id":"5fadb808fad6ff17f4be06dc","study_id":"606233c0e42b980319b6a18e","session_id":"608838f582765c79d3da7406","correct":true},{"rt":3291.6949996724725,"stimulus":"\n      <p>How sure are you?</p>\n      <p>Rate your confidence in your answer from 1 (pure guess) to 5 (very sure) by pressing the corresponding button.</p>\n     ","response":1,"image":"img/tv.jpg","task":"confidence","old_or_new":"old","trial_type":"html-button-response","trial_index":38,"time_elapsed":125078,"internal_node_id":"0.0-3.0-1.17","subject_id":"5fadb808fad6ff17f4be06dc","study_id":"606233c0e42b980319b6a18e","session_id":"608838f582765c79d3da7406"},{"rt":1769.2549997009337,"stimulus":"img/scissors.jpg","response":"y","image":"img/scissors.jpg","old_or_new":"old","task":"recognition","trial_type":"image-keyboard-response","trial_index":39,"time_elapsed":127355,"internal_node_id":"0.0-3.0-0.18","subject_id":"5fadb808fad6ff17f4be06dc","study_id":"606233c0e42b980319b6a18e","session_id":"608838f582765c79d3da7406","correct":true},{"rt":1726.8550000153482,"stimulus":"\n      <p>How sure are you?</p>\n      <p>Rate your confidence in your answer from 1 (pure guess) to 5 (very sure) by pressing the corresponding button.</p>\n     ","response":3,"image":"img/scissors.jpg","task":"confidence","old_or_new":"old","trial_type":"html-button-response","trial_index":40,"time_elapsed":129083,"internal_node_id":"0.0-3.0-1.18","subject_id":"5fadb808fad6ff17f4be06dc","study_id":"606233c0e42b980319b6a18e","session_id":"608838f582765c79d3da7406"},{"rt":1620.7749997265637,"stimulus":"img/trophy.jpg","response":"y","image":"img/trophy.jpg","old_or_new":"old","task":"recognition","trial_type":"image-keyboard-response","trial_index":41,"time_elapsed":131212,"internal_node_id":"0.0-3.0-0.19","subject_id":"5fadb808fad6ff17f4be06dc","study_id":"606233c0e42b980319b6a18e","session_id":"608838f582765c79d3da7406","correct":true},{"rt":1658.3799999207258,"stimulus":"\n      <p>How sure are you?</p>\n      <p>Rate your confidence in your answer from 1 (pure guess) to 5 (very sure) by pressing the corresponding button.</p>\n     ","response":4,"image":"img/trophy.jpg","task":"confidence","old_or_new":"old","trial_type":"html-button-response","trial_index":42,"time_elapsed":132872,"internal_node_id":"0.0-3.0-1.19","subject_id":"5fadb808fad6ff17f4be06dc","study_id":"606233c0e42b980319b6a18e","session_id":"608838f582765c79d3da7406"},{"rt":1251.939999870956,"stimulus":"img/scissors_alternate.jpg","response":"n","image":"img/scissors_alternate.jpg","old_or_new":"new","task":"recognition","trial_type":"image-keyboard-response","trial_index":43,"time_elapsed":134631,"internal_node_id":"0.0-3.0-0.20","subject_id":"5fadb808fad6ff17f4be06dc","study_id":"606233c0e42b980319b6a18e","session_id":"608838f582765c79d3da7406","correct":true},{"rt":3112.6100001856685,"stimulus":"\n      <p>How sure are you?</p>\n      <p>Rate your confidence in your answer from 1 (pure guess) to 5 (very sure) by pressing the corresponding button.</p>\n     ","response":4,"image":"img/scissors_alternate.jpg","task":"confidence","old_or_new":"new","trial_type":"html-button-response","trial_index":44,"time_elapsed":137745,"internal_node_id":"0.0-3.0-1.20","subject_id":"5fadb808fad6ff17f4be06dc","study_id":"606233c0e42b980319b6a18e","session_id":"608838f582765c79d3da7406"},{"rt":1330.864999908954,"stimulus":"img/shovel.jpg","response":"y","image":"img/shovel.jpg","old_or_new":"old","task":"recognition","trial_type":"image-keyboard-response","trial_index":45,"time_elapsed":139579,"internal_node_id":"0.0-3.0-0.21","subject_id":"5fadb808fad6ff17f4be06dc","study_id":"606233c0e42b980319b6a18e","session_id":"608838f582765c79d3da7406","correct":true},{"rt":1123.3700001612306,"stimulus":"\n      <p>How sure are you?</p>\n      <p>Rate your confidence in your answer from 1 (pure guess) to 5 (very sure) by pressing the corresponding button.</p>\n     ","response":4,"image":"img/shovel.jpg","task":"confidence","old_or_new":"old","trial_type":"html-button-response","trial_index":46,"time_elapsed":140704,"internal_node_id":"0.0-3.0-1.21","subject_id":"5fadb808fad6ff17f4be06dc","study_id":"606233c0e42b980319b6a18e","session_id":"608838f582765c79d3da7406"},{"rt":1763.8049996457994,"stimulus":"img/shirt.jpg","response":"y","image":"img/shirt.jpg","old_or_new":"old","task":"recognition","trial_type":"image-keyboard-response","trial_index":47,"time_elapsed":142985,"internal_node_id":"0.0-3.0-0.22","subject_id":"5fadb808fad6ff17f4be06dc","study_id":"606233c0e42b980319b6a18e","session_id":"608838f582765c79d3da7406","correct":true},{"rt":1854.4600000604987,"stimulus":"\n      <p>How sure are you?</p>\n      <p>Rate your confidence in your answer from 1 (pure guess) to 5 (very sure) by pressing the corresponding button.</p>\n     ","response":4,"image":"img/shirt.jpg","task":"confidence","old_or_new":"old","trial_type":"html-button-response","trial_index":48,"time_elapsed":144841,"internal_node_id":"0.0-3.0-1.22","subject_id":"5fadb808fad6ff17f4be06dc","study_id":"606233c0e42b980319b6a18e","session_id":"608838f582765c79d3da7406"},{"rt":1250.244999770075,"stimulus":"img/skates_alternate.jpg","response":"n","image":"img/skates_alternate.jpg","old_or_new":"new","task":"recognition","trial_type":"image-keyboard-response","trial_index":49,"time_elapsed":146607,"internal_node_id":"0.0-3.0-0.23","subject_id":"5fadb808fad6ff17f4be06dc","study_id":"606233c0e42b980319b6a18e","session_id":"608838f582765c79d3da7406","correct":true},{"rt":2569.3250000476837,"stimulus":"\n      <p>How sure are you?</p>\n      <p>Rate your confidence in your answer from 1 (pure guess) to 5 (very sure) by pressing the corresponding button.</p>\n     ","response":3,"image":"img/skates_alternate.jpg","task":"confidence","old_or_new":"new","trial_type":"html-button-response","trial_index":50,"time_elapsed":149178,"internal_node_id":"0.0-3.0-1.23","subject_id":"5fadb808fad6ff17f4be06dc","study_id":"606233c0e42b980319b6a18e","session_id":"608838f582765c79d3da7406"},{"rt":3554.9399997107685,"stimulus":"img/plane.jpg","response":"y","image":"img/plane.jpg","old_or_new":"old","task":"recognition","trial_type":"image-keyboard-response","trial_index":51,"time_elapsed":153235,"internal_node_id":"0.0-3.0-0.24","subject_id":"5fadb808fad6ff17f4be06dc","study_id":"606233c0e42b980319b6a18e","session_id":"608838f582765c79d3da7406","correct":true},{"rt":1620.2250001952052,"stimulus":"\n      <p>How sure are you?</p>\n      <p>Rate your confidence in your answer from 1 (pure guess) to 5 (very sure) by pressing the corresponding button.</p>\n     ","response":4,"image":"img/plane.jpg","task":"confidence","old_or_new":"old","trial_type":"html-button-response","trial_index":52,"time_elapsed":154857,"internal_node_id":"0.0-3.0-1.24","subject_id":"5fadb808fad6ff17f4be06dc","study_id":"606233c0e42b980319b6a18e","session_id":"608838f582765c79d3da7406"},{"rt":1298.7700002267957,"stimulus":"img/sink_alternate.jpg","response":"n","image":"img/sink_alternate.jpg","old_or_new":"new","task":"recognition","trial_type":"image-keyboard-response","trial_index":53,"time_elapsed":156665,"internal_node_id":"0.0-3.0-0.25","subject_id":"5fadb808fad6ff17f4be06dc","study_id":"606233c0e42b980319b6a18e","session_id":"608838f582765c79d3da7406","correct":true},{"rt":1865.019999910146,"stimulus":"\n      <p>How sure are you?</p>\n      <p>Rate your confidence in your answer from 1 (pure guess) to 5 (very sure) by pressing the corresponding button.</p>\n     ","response":4,"image":"img/sink_alternate.jpg","task":"confidence","old_or_new":"new","trial_type":"html-button-response","trial_index":54,"time_elapsed":158531,"internal_node_id":"0.0-3.0-1.25","subject_id":"5fadb808fad6ff17f4be06dc","study_id":"606233c0e42b980319b6a18e","session_id":"608838f582765c79d3da7406"},{"rt":1428.2550001516938,"stimulus":"img/spoon_alternate.jpg","response":"n","image":"img/spoon_alternate.jpg","old_or_new":"new","task":"recognition","trial_type":"image-keyboard-response","trial_index":55,"time_elapsed":160475,"internal_node_id":"0.0-3.0-0.26","subject_id":"5fadb808fad6ff17f4be06dc","study_id":"606233c0e42b980319b6a18e","session_id":"608838f582765c79d3da7406","correct":true},{"rt":2307.2350001893938,"stimulus":"\n      <p>How sure are you?</p>\n      <p>Rate your confidence in your answer from 1 (pure guess) to 5 (very sure) by pressing the corresponding button.</p>\n     ","response":4,"image":"img/spoon_alternate.jpg","task":"confidence","old_or_new":"new","trial_type":"html-button-response","trial_index":56,"time_elapsed":162784,"internal_node_id":"0.0-3.0-1.26","subject_id":"5fadb808fad6ff17f4be06dc","study_id":"606233c0e42b980319b6a18e","session_id":"608838f582765c79d3da7406"},{"rt":1281.684999819845,"stimulus":"img/toothbrush.jpg","response":"y","image":"img/toothbrush.jpg","old_or_new":"old","task":"recognition","trial_type":"image-keyboard-response","trial_index":57,"time_elapsed":164568,"internal_node_id":"0.0-3.0-0.27","subject_id":"5fadb808fad6ff17f4be06dc","study_id":"606233c0e42b980319b6a18e","session_id":"608838f582765c79d3da7406","correct":true},{"rt":3671.5800003148615,"stimulus":"\n      <p>How sure are you?</p>\n      <p>Rate your confidence in your answer from 1 (pure guess) to 5 (very sure) by pressing the corresponding button.</p>\n     ","response":4,"image":"img/toothbrush.jpg","task":"confidence","old_or_new":"old","trial_type":"html-button-response","trial_index":58,"time_elapsed":168241,"internal_node_id":"0.0-3.0-1.27","subject_id":"5fadb808fad6ff17f4be06dc","study_id":"606233c0e42b980319b6a18e","session_id":"608838f582765c79d3da7406"},{"rt":1261.8599999696016,"stimulus":"img/wheel_barrow_alternate.jpg","response":"n","image":"img/wheel_barrow_alternate.jpg","old_or_new":"new","task":"recognition","trial_type":"image-keyboard-response","trial_index":59,"time_elapsed":170020,"internal_node_id":"0.0-3.0-0.28","subject_id":"5fadb808fad6ff17f4be06dc","study_id":"606233c0e42b980319b6a18e","session_id":"608838f582765c79d3da7406","correct":true},{"rt":7566.560000181198,"stimulus":"\n      <p>How sure are you?</p>\n      <p>Rate your confidence in your answer from 1 (pure guess) to 5 (very sure) by pressing the corresponding button.</p>\n     ","response":3,"image":"img/wheel_barrow_alternate.jpg","task":"confidence","old_or_new":"new","trial_type":"html-button-response","trial_index":60,"time_elapsed":177588,"internal_node_id":"0.0-3.0-1.28","subject_id":"5fadb808fad6ff17f4be06dc","study_id":"606233c0e42b980319b6a18e","session_id":"608838f582765c79d3da7406"},{"rt":5206.400000024587,"stimulus":"img/toaster.jpg","response":"y","image":"img/toaster.jpg","old_or_new":"old","task":"recognition","trial_type":"image-keyboard-response","trial_index":61,"time_elapsed":183311,"internal_node_id":"0.0-3.0-0.29","subject_id":"5fadb808fad6ff17f4be06dc","study_id":"606233c0e42b980319b6a18e","session_id":"608838f582765c79d3da7406","correct":true},{"rt":1811.2349999137223,"stimulus":"\n      <p>How sure are you?</p>\n      <p>Rate your confidence in your answer from 1 (pure guess) to 5 (very sure) by pressing the corresponding button.</p>\n     ","response":1,"image":"img/toaster.jpg","task":"confidence","old_or_new":"old","trial_type":"html-button-response","trial_index":62,"time_elapsed":185123,"internal_node_id":"0.0-3.0-1.29","subject_id":"5fadb808fad6ff17f4be06dc","study_id":"606233c0e42b980319b6a18e","session_id":"608838f582765c79d3da7406"},{"rt":4934.384999796748,"stimulus":"img/shoe.jpg","response":"y","image":"img/shoe.jpg","old_or_new":"old","task":"recognition","trial_type":"image-keyboard-response","trial_index":63,"time_elapsed":190568,"internal_node_id":"0.0-3.0-0.30","subject_id":"5fadb808fad6ff17f4be06dc","study_id":"606233c0e42b980319b6a18e","session_id":"608838f582765c79d3da7406","correct":true},{"rt":1309.5200001262128,"stimulus":"\n      <p>How sure are you?</p>\n      <p>Rate your confidence in your answer from 1 (pure guess) to 5 (very sure) by pressing the corresponding button.</p>\n     ","response":1,"image":"img/shoe.jpg","task":"confidence","old_or_new":"old","trial_type":"html-button-response","trial_index":64,"time_elapsed":191879,"internal_node_id":"0.0-3.0-1.30","subject_id":"5fadb808fad6ff17f4be06dc","study_id":"606233c0e42b980319b6a18e","session_id":"608838f582765c79d3da7406"},{"rt":1602.8499999083579,"stimulus":"img/pencil_sharpener.jpg","response":"y","image":"img/pencil_sharpener.jpg","old_or_new":"old","task":"recognition","trial_type":"image-keyboard-response","trial_index":65,"time_elapsed":193998,"internal_node_id":"0.0-3.0-0.31","subject_id":"5fadb808fad6ff17f4be06dc","study_id":"606233c0e42b980319b6a18e","session_id":"608838f582765c79d3da7406","correct":true},{"rt":1500.7650000043213,"stimulus":"\n      <p>How sure are you?</p>\n      <p>Rate your confidence in your answer from 1 (pure guess) to 5 (very sure) by pressing the corresponding button.</p>\n     ","response":4,"image":"img/pencil_sharpener.jpg","task":"confidence","old_or_new":"old","trial_type":"html-button-response","trial_index":66,"time_elapsed":195500,"internal_node_id":"0.0-3.0-1.31","subject_id":"5fadb808fad6ff17f4be06dc","study_id":"606233c0e42b980319b6a18e","session_id":"608838f582765c79d3da7406"},{"rt":1180.679999757558,"stimulus":"img/watch_alternate.jpg","response":"n","image":"img/watch_alternate.jpg","old_or_new":"new","task":"recognition","trial_type":"image-keyboard-response","trial_index":67,"time_elapsed":197198,"internal_node_id":"0.0-3.0-0.32","subject_id":"5fadb808fad6ff17f4be06dc","study_id":"606233c0e42b980319b6a18e","session_id":"608838f582765c79d3da7406","correct":true},{"rt":1818.7049999833107,"stimulus":"\n      <p>How sure are you?</p>\n      <p>Rate your confidence in your answer from 1 (pure guess) to 5 (very sure) by pressing the corresponding button.</p>\n     ","response":3,"image":"img/watch_alternate.jpg","task":"confidence","old_or_new":"new","trial_type":"html-button-response","trial_index":68,"time_elapsed":199018,"internal_node_id":"0.0-3.0-1.32","subject_id":"5fadb808fad6ff17f4be06dc","study_id":"606233c0e42b980319b6a18e","session_id":"608838f582765c79d3da7406"},{"rt":1564.9600001052022,"stimulus":"img/rolling_pin_alternate.jpg","response":"n","image":"img/rolling_pin_alternate.jpg","old_or_new":"new","task":"recognition","trial_type":"image-keyboard-response","trial_index":69,"time_elapsed":201099,"internal_node_id":"0.0-3.0-0.33","subject_id":"5fadb808fad6ff17f4be06dc","study_id":"606233c0e42b980319b6a18e","session_id":"608838f582765c79d3da7406","correct":true},{"rt":1538.2849997840822,"stimulus":"\n      <p>How sure are you?</p>\n      <p>Rate your confidence in your answer from 1 (pure guess) to 5 (very sure) by pressing the corresponding button.</p>\n     ","response":4,"image":"img/rolling_pin_alternate.jpg","task":"confidence","old_or_new":"new","trial_type":"html-button-response","trial_index":70,"time_elapsed":202639,"internal_node_id":"0.0-3.0-1.33","subject_id":"5fadb808fad6ff17f4be06dc","study_id":"606233c0e42b980319b6a18e","session_id":"608838f582765c79d3da7406"},{"rt":1493.7849999405444,"stimulus":"img/parfait_alternate.jpg","response":"n","image":"img/parfait_alternate.jpg","old_or_new":"new","task":"recognition","trial_type":"image-keyboard-response","trial_index":71,"time_elapsed":204641,"internal_node_id":"0.0-3.0-0.34","subject_id":"5fadb808fad6ff17f4be06dc","study_id":"606233c0e42b980319b6a18e","session_id":"608838f582765c79d3da7406","correct":true},{"rt":1633.4600001573563,"stimulus":"\n      <p>How sure are you?</p>\n      <p>Rate your confidence in your answer from 1 (pure guess) to 5 (very sure) by pressing the corresponding button.</p>\n     ","response":4,"image":"img/parfait_alternate.jpg","task":"confidence","old_or_new":"new","trial_type":"html-button-response","trial_index":72,"time_elapsed":206276,"internal_node_id":"0.0-3.0-1.34","subject_id":"5fadb808fad6ff17f4be06dc","study_id":"606233c0e42b980319b6a18e","session_id":"608838f582765c79d3da7406"},{"rt":1198.0300000868738,"stimulus":"img/pencil_sharpener_alternate.jpg","response":"n","image":"img/pencil_sharpener_alternate.jpg","old_or_new":"new","task":"recognition","trial_type":"image-keyboard-response","trial_index":73,"time_elapsed":207998,"internal_node_id":"0.0-3.0-0.35","subject_id":"5fadb808fad6ff17f4be06dc","study_id":"606233c0e42b980319b6a18e","session_id":"608838f582765c79d3da7406","correct":true},{"rt":1482.6199999079108,"stimulus":"\n      <p>How sure are you?</p>\n      <p>Rate your confidence in your answer from 1 (pure guess) to 5 (very sure) by pressing the corresponding button.</p>\n     ","response":4,"image":"img/pencil_sharpener_alternate.jpg","task":"confidence","old_or_new":"new","trial_type":"html-button-response","trial_index":74,"time_elapsed":209482,"internal_node_id":"0.0-3.0-1.35","subject_id":"5fadb808fad6ff17f4be06dc","study_id":"606233c0e42b980319b6a18e","session_id":"608838f582765c79d3da7406"},{"rt":1116.5800001472235,"stimulus":"img/rolling_pin.jpg","response":"y","image":"img/rolling_pin.jpg","old_or_new":"old","task":"recognition","trial_type":"image-keyboard-response","trial_index":75,"time_elapsed":211121,"internal_node_id":"0.0-3.0-0.36","subject_id":"5fadb808fad6ff17f4be06dc","study_id":"606233c0e42b980319b6a18e","session_id":"608838f582765c79d3da7406","correct":true},{"rt":1115.8050000667572,"stimulus":"\n      <p>How sure are you?</p>\n      <p>Rate your confidence in your answer from 1 (pure guess) to 5 (very sure) by pressing the corresponding button.</p>\n     ","response":4,"image":"img/rolling_pin.jpg","task":"confidence","old_or_new":"old","trial_type":"html-button-response","trial_index":76,"time_elapsed":212238,"internal_node_id":"0.0-3.0-1.36","subject_id":"5fadb808fad6ff17f4be06dc","study_id":"606233c0e42b980319b6a18e","session_id":"608838f582765c79d3da7406"},{"rt":1054.4099998660386,"stimulus":"img/seashell_alternate.jpg","response":"n","image":"img/seashell_alternate.jpg","old_or_new":"new","task":"recognition","trial_type":"image-keyboard-response","trial_index":77,"time_elapsed":213809,"internal_node_id":"0.0-3.0-0.37","subject_id":"5fadb808fad6ff17f4be06dc","study_id":"606233c0e42b980319b6a18e","session_id":"608838f582765c79d3da7406","correct":true},{"rt":2149.714999832213,"stimulus":"\n      <p>How sure are you?</p>\n      <p>Rate your confidence in your answer from 1 (pure guess) to 5 (very sure) by pressing the corresponding button.</p>\n     ","response":4,"image":"img/seashell_alternate.jpg","task":"confidence","old_or_new":"new","trial_type":"html-button-response","trial_index":78,"time_elapsed":215960,"internal_node_id":"0.0-3.0-1.37","subject_id":"5fadb808fad6ff17f4be06dc","study_id":"606233c0e42b980319b6a18e","session_id":"608838f582765c79d3da7406"},{"rt":6928.8849998265505,"stimulus":"img/power_cord_alternate.jpg","response":"n","image":"img/power_cord_alternate.jpg","old_or_new":"new","task":"recognition","trial_type":"image-keyboard-response","trial_index":79,"time_elapsed":223405,"internal_node_id":"0.0-3.0-0.38","subject_id":"5fadb808fad6ff17f4be06dc","study_id":"606233c0e42b980319b6a18e","session_id":"608838f582765c79d3da7406","correct":true},{"rt":2324.1050001233816,"stimulus":"\n      <p>How sure are you?</p>\n      <p>Rate your confidence in your answer from 1 (pure guess) to 5 (very sure) by pressing the corresponding button.</p>\n     ","response":1,"image":"img/power_cord_alternate.jpg","task":"confidence","old_or_new":"new","trial_type":"html-button-response","trial_index":80,"time_elapsed":225731,"internal_node_id":"0.0-3.0-1.38","subject_id":"5fadb808fad6ff17f4be06dc","study_id":"606233c0e42b980319b6a18e","session_id":"608838f582765c79d3da7406"},{"rt":1387.1999997645617,"stimulus":"img/wheel_barrow.jpg","response":"y","image":"img/wheel_barrow.jpg","old_or_new":"old","task":"recognition","trial_type":"image-keyboard-response","trial_index":81,"time_elapsed":227622,"internal_node_id":"0.0-3.0-0.39","subject_id":"5fadb808fad6ff17f4be06dc","study_id":"606233c0e42b980319b6a18e","session_id":"608838f582765c79d3da7406","correct":true},{"rt":1275.2050003036857,"stimulus":"\n      <p>How sure are you?</p>\n      <p>Rate your confidence in your answer from 1 (pure guess) to 5 (very sure) by pressing the corresponding button.</p>\n     ","response":4,"image":"img/wheel_barrow.jpg","task":"confidence","old_or_new":"old","trial_type":"html-button-response","trial_index":82,"time_elapsed":228898,"internal_node_id":"0.0-3.0-1.39","subject_id":"5fadb808fad6ff17f4be06dc","study_id":"606233c0e42b980319b6a18e","session_id":"608838f582765c79d3da7406"},{"rt":811.2650001421571,"stimulus":"img/sink.jpg","response":"y","image":"img/sink.jpg","old_or_new":"old","task":"recognition","trial_type":"image-keyboard-response","trial_index":83,"time_elapsed":230225,"internal_node_id":"0.0-3.0-0.40","subject_id":"5fadb808fad6ff17f4be06dc","study_id":"606233c0e42b980319b6a18e","session_id":"608838f582765c79d3da7406","correct":true},{"rt":1059.7850000485778,"stimulus":"\n      <p>How sure are you?</p>\n      <p>Rate your confidence in your answer from 1 (pure guess) to 5 (very sure) by pressing the corresponding button.</p>\n     ","response":4,"image":"img/sink.jpg","task":"confidence","old_or_new":"old","trial_type":"html-button-response","trial_index":84,"time_elapsed":231286,"internal_node_id":"0.0-3.0-1.40","subject_id":"5fadb808fad6ff17f4be06dc","study_id":"606233c0e42b980319b6a18e","session_id":"608838f582765c79d3da7406"},{"rt":3278.2250000163913,"stimulus":"img/tv_alternate.jpg","response":"n","image":"img/tv_alternate.jpg","old_or_new":"new","task":"recognition","trial_type":"image-keyboard-response","trial_index":85,"time_elapsed":235081,"internal_node_id":"0.0-3.0-0.41","subject_id":"5fadb808fad6ff17f4be06dc","study_id":"606233c0e42b980319b6a18e","session_id":"608838f582765c79d3da7406","correct":true},{"rt":1931.414999999106,"stimulus":"\n      <p>How sure are you?</p>\n      <p>Rate your confidence in your answer from 1 (pure guess) to 5 (very sure) by pressing the corresponding button.</p>\n     ","response":1,"image":"img/tv_alternate.jpg","task":"confidence","old_or_new":"new","trial_type":"html-button-response","trial_index":86,"time_elapsed":237014,"internal_node_id":"0.0-3.0-1.41","subject_id":"5fadb808fad6ff17f4be06dc","study_id":"606233c0e42b980319b6a18e","session_id":"608838f582765c79d3da7406"},{"rt":1308.9450001716614,"stimulus":"img/pizza_alternate.jpg","response":"n","image":"img/pizza_alternate.jpg","old_or_new":"new","task":"recognition","trial_type":"image-keyboard-response","trial_index":87,"time_elapsed":238839,"internal_node_id":"0.0-3.0-0.42","subject_id":"5fadb808fad6ff17f4be06dc","study_id":"606233c0e42b980319b6a18e","session_id":"608838f582765c79d3da7406","correct":true},{"rt":1274.2600003257394,"stimulus":"\n      <p>How sure are you?</p>\n      <p>Rate your confidence in your answer from 1 (pure guess) to 5 (very sure) by pressing the corresponding button.</p>\n     ","response":1,"image":"img/pizza_alternate.jpg","task":"confidence","old_or_new":"new","trial_type":"html-button-response","trial_index":88,"time_elapsed":240114,"internal_node_id":"0.0-3.0-1.42","subject_id":"5fadb808fad6ff17f4be06dc","study_id":"606233c0e42b980319b6a18e","session_id":"608838f582765c79d3da7406"},{"rt":1164.6799999289215,"stimulus":"img/knife_alternate.jpg","response":"n","image":"img/knife_alternate.jpg","old_or_new":"new","task":"recognition","trial_type":"image-keyboard-response","trial_index":89,"time_elapsed":241780,"internal_node_id":"0.0-3.0-0.43","subject_id":"5fadb808fad6ff17f4be06dc","study_id":"606233c0e42b980319b6a18e","session_id":"608838f582765c79d3da7406","correct":true},{"rt":2076.890000142157,"stimulus":"\n      <p>How sure are you?</p>\n      <p>Rate your confidence in your answer from 1 (pure guess) to 5 (very sure) by pressing the corresponding button.</p>\n     ","response":3,"image":"img/knife_alternate.jpg","task":"confidence","old_or_new":"new","trial_type":"html-button-response","trial_index":90,"time_elapsed":243859,"internal_node_id":"0.0-3.0-1.43","subject_id":"5fadb808fad6ff17f4be06dc","study_id":"606233c0e42b980319b6a18e","session_id":"608838f582765c79d3da7406"},{"rt":2181.4649999141693,"stimulus":"img/yarn.jpg","response":"y","image":"img/yarn.jpg","old_or_new":"old","task":"recognition","trial_type":"image-keyboard-response","trial_index":91,"time_elapsed":246557,"internal_node_id":"0.0-3.0-0.44","subject_id":"5fadb808fad6ff17f4be06dc","study_id":"606233c0e42b980319b6a18e","session_id":"608838f582765c79d3da7406","correct":true},{"rt":1108.294999692589,"stimulus":"\n      <p>How sure are you?</p>\n      <p>Rate your confidence in your answer from 1 (pure guess) to 5 (very sure) by pressing the corresponding button.</p>\n     ","response":3,"image":"img/yarn.jpg","task":"confidence","old_or_new":"old","trial_type":"html-button-response","trial_index":92,"time_elapsed":247667,"internal_node_id":"0.0-3.0-1.44","subject_id":"5fadb808fad6ff17f4be06dc","study_id":"606233c0e42b980319b6a18e","session_id":"608838f582765c79d3da7406"},{"rt":1165.0950000621378,"stimulus":"img/trophy_alternate.jpg","response":"n","image":"img/trophy_alternate.jpg","old_or_new":"new","task":"recognition","trial_type":"image-keyboard-response","trial_index":93,"time_elapsed":249347,"internal_node_id":"0.0-3.0-0.45","subject_id":"5fadb808fad6ff17f4be06dc","study_id":"606233c0e42b980319b6a18e","session_id":"608838f582765c79d3da7406","correct":true},{"rt":1092.3000001348555,"stimulus":"\n      <p>How sure are you?</p>\n      <p>Rate your confidence in your answer from 1 (pure guess) to 5 (very sure) by pressing the corresponding button.</p>\n     ","response":4,"image":"img/trophy_alternate.jpg","task":"confidence","old_or_new":"new","trial_type":"html-button-response","trial_index":94,"time_elapsed":250448,"internal_node_id":"0.0-3.0-1.45","subject_id":"5fadb808fad6ff17f4be06dc","study_id":"606233c0e42b980319b6a18e","session_id":"608838f582765c79d3da7406"},{"rt":1175.1199997961521,"stimulus":"img/pizza.jpg","response":"y","image":"img/pizza.jpg","old_or_new":"old","task":"recognition","trial_type":"image-keyboard-response","trial_index":95,"time_elapsed":252127,"internal_node_id":"0.0-3.0-0.46","subject_id":"5fadb808fad6ff17f4be06dc","study_id":"606233c0e42b980319b6a18e","session_id":"608838f582765c79d3da7406","correct":true},{"rt":1243.5599998570979,"stimulus":"\n      <p>How sure are you?</p>\n      <p>Rate your confidence in your answer from 1 (pure guess) to 5 (very sure) by pressing the corresponding button.</p>\n     ","response":4,"image":"img/pizza.jpg","task":"confidence","old_or_new":"old","trial_type":"html-button-response","trial_index":96,"time_elapsed":253372,"internal_node_id":"0.0-3.0-1.46","subject_id":"5fadb808fad6ff17f4be06dc","study_id":"606233c0e42b980319b6a18e","session_id":"608838f582765c79d3da7406"},{"rt":4389.1750001348555,"stimulus":"img/power_cord.jpg","response":"y","image":"img/power_cord.jpg","old_or_new":"old","task":"recognition","trial_type":"image-keyboard-response","trial_index":97,"time_elapsed":258279,"internal_node_id":"0.0-3.0-0.47","subject_id":"5fadb808fad6ff17f4be06dc","study_id":"606233c0e42b980319b6a18e","session_id":"608838f582765c79d3da7406","correct":true},{"rt":1249.125000089407,"stimulus":"\n      <p>How sure are you?</p>\n      <p>Rate your confidence in your answer from 1 (pure guess) to 5 (very sure) by pressing the corresponding button.</p>\n     ","response":3,"image":"img/power_cord.jpg","task":"confidence","old_or_new":"old","trial_type":"html-button-response","trial_index":98,"time_elapsed":259530,"internal_node_id":"0.0-3.0-1.47","subject_id":"5fadb808fad6ff17f4be06dc","study_id":"606233c0e42b980319b6a18e","session_id":"608838f582765c79d3da7406"}]