[{"success":true,"timeout":false,"failed_images":[],"failed_audio":[],"failed_video":[],"trial_type":"preload","trial_index":0,"time_elapsed":5308,"internal_node_id":"0.0-0.0","subject_id":"5f6252507d0bc62882fb9e07","study_id":"606233c0e42b980319b6a18e","session_id":"6088418ca3d1ae746654f73a"},{"rt":14535.704999929294,"stimulus":"\n      <div style=\"width:800px; text-align: left;\">\n        <p>Welcome to day 2 of the experiment! Thanks for coming back.</p>\n        <p>You will be presented with a series of images. Images will appear one at a time.</p>\n        <p>Each image will remain on the screen until you press either <span style=\"font-weight: bold;\">\"y\" to indicate you have seen the \n        exact same photo the day before or \"n\" to indicate you have not seen the exact same photo the day before.</span></p>\n        <p>After you answer yes (\"y\") or no (\"n\"), you will then be prompted to rate your certainty on a scale of\n        1 (pure guess) to 5 (very sure).</p>\n      </div>\n    ","response":0,"trial_type":"html-button-response","trial_index":1,"time_elapsed":19845,"internal_node_id":"0.0-1.0","subject_id":"5f6252507d0bc62882fb9e07","study_id":"606233c0e42b980319b6a18e","session_id":"6088418ca3d1ae746654f73a"},{"success":true,"trial_type":"fullscreen","trial_index":2,"time_elapsed":23385,"internal_node_id":"0.0-2.0","subject_id":"5f6252507d0bc62882fb9e07","study_id":"606233c0e42b980319b6a18e","session_id":"6088418ca3d1ae746654f73a"},{"rt":6501.1699999449775,"stimulus":"img/scissors_alternate.jpg","response":"y","image":"img/scissors_alternate.jpg","old_or_new":"new","task":"recognition","trial_type":"image-keyboard-response","trial_index":3,"time_elapsed":29895,"internal_node_id":"0.0-3.0-0.0","subject_id":"5f6252507d0bc62882fb9e07","study_id":"606233c0e42b980319b6a18e","session_id":"6088418ca3d1ae746654f73a","correct":false},{"rt":7500.910000060685,"stimulus":"\n      <p>How sure are you?</p>\n      <p>Rate your confidence in your answer from 1 (pure guess) to 5 (very sure) by pressing the corresponding button.</p>\n     ","response":4,"image":"img/scissors_alternate.jpg","task":"confidence","old_or_new":"new","trial_type":"html-button-response","trial_index":4,"time_elapsed":37396,"internal_node_id":"0.0-3.0-1.0","subject_id":"5f6252507d0bc62882fb9e07","study_id":"606233c0e42b980319b6a18e","session_id":"6088418ca3d1ae746654f73a"},{"rt":1027.3349999915808,"stimulus":"img/pencil_sharpener.jpg","response":"y","image":"img/pencil_sharpener.jpg","old_or_new":"old","task":"recognition","trial_type":"image-keyboard-response","trial_index":5,"time_elapsed":38928,"internal_node_id":"0.0-3.0-0.1","subject_id":"5f6252507d0bc62882fb9e07","study_id":"606233c0e42b980319b6a18e","session_id":"6088418ca3d1ae746654f73a","correct":true},{"rt":1548.4449999639764,"stimulus":"\n      <p>How sure are you?</p>\n      <p>Rate your confidence in your answer from 1 (pure guess) to 5 (very sure) by pressing the corresponding button.</p>\n     ","response":4,"image":"img/pencil_sharpener.jpg","task":"confidence","old_or_new":"old","trial_type":"html-button-response","trial_index":6,"time_elapsed":40478,"internal_node_id":"0.0-3.0-1.1","subject_id":"5f6252507d0bc62882fb9e07","study_id":"606233c0e42b980319b6a18e","session_id":"6088418ca3d1ae746654f73a"},{"rt":1655.860000057146,"stimulus":"img/pencil_sharpener_alternate.jpg","response":"n","image":"img/pencil_sharpener_alternate.jpg","old_or_new":"new","task":"recognition","trial_type":"image-keyboard-response","trial_index":7,"time_elapsed":42637,"internal_node_id":"0.0-3.0-0.2","subject_id":"5f6252507d0bc62882fb9e07","study_id":"606233c0e42b980319b6a18e","session_id":"6088418ca3d1ae746654f73a","correct":true},{"rt":1086.5149999735877,"stimulus":"\n      <p>How sure are you?</p>\n      <p>Rate your confidence in your answer from 1 (pure guess) to 5 (very sure) by pressing the corresponding button.</p>\n     ","response":4,"image":"img/pencil_sharpener_alternate.jpg","task":"confidence","old_or_new":"new","trial_type":"html-button-response","trial_index":8,"time_elapsed":43725,"internal_node_id":"0.0-3.0-1.2","subject_id":"5f6252507d0bc62882fb9e07","study_id":"606233c0e42b980319b6a18e","session_id":"6088418ca3d1ae746654f73a"},{"rt":1659.624999971129,"stimulus":"img/skates_alternate.jpg","response":"n","image":"img/skates_alternate.jpg","old_or_new":"new","task":"recognition","trial_type":"image-keyboard-response","trial_index":9,"time_elapsed":45887,"internal_node_id":"0.0-3.0-0.3","subject_id":"5f6252507d0bc62882fb9e07","study_id":"606233c0e42b980319b6a18e","session_id":"6088418ca3d1ae746654f73a","correct":true},{"rt":576.4700000872836,"stimulus":"\n      <p>How sure are you?</p>\n      <p>Rate your confidence in your answer from 1 (pure guess) to 5 (very sure) by pressing the corresponding button.</p>\n     ","response":4,"image":"img/skates_alternate.jpg","task":"confidence","old_or_new":"new","trial_type":"html-button-response","trial_index":10,"time_elapsed":46464,"internal_node_id":"0.0-3.0-1.3","subject_id":"5f6252507d0bc62882fb9e07","study_id":"606233c0e42b980319b6a18e","session_id":"6088418ca3d1ae746654f73a"},{"rt":1367.8849999560043,"stimulus":"img/parfait_alternate.jpg","response":"y","image":"img/parfait_alternate.jpg","old_or_new":"new","task":"recognition","trial_type":"image-keyboard-response","trial_index":11,"time_elapsed":48334,"internal_node_id":"0.0-3.0-0.4","subject_id":"5f6252507d0bc62882fb9e07","study_id":"606233c0e42b980319b6a18e","session_id":"6088418ca3d1ae746654f73a","correct":false},{"rt":1043.3350000530481,"stimulus":"\n      <p>How sure are you?</p>\n      <p>Rate your confidence in your answer from 1 (pure guess) to 5 (very sure) by pressing the corresponding button.</p>\n     ","response":4,"image":"img/parfait_alternate.jpg","task":"confidence","old_or_new":"new","trial_type":"html-button-response","trial_index":12,"time_elapsed":49378,"internal_node_id":"0.0-3.0-1.4","subject_id":"5f6252507d0bc62882fb9e07","study_id":"606233c0e42b980319b6a18e","session_id":"6088418ca3d1ae746654f73a"},{"rt":848.4750000061467,"stimulus":"img/knife.jpg","response":"y","image":"img/knife.jpg","old_or_new":"old","task":"recognition","trial_type":"image-keyboard-response","trial_index":13,"time_elapsed":50728,"internal_node_id":"0.0-3.0-0.5","subject_id":"5f6252507d0bc62882fb9e07","study_id":"606233c0e42b980319b6a18e","session_id":"6088418ca3d1ae746654f73a","correct":true},{"rt":922.1200000029057,"stimulus":"\n      <p>How sure are you?</p>\n      <p>Rate your confidence in your answer from 1 (pure guess) to 5 (very sure) by pressing the corresponding button.</p>\n     ","response":4,"image":"img/knife.jpg","task":"confidence","old_or_new":"old","trial_type":"html-button-response","trial_index":14,"time_elapsed":51651,"internal_node_id":"0.0-3.0-1.5","subject_id":"5f6252507d0bc62882fb9e07","study_id":"606233c0e42b980319b6a18e","session_id":"6088418ca3d1ae746654f73a"},{"rt":1116.7800000403076,"stimulus":"img/rolling_pin_alternate.jpg","response":"n","image":"img/rolling_pin_alternate.jpg","old_or_new":"new","task":"recognition","trial_type":"image-keyboard-response","trial_index":15,"time_elapsed":53268,"internal_node_id":"0.0-3.0-0.6","subject_id":"5f6252507d0bc62882fb9e07","study_id":"606233c0e42b980319b6a18e","session_id":"6088418ca3d1ae746654f73a","correct":true},{"rt":539.3449999392033,"stimulus":"\n      <p>How sure are you?</p>\n      <p>Rate your confidence in your answer from 1 (pure guess) to 5 (very sure) by pressing the corresponding button.</p>\n     ","response":4,"image":"img/rolling_pin_alternate.jpg","task":"confidence","old_or_new":"new","trial_type":"html-button-response","trial_index":16,"time_elapsed":53808,"internal_node_id":"0.0-3.0-1.6","subject_id":"5f6252507d0bc62882fb9e07","study_id":"606233c0e42b980319b6a18e","session_id":"6088418ca3d1ae746654f73a"},{"rt":1586.369999917224,"stimulus":"img/parfait.jpg","response":"n","image":"img/parfait.jpg","old_or_new":"old","task":"recognition","trial_type":"image-keyboard-response","trial_index":17,"time_elapsed":55897,"internal_node_id":"0.0-3.0-0.7","subject_id":"5f6252507d0bc62882fb9e07","study_id":"606233c0e42b980319b6a18e","session_id":"6088418ca3d1ae746654f73a","correct":false},{"rt":694.4650000659749,"stimulus":"\n      <p>How sure are you?</p>\n      <p>Rate your confidence in your answer from 1 (pure guess) to 5 (very sure) by pressing the corresponding button.</p>\n     ","response":4,"image":"img/parfait.jpg","task":"confidence","old_or_new":"old","trial_type":"html-button-response","trial_index":18,"time_elapsed":56592,"internal_node_id":"0.0-3.0-1.7","subject_id":"5f6252507d0bc62882fb9e07","study_id":"606233c0e42b980319b6a18e","session_id":"6088418ca3d1ae746654f73a"},{"rt":2070.300000021234,"stimulus":"img/toaster_alternate.jpg","response":"n","image":"img/toaster_alternate.jpg","old_or_new":"new","task":"recognition","trial_type":"image-keyboard-response","trial_index":19,"time_elapsed":59164,"internal_node_id":"0.0-3.0-0.8","subject_id":"5f6252507d0bc62882fb9e07","study_id":"606233c0e42b980319b6a18e","session_id":"6088418ca3d1ae746654f73a","correct":true},{"rt":546.3750000344589,"stimulus":"\n      <p>How sure are you?</p>\n      <p>Rate your confidence in your answer from 1 (pure guess) to 5 (very sure) by pressing the corresponding button.</p>\n     ","response":4,"image":"img/toaster_alternate.jpg","task":"confidence","old_or_new":"new","trial_type":"html-button-response","trial_index":20,"time_elapsed":59711,"internal_node_id":"0.0-3.0-1.8","subject_id":"5f6252507d0bc62882fb9e07","study_id":"606233c0e42b980319b6a18e","session_id":"6088418ca3d1ae746654f73a"},{"rt":684.6200000727549,"stimulus":"img/plate.jpg","response":"n","image":"img/plate.jpg","old_or_new":"old","task":"recognition","trial_type":"image-keyboard-response","trial_index":21,"time_elapsed":60898,"internal_node_id":"0.0-3.0-0.9","subject_id":"5f6252507d0bc62882fb9e07","study_id":"606233c0e42b980319b6a18e","session_id":"6088418ca3d1ae746654f73a","correct":false},{"rt":463.2649999111891,"stimulus":"\n      <p>How sure are you?</p>\n      <p>Rate your confidence in your answer from 1 (pure guess) to 5 (very sure) by pressing the corresponding button.</p>\n     ","response":4,"image":"img/plate.jpg","task":"confidence","old_or_new":"old","trial_type":"html-button-response","trial_index":22,"time_elapsed":61362,"internal_node_id":"0.0-3.0-1.9","subject_id":"5f6252507d0bc62882fb9e07","study_id":"606233c0e42b980319b6a18e","session_id":"6088418ca3d1ae746654f73a"},{"rt":702.555000083521,"stimulus":"img/knife_alternate.jpg","response":"n","image":"img/knife_alternate.jpg","old_or_new":"new","task":"recognition","trial_type":"image-keyboard-response","trial_index":23,"time_elapsed":62566,"internal_node_id":"0.0-3.0-0.10","subject_id":"5f6252507d0bc62882fb9e07","study_id":"606233c0e42b980319b6a18e","session_id":"6088418ca3d1ae746654f73a","correct":true},{"rt":449.5900000911206,"stimulus":"\n      <p>How sure are you?</p>\n      <p>Rate your confidence in your answer from 1 (pure guess) to 5 (very sure) by pressing the corresponding button.</p>\n     ","response":4,"image":"img/knife_alternate.jpg","task":"confidence","old_or_new":"new","trial_type":"html-button-response","trial_index":24,"time_elapsed":63016,"internal_node_id":"0.0-3.0-1.10","subject_id":"5f6252507d0bc62882fb9e07","study_id":"606233c0e42b980319b6a18e","session_id":"6088418ca3d1ae746654f73a"},{"rt":1710.010000038892,"stimulus":"img/power_cord.jpg","response":"y","image":"img/power_cord.jpg","old_or_new":"old","task":"recognition","trial_type":"image-keyboard-response","trial_index":25,"time_elapsed":65228,"internal_node_id":"0.0-3.0-0.11","subject_id":"5f6252507d0bc62882fb9e07","study_id":"606233c0e42b980319b6a18e","session_id":"6088418ca3d1ae746654f73a","correct":true},{"rt":830.8149999938905,"stimulus":"\n      <p>How sure are you?</p>\n      <p>Rate your confidence in your answer from 1 (pure guess) to 5 (very sure) by pressing the corresponding button.</p>\n     ","response":2,"image":"img/power_cord.jpg","task":"confidence","old_or_new":"old","trial_type":"html-button-response","trial_index":26,"time_elapsed":66059,"internal_node_id":"0.0-3.0-1.11","subject_id":"5f6252507d0bc62882fb9e07","study_id":"606233c0e42b980319b6a18e","session_id":"6088418ca3d1ae746654f73a"},{"rt":687.0799999451265,"stimulus":"img/pizza_alternate.jpg","response":"y","image":"img/pizza_alternate.jpg","old_or_new":"new","task":"recognition","trial_type":"image-keyboard-response","trial_index":27,"time_elapsed":67248,"internal_node_id":"0.0-3.0-0.12","subject_id":"5f6252507d0bc62882fb9e07","study_id":"606233c0e42b980319b6a18e","session_id":"6088418ca3d1ae746654f73a","correct":false},{"rt":2530.5849999422207,"stimulus":"\n      <p>How sure are you?</p>\n      <p>Rate your confidence in your answer from 1 (pure guess) to 5 (very sure) by pressing the corresponding button.</p>\n     ","response":0,"image":"img/pizza_alternate.jpg","task":"confidence","old_or_new":"new","trial_type":"html-button-response","trial_index":28,"time_elapsed":69780,"internal_node_id":"0.0-3.0-1.12","subject_id":"5f6252507d0bc62882fb9e07","study_id":"606233c0e42b980319b6a18e","session_id":"6088418ca3d1ae746654f73a"},{"rt":717.7849999861792,"stimulus":"img/seashell.jpg","response":"y","image":"img/seashell.jpg","old_or_new":"old","task":"recognition","trial_type":"image-keyboard-response","trial_index":29,"time_elapsed":70999,"internal_node_id":"0.0-3.0-0.13","subject_id":"5f6252507d0bc62882fb9e07","study_id":"606233c0e42b980319b6a18e","session_id":"6088418ca3d1ae746654f73a","correct":true},{"rt":612.5100000062957,"stimulus":"\n      <p>How sure are you?</p>\n      <p>Rate your confidence in your answer from 1 (pure guess) to 5 (very sure) by pressing the corresponding button.</p>\n     ","response":4,"image":"img/seashell.jpg","task":"confidence","old_or_new":"old","trial_type":"html-button-response","trial_index":30,"time_elapsed":71613,"internal_node_id":"0.0-3.0-1.13","subject_id":"5f6252507d0bc62882fb9e07","study_id":"606233c0e42b980319b6a18e","session_id":"6088418ca3d1ae746654f73a"},{"rt":675.1699999440461,"stimulus":"img/shovel_alternate.jpg","response":"n","image":"img/shovel_alternate.jpg","old_or_new":"new","task":"recognition","trial_type":"image-keyboard-response","trial_index":31,"time_elapsed":72797,"internal_node_id":"0.0-3.0-0.14","subject_id":"5f6252507d0bc62882fb9e07","study_id":"606233c0e42b980319b6a18e","session_id":"6088418ca3d1ae746654f73a","correct":true},{"rt":526.5349999535829,"stimulus":"\n      <p>How sure are you?</p>\n      <p>Rate your confidence in your answer from 1 (pure guess) to 5 (very sure) by pressing the corresponding button.</p>\n     ","response":4,"image":"img/shovel_alternate.jpg","task":"confidence","old_or_new":"new","trial_type":"html-button-response","trial_index":32,"time_elapsed":73325,"internal_node_id":"0.0-3.0-1.14","subject_id":"5f6252507d0bc62882fb9e07","study_id":"606233c0e42b980319b6a18e","session_id":"6088418ca3d1ae746654f73a"},{"rt":657.1250000270084,"stimulus":"img/spoon_alternate.jpg","response":"n","image":"img/spoon_alternate.jpg","old_or_new":"new","task":"recognition","trial_type":"image-keyboard-response","trial_index":33,"time_elapsed":74484,"internal_node_id":"0.0-3.0-0.15","subject_id":"5f6252507d0bc62882fb9e07","study_id":"606233c0e42b980319b6a18e","session_id":"6088418ca3d1ae746654f73a","correct":true},{"rt":568.2099999394268,"stimulus":"\n      <p>How sure are you?</p>\n      <p>Rate your confidence in your answer from 1 (pure guess) to 5 (very sure) by pressing the corresponding button.</p>\n     ","response":4,"image":"img/spoon_alternate.jpg","task":"confidence","old_or_new":"new","trial_type":"html-button-response","trial_index":34,"time_elapsed":75052,"internal_node_id":"0.0-3.0-1.15","subject_id":"5f6252507d0bc62882fb9e07","study_id":"606233c0e42b980319b6a18e","session_id":"6088418ca3d1ae746654f73a"},{"rt":584.0149999130517,"stimulus":"img/toothbrush_alternate.jpg","response":"n","image":"img/toothbrush_alternate.jpg","old_or_new":"new","task":"recognition","trial_type":"image-keyboard-response","trial_index":35,"time_elapsed":76138,"internal_node_id":"0.0-3.0-0.16","subject_id":"5f6252507d0bc62882fb9e07","study_id":"606233c0e42b980319b6a18e","session_id":"6088418ca3d1ae746654f73a","correct":true},{"rt":690.6099999323487,"stimulus":"\n      <p>How sure are you?</p>\n      <p>Rate your confidence in your answer from 1 (pure guess) to 5 (very sure) by pressing the corresponding button.</p>\n     ","response":4,"image":"img/toothbrush_alternate.jpg","task":"confidence","old_or_new":"new","trial_type":"html-button-response","trial_index":36,"time_elapsed":76830,"internal_node_id":"0.0-3.0-1.16","subject_id":"5f6252507d0bc62882fb9e07","study_id":"606233c0e42b980319b6a18e","session_id":"6088418ca3d1ae746654f73a"},{"rt":553.4650000045076,"stimulus":"img/yarn.jpg","response":"y","image":"img/yarn.jpg","old_or_new":"old","task":"recognition","trial_type":"image-keyboard-response","trial_index":37,"time_elapsed":77885,"internal_node_id":"0.0-3.0-0.17","subject_id":"5f6252507d0bc62882fb9e07","study_id":"606233c0e42b980319b6a18e","session_id":"6088418ca3d1ae746654f73a","correct":true},{"rt":488.1250000325963,"stimulus":"\n      <p>How sure are you?</p>\n      <p>Rate your confidence in your answer from 1 (pure guess) to 5 (very sure) by pressing the corresponding button.</p>\n     ","response":4,"image":"img/yarn.jpg","task":"confidence","old_or_new":"old","trial_type":"html-button-response","trial_index":38,"time_elapsed":78374,"internal_node_id":"0.0-3.0-1.17","subject_id":"5f6252507d0bc62882fb9e07","study_id":"606233c0e42b980319b6a18e","session_id":"6088418ca3d1ae746654f73a"},{"rt":888.63499998115,"stimulus":"img/power_cord_alternate.jpg","response":"n","image":"img/power_cord_alternate.jpg","old_or_new":"new","task":"recognition","trial_type":"image-keyboard-response","trial_index":39,"time_elapsed":79765,"internal_node_id":"0.0-3.0-0.18","subject_id":"5f6252507d0bc62882fb9e07","study_id":"606233c0e42b980319b6a18e","session_id":"6088418ca3d1ae746654f73a","correct":true},{"rt":452.3199999239296,"stimulus":"\n      <p>How sure are you?</p>\n      <p>Rate your confidence in your answer from 1 (pure guess) to 5 (very sure) by pressing the corresponding button.</p>\n     ","response":4,"image":"img/power_cord_alternate.jpg","task":"confidence","old_or_new":"new","trial_type":"html-button-response","trial_index":40,"time_elapsed":80218,"internal_node_id":"0.0-3.0-1.18","subject_id":"5f6252507d0bc62882fb9e07","study_id":"606233c0e42b980319b6a18e","session_id":"6088418ca3d1ae746654f73a"},{"rt":640.224999981001,"stimulus":"img/seashell_alternate.jpg","response":"n","image":"img/seashell_alternate.jpg","old_or_new":"new","task":"recognition","trial_type":"image-keyboard-response","trial_index":41,"time_elapsed":81360,"internal_node_id":"0.0-3.0-0.19","subject_id":"5f6252507d0bc62882fb9e07","study_id":"606233c0e42b980319b6a18e","session_id":"6088418ca3d1ae746654f73a","correct":true},{"rt":450.17500000540167,"stimulus":"\n      <p>How sure are you?</p>\n      <p>Rate your confidence in your answer from 1 (pure guess) to 5 (very sure) by pressing the corresponding button.</p>\n     ","response":4,"image":"img/seashell_alternate.jpg","task":"confidence","old_or_new":"new","trial_type":"html-button-response","trial_index":42,"time_elapsed":81811,"internal_node_id":"0.0-3.0-1.19","subject_id":"5f6252507d0bc62882fb9e07","study_id":"606233c0e42b980319b6a18e","session_id":"6088418ca3d1ae746654f73a"},{"rt":1033.0449999310076,"stimulus":"img/tv.jpg","response":"y","image":"img/tv.jpg","old_or_new":"old","task":"recognition","trial_type":"image-keyboard-response","trial_index":43,"time_elapsed":83346,"internal_node_id":"0.0-3.0-0.20","subject_id":"5f6252507d0bc62882fb9e07","study_id":"606233c0e42b980319b6a18e","session_id":"6088418ca3d1ae746654f73a","correct":true},{"rt":465.62999999150634,"stimulus":"\n      <p>How sure are you?</p>\n      <p>Rate your confidence in your answer from 1 (pure guess) to 5 (very sure) by pressing the corresponding button.</p>\n     ","response":4,"image":"img/tv.jpg","task":"confidence","old_or_new":"old","trial_type":"html-button-response","trial_index":44,"time_elapsed":83813,"internal_node_id":"0.0-3.0-1.20","subject_id":"5f6252507d0bc62882fb9e07","study_id":"606233c0e42b980319b6a18e","session_id":"6088418ca3d1ae746654f73a"},{"rt":618.1599999545142,"stimulus":"img/plane.jpg","response":"n","image":"img/plane.jpg","old_or_new":"old","task":"recognition","trial_type":"image-keyboard-response","trial_index":45,"time_elapsed":84940,"internal_node_id":"0.0-3.0-0.21","subject_id":"5f6252507d0bc62882fb9e07","study_id":"606233c0e42b980319b6a18e","session_id":"6088418ca3d1ae746654f73a","correct":false},{"rt":427.434999961406,"stimulus":"\n      <p>How sure are you?</p>\n      <p>Rate your confidence in your answer from 1 (pure guess) to 5 (very sure) by pressing the corresponding button.</p>\n     ","response":4,"image":"img/plane.jpg","task":"confidence","old_or_new":"old","trial_type":"html-button-response","trial_index":46,"time_elapsed":85368,"internal_node_id":"0.0-3.0-1.21","subject_id":"5f6252507d0bc62882fb9e07","study_id":"606233c0e42b980319b6a18e","session_id":"6088418ca3d1ae746654f73a"},{"rt":620.6800000509247,"stimulus":"img/plate_alternate.jpg","response":"n","image":"img/plate_alternate.jpg","old_or_new":"new","task":"recognition","trial_type":"image-keyboard-response","trial_index":47,"time_elapsed":86491,"internal_node_id":"0.0-3.0-0.22","subject_id":"5f6252507d0bc62882fb9e07","study_id":"606233c0e42b980319b6a18e","session_id":"6088418ca3d1ae746654f73a","correct":true},{"rt":430.19500002264977,"stimulus":"\n      <p>How sure are you?</p>\n      <p>Rate your confidence in your answer from 1 (pure guess) to 5 (very sure) by pressing the corresponding button.</p>\n     ","response":4,"image":"img/plate_alternate.jpg","task":"confidence","old_or_new":"new","trial_type":"html-button-response","trial_index":48,"time_elapsed":86921,"internal_node_id":"0.0-3.0-1.22","subject_id":"5f6252507d0bc62882fb9e07","study_id":"606233c0e42b980319b6a18e","session_id":"6088418ca3d1ae746654f73a"},{"rt":933.6499999044463,"stimulus":"img/pizza.jpg","response":"y","image":"img/pizza.jpg","old_or_new":"old","task":"recognition","trial_type":"image-keyboard-response","trial_index":49,"time_elapsed":88357,"internal_node_id":"0.0-3.0-0.23","subject_id":"5f6252507d0bc62882fb9e07","study_id":"606233c0e42b980319b6a18e","session_id":"6088418ca3d1ae746654f73a","correct":true},{"rt":537.8100000089034,"stimulus":"\n      <p>How sure are you?</p>\n      <p>Rate your confidence in your answer from 1 (pure guess) to 5 (very sure) by pressing the corresponding button.</p>\n     ","response":4,"image":"img/pizza.jpg","task":"confidence","old_or_new":"old","trial_type":"html-button-response","trial_index":50,"time_elapsed":88896,"internal_node_id":"0.0-3.0-1.23","subject_id":"5f6252507d0bc62882fb9e07","study_id":"606233c0e42b980319b6a18e","session_id":"6088418ca3d1ae746654f73a"},{"rt":1138.4950000792742,"stimulus":"img/watch.jpg","response":"y","image":"img/watch.jpg","old_or_new":"old","task":"recognition","trial_type":"image-keyboard-response","trial_index":51,"time_elapsed":90536,"internal_node_id":"0.0-3.0-0.24","subject_id":"5f6252507d0bc62882fb9e07","study_id":"606233c0e42b980319b6a18e","session_id":"6088418ca3d1ae746654f73a","correct":true},{"rt":446.5499999932945,"stimulus":"\n      <p>How sure are you?</p>\n      <p>Rate your confidence in your answer from 1 (pure guess) to 5 (very sure) by pressing the corresponding button.</p>\n     ","response":4,"image":"img/watch.jpg","task":"confidence","old_or_new":"old","trial_type":"html-button-response","trial_index":52,"time_elapsed":90984,"internal_node_id":"0.0-3.0-1.24","subject_id":"5f6252507d0bc62882fb9e07","study_id":"606233c0e42b980319b6a18e","session_id":"6088418ca3d1ae746654f73a"},{"rt":551.659999997355,"stimulus":"img/plane_alternate.jpg","response":"n","image":"img/plane_alternate.jpg","old_or_new":"new","task":"recognition","trial_type":"image-keyboard-response","trial_index":53,"time_elapsed":92038,"internal_node_id":"0.0-3.0-0.25","subject_id":"5f6252507d0bc62882fb9e07","study_id":"606233c0e42b980319b6a18e","session_id":"6088418ca3d1ae746654f73a","correct":true},{"rt":720.0599999632686,"stimulus":"\n      <p>How sure are you?</p>\n      <p>Rate your confidence in your answer from 1 (pure guess) to 5 (very sure) by pressing the corresponding button.</p>\n     ","response":4,"image":"img/plane_alternate.jpg","task":"confidence","old_or_new":"new","trial_type":"html-button-response","trial_index":54,"time_elapsed":92758,"internal_node_id":"0.0-3.0-1.25","subject_id":"5f6252507d0bc62882fb9e07","study_id":"606233c0e42b980319b6a18e","session_id":"6088418ca3d1ae746654f73a"},{"rt":733.6649999488145,"stimulus":"img/scissors.jpg","response":"n","image":"img/scissors.jpg","old_or_new":"old","task":"recognition","trial_type":"image-keyboard-response","trial_index":55,"time_elapsed":93993,"internal_node_id":"0.0-3.0-0.26","subject_id":"5f6252507d0bc62882fb9e07","study_id":"606233c0e42b980319b6a18e","session_id":"6088418ca3d1ae746654f73a","correct":false},{"rt":811.6450000088662,"stimulus":"\n      <p>How sure are you?</p>\n      <p>Rate your confidence in your answer from 1 (pure guess) to 5 (very sure) by pressing the corresponding button.</p>\n     ","response":4,"image":"img/scissors.jpg","task":"confidence","old_or_new":"old","trial_type":"html-button-response","trial_index":56,"time_elapsed":94806,"internal_node_id":"0.0-3.0-1.26","subject_id":"5f6252507d0bc62882fb9e07","study_id":"606233c0e42b980319b6a18e","session_id":"6088418ca3d1ae746654f73a"},{"rt":1042.189999949187,"stimulus":"img/shirt_alternate.jpg","response":"n","image":"img/shirt_alternate.jpg","old_or_new":"new","task":"recognition","trial_type":"image-keyboard-response","trial_index":57,"time_elapsed":96352,"internal_node_id":"0.0-3.0-0.27","subject_id":"5f6252507d0bc62882fb9e07","study_id":"606233c0e42b980319b6a18e","session_id":"6088418ca3d1ae746654f73a","correct":true},{"rt":468.4849999612197,"stimulus":"\n      <p>How sure are you?</p>\n      <p>Rate your confidence in your answer from 1 (pure guess) to 5 (very sure) by pressing the corresponding button.</p>\n     ","response":4,"image":"img/shirt_alternate.jpg","task":"confidence","old_or_new":"new","trial_type":"html-button-response","trial_index":58,"time_elapsed":96822,"internal_node_id":"0.0-3.0-1.27","subject_id":"5f6252507d0bc62882fb9e07","study_id":"606233c0e42b980319b6a18e","session_id":"6088418ca3d1ae746654f73a"},{"rt":758.680000086315,"stimulus":"img/wheel_barrow_alternate.jpg","response":"n","image":"img/wheel_barrow_alternate.jpg","old_or_new":"new","task":"recognition","trial_type":"image-keyboard-response","trial_index":59,"time_elapsed":98082,"internal_node_id":"0.0-3.0-0.28","subject_id":"5f6252507d0bc62882fb9e07","study_id":"606233c0e42b980319b6a18e","session_id":"6088418ca3d1ae746654f73a","correct":true},{"rt":401.27000003121793,"stimulus":"\n      <p>How sure are you?</p>\n      <p>Rate your confidence in your answer from 1 (pure guess) to 5 (very sure) by pressing the corresponding button.</p>\n     ","response":4,"image":"img/wheel_barrow_alternate.jpg","task":"confidence","old_or_new":"new","trial_type":"html-button-response","trial_index":60,"time_elapsed":98485,"internal_node_id":"0.0-3.0-1.28","subject_id":"5f6252507d0bc62882fb9e07","study_id":"606233c0e42b980319b6a18e","session_id":"6088418ca3d1ae746654f73a"},{"rt":681.8900000071153,"stimulus":"img/shovel.jpg","response":"n","image":"img/shovel.jpg","old_or_new":"old","task":"recognition","trial_type":"image-keyboard-response","trial_index":61,"time_elapsed":99669,"internal_node_id":"0.0-3.0-0.29","subject_id":"5f6252507d0bc62882fb9e07","study_id":"606233c0e42b980319b6a18e","session_id":"6088418ca3d1ae746654f73a","correct":false},{"rt":457.26499997545034,"stimulus":"\n      <p>How sure are you?</p>\n      <p>Rate your confidence in your answer from 1 (pure guess) to 5 (very sure) by pressing the corresponding button.</p>\n     ","response":4,"image":"img/shovel.jpg","task":"confidence","old_or_new":"old","trial_type":"html-button-response","trial_index":62,"time_elapsed":100127,"internal_node_id":"0.0-3.0-1.29","subject_id":"5f6252507d0bc62882fb9e07","study_id":"606233c0e42b980319b6a18e","session_id":"6088418ca3d1ae746654f73a"},{"rt":614.2250000266358,"stimulus":"img/spoon.jpg","response":"n","image":"img/spoon.jpg","old_or_new":"old","task":"recognition","trial_type":"image-keyboard-response","trial_index":63,"time_elapsed":101243,"internal_node_id":"0.0-3.0-0.30","subject_id":"5f6252507d0bc62882fb9e07","study_id":"606233c0e42b980319b6a18e","session_id":"6088418ca3d1ae746654f73a","correct":false},{"rt":440.6500000040978,"stimulus":"\n      <p>How sure are you?</p>\n      <p>Rate your confidence in your answer from 1 (pure guess) to 5 (very sure) by pressing the corresponding button.</p>\n     ","response":4,"image":"img/spoon.jpg","task":"confidence","old_or_new":"old","trial_type":"html-button-response","trial_index":64,"time_elapsed":101684,"internal_node_id":"0.0-3.0-1.30","subject_id":"5f6252507d0bc62882fb9e07","study_id":"606233c0e42b980319b6a18e","session_id":"6088418ca3d1ae746654f73a"},{"rt":731.3800000119954,"stimulus":"img/shoe_alternate.jpg","response":"n","image":"img/shoe_alternate.jpg","old_or_new":"new","task":"recognition","trial_type":"image-keyboard-response","trial_index":65,"time_elapsed":102917,"internal_node_id":"0.0-3.0-0.31","subject_id":"5f6252507d0bc62882fb9e07","study_id":"606233c0e42b980319b6a18e","session_id":"6088418ca3d1ae746654f73a","correct":true},{"rt":681.5550000173971,"stimulus":"\n      <p>How sure are you?</p>\n      <p>Rate your confidence in your answer from 1 (pure guess) to 5 (very sure) by pressing the corresponding button.</p>\n     ","response":4,"image":"img/shoe_alternate.jpg","task":"confidence","old_or_new":"new","trial_type":"html-button-response","trial_index":66,"time_elapsed":103599,"internal_node_id":"0.0-3.0-1.31","subject_id":"5f6252507d0bc62882fb9e07","study_id":"606233c0e42b980319b6a18e","session_id":"6088418ca3d1ae746654f73a"},{"rt":592.3950000433251,"stimulus":"img/wheel_barrow.jpg","response":"n","image":"img/wheel_barrow.jpg","old_or_new":"old","task":"recognition","trial_type":"image-keyboard-response","trial_index":67,"time_elapsed":104693,"internal_node_id":"0.0-3.0-0.32","subject_id":"5f6252507d0bc62882fb9e07","study_id":"606233c0e42b980319b6a18e","session_id":"6088418ca3d1ae746654f73a","correct":false},{"rt":474.48999993503094,"stimulus":"\n      <p>How sure are you?</p>\n      <p>Rate your confidence in your answer from 1 (pure guess) to 5 (very sure) by pressing the corresponding button.</p>\n     ","response":4,"image":"img/wheel_barrow.jpg","task":"confidence","old_or_new":"old","trial_type":"html-button-response","trial_index":68,"time_elapsed":105169,"internal_node_id":"0.0-3.0-1.32","subject_id":"5f6252507d0bc62882fb9e07","study_id":"606233c0e42b980319b6a18e","session_id":"6088418ca3d1ae746654f73a"},{"rt":976.3750000856817,"stimulus":"img/umbrella.jpg","response":"y","image":"img/umbrella.jpg","old_or_new":"old","task":"recognition","trial_type":"image-keyboard-response","trial_index":69,"time_elapsed":106648,"internal_node_id":"0.0-3.0-0.33","subject_id":"5f6252507d0bc62882fb9e07","study_id":"606233c0e42b980319b6a18e","session_id":"6088418ca3d1ae746654f73a","correct":true},{"rt":767.5550000276417,"stimulus":"\n      <p>How sure are you?</p>\n      <p>Rate your confidence in your answer from 1 (pure guess) to 5 (very sure) by pressing the corresponding button.</p>\n     ","response":2,"image":"img/umbrella.jpg","task":"confidence","old_or_new":"old","trial_type":"html-button-response","trial_index":70,"time_elapsed":107418,"internal_node_id":"0.0-3.0-1.33","subject_id":"5f6252507d0bc62882fb9e07","study_id":"606233c0e42b980319b6a18e","session_id":"6088418ca3d1ae746654f73a"},{"rt":307.93499993160367,"stimulus":"img/sink_alternate.jpg","response":"y","image":"img/sink_alternate.jpg","old_or_new":"new","task":"recognition","trial_type":"image-keyboard-response","trial_index":71,"time_elapsed":108227,"internal_node_id":"0.0-3.0-0.34","subject_id":"5f6252507d0bc62882fb9e07","study_id":"606233c0e42b980319b6a18e","session_id":"6088418ca3d1ae746654f73a","correct":false},{"rt":482.9700000118464,"stimulus":"\n      <p>How sure are you?</p>\n      <p>Rate your confidence in your answer from 1 (pure guess) to 5 (very sure) by pressing the corresponding button.</p>\n     ","response":3,"image":"img/sink_alternate.jpg","task":"confidence","old_or_new":"new","trial_type":"html-button-response","trial_index":72,"time_elapsed":108711,"internal_node_id":"0.0-3.0-1.34","subject_id":"5f6252507d0bc62882fb9e07","study_id":"606233c0e42b980319b6a18e","session_id":"6088418ca3d1ae746654f73a"},{"rt":755.5399999255314,"stimulus":"img/shirt.jpg","response":"y","image":"img/shirt.jpg","old_or_new":"old","task":"recognition","trial_type":"image-keyboard-response","trial_index":73,"time_elapsed":109970,"internal_node_id":"0.0-3.0-0.35","subject_id":"5f6252507d0bc62882fb9e07","study_id":"606233c0e42b980319b6a18e","session_id":"6088418ca3d1ae746654f73a","correct":true},{"rt":691.4050000486895,"stimulus":"\n      <p>How sure are you?</p>\n      <p>Rate your confidence in your answer from 1 (pure guess) to 5 (very sure) by pressing the corresponding button.</p>\n     ","response":4,"image":"img/shirt.jpg","task":"confidence","old_or_new":"old","trial_type":"html-button-response","trial_index":74,"time_elapsed":110663,"internal_node_id":"0.0-3.0-1.35","subject_id":"5f6252507d0bc62882fb9e07","study_id":"606233c0e42b980319b6a18e","session_id":"6088418ca3d1ae746654f73a"},{"rt":778.5450000083074,"stimulus":"img/tv_alternate.jpg","response":"n","image":"img/tv_alternate.jpg","old_or_new":"new","task":"recognition","trial_type":"image-keyboard-response","trial_index":75,"time_elapsed":111942,"internal_node_id":"0.0-3.0-0.36","subject_id":"5f6252507d0bc62882fb9e07","study_id":"606233c0e42b980319b6a18e","session_id":"6088418ca3d1ae746654f73a","correct":true},{"rt":502.78500001877546,"stimulus":"\n      <p>How sure are you?</p>\n      <p>Rate your confidence in your answer from 1 (pure guess) to 5 (very sure) by pressing the corresponding button.</p>\n     ","response":4,"image":"img/tv_alternate.jpg","task":"confidence","old_or_new":"new","trial_type":"html-button-response","trial_index":76,"time_elapsed":112446,"internal_node_id":"0.0-3.0-1.36","subject_id":"5f6252507d0bc62882fb9e07","study_id":"606233c0e42b980319b6a18e","session_id":"6088418ca3d1ae746654f73a"},{"rt":518.2050000876188,"stimulus":"img/trophy.jpg","response":"n","image":"img/trophy.jpg","old_or_new":"old","task":"recognition","trial_type":"image-keyboard-response","trial_index":77,"time_elapsed":113466,"internal_node_id":"0.0-3.0-0.37","subject_id":"5f6252507d0bc62882fb9e07","study_id":"606233c0e42b980319b6a18e","session_id":"6088418ca3d1ae746654f73a","correct":false},{"rt":427.84000001847744,"stimulus":"\n      <p>How sure are you?</p>\n      <p>Rate your confidence in your answer from 1 (pure guess) to 5 (very sure) by pressing the corresponding button.</p>\n     ","response":4,"image":"img/trophy.jpg","task":"confidence","old_or_new":"old","trial_type":"html-button-response","trial_index":78,"time_elapsed":113895,"internal_node_id":"0.0-3.0-1.37","subject_id":"5f6252507d0bc62882fb9e07","study_id":"606233c0e42b980319b6a18e","session_id":"6088418ca3d1ae746654f73a"},{"rt":1132.2500000242144,"stimulus":"img/umbrella_alternate.jpg","response":"n","image":"img/umbrella_alternate.jpg","old_or_new":"new","task":"recognition","trial_type":"image-keyboard-response","trial_index":79,"time_elapsed":115530,"internal_node_id":"0.0-3.0-0.38","subject_id":"5f6252507d0bc62882fb9e07","study_id":"606233c0e42b980319b6a18e","session_id":"6088418ca3d1ae746654f73a","correct":true},{"rt":420.4500000923872,"stimulus":"\n      <p>How sure are you?</p>\n      <p>Rate your confidence in your answer from 1 (pure guess) to 5 (very sure) by pressing the corresponding button.</p>\n     ","response":4,"image":"img/umbrella_alternate.jpg","task":"confidence","old_or_new":"new","trial_type":"html-button-response","trial_index":80,"time_elapsed":115951,"internal_node_id":"0.0-3.0-1.38","subject_id":"5f6252507d0bc62882fb9e07","study_id":"606233c0e42b980319b6a18e","session_id":"6088418ca3d1ae746654f73a"},{"rt":584.3650000169873,"stimulus":"img/shoe.jpg","response":"n","image":"img/shoe.jpg","old_or_new":"old","task":"recognition","trial_type":"image-keyboard-response","trial_index":81,"time_elapsed":117038,"internal_node_id":"0.0-3.0-0.39","subject_id":"5f6252507d0bc62882fb9e07","study_id":"606233c0e42b980319b6a18e","session_id":"6088418ca3d1ae746654f73a","correct":false},{"rt":2849.709999980405,"stimulus":"\n      <p>How sure are you?</p>\n      <p>Rate your confidence in your answer from 1 (pure guess) to 5 (very sure) by pressing the corresponding button.</p>\n     ","response":2,"image":"img/shoe.jpg","task":"confidence","old_or_new":"old","trial_type":"html-button-response","trial_index":82,"time_elapsed":119888,"internal_node_id":"0.0-3.0-1.39","subject_id":"5f6252507d0bc62882fb9e07","study_id":"606233c0e42b980319b6a18e","session_id":"6088418ca3d1ae746654f73a"},{"rt":606.5600001020357,"stimulus":"img/sink.jpg","response":"y","image":"img/sink.jpg","old_or_new":"old","task":"recognition","trial_type":"image-keyboard-response","trial_index":83,"time_elapsed":120997,"internal_node_id":"0.0-3.0-0.40","subject_id":"5f6252507d0bc62882fb9e07","study_id":"606233c0e42b980319b6a18e","session_id":"6088418ca3d1ae746654f73a","correct":true},{"rt":450.2750000683591,"stimulus":"\n      <p>How sure are you?</p>\n      <p>Rate your confidence in your answer from 1 (pure guess) to 5 (very sure) by pressing the corresponding button.</p>\n     ","response":3,"image":"img/sink.jpg","task":"confidence","old_or_new":"old","trial_type":"html-button-response","trial_index":84,"time_elapsed":121448,"internal_node_id":"0.0-3.0-1.40","subject_id":"5f6252507d0bc62882fb9e07","study_id":"606233c0e42b980319b6a18e","session_id":"6088418ca3d1ae746654f73a"},{"rt":449.52000002376735,"stimulus":"img/rolling_pin.jpg","response":"y","image":"img/rolling_pin.jpg","old_or_new":"old","task":"recognition","trial_type":"image-keyboard-response","trial_index":85,"time_elapsed":122399,"internal_node_id":"0.0-3.0-0.41","subject_id":"5f6252507d0bc62882fb9e07","study_id":"606233c0e42b980319b6a18e","session_id":"6088418ca3d1ae746654f73a","correct":true},{"rt":790.3700000606477,"stimulus":"\n      <p>How sure are you?</p>\n      <p>Rate your confidence in your answer from 1 (pure guess) to 5 (very sure) by pressing the corresponding button.</p>\n     ","response":4,"image":"img/rolling_pin.jpg","task":"confidence","old_or_new":"old","trial_type":"html-button-response","trial_index":86,"time_elapsed":123190,"internal_node_id":"0.0-3.0-1.41","subject_id":"5f6252507d0bc62882fb9e07","study_id":"606233c0e42b980319b6a18e","session_id":"6088418ca3d1ae746654f73a"},{"rt":742.8850000724196,"stimulus":"img/skates.jpg","response":"y","image":"img/skates.jpg","old_or_new":"old","task":"recognition","trial_type":"image-keyboard-response","trial_index":87,"time_elapsed":124435,"internal_node_id":"0.0-3.0-0.42","subject_id":"5f6252507d0bc62882fb9e07","study_id":"606233c0e42b980319b6a18e","session_id":"6088418ca3d1ae746654f73a","correct":true},{"rt":640.224999981001,"stimulus":"\n      <p>How sure are you?</p>\n      <p>Rate your confidence in your answer from 1 (pure guess) to 5 (very sure) by pressing the corresponding button.</p>\n     ","response":4,"image":"img/skates.jpg","task":"confidence","old_or_new":"old","trial_type":"html-button-response","trial_index":88,"time_elapsed":125076,"internal_node_id":"0.0-3.0-1.42","subject_id":"5f6252507d0bc62882fb9e07","study_id":"606233c0e42b980319b6a18e","session_id":"6088418ca3d1ae746654f73a"},{"rt":881.3549999613315,"stimulus":"img/yarn_alternate.jpg","response":"n","image":"img/yarn_alternate.jpg","old_or_new":"new","task":"recognition","trial_type":"image-keyboard-response","trial_index":89,"time_elapsed":126470,"internal_node_id":"0.0-3.0-0.43","subject_id":"5f6252507d0bc62882fb9e07","study_id":"606233c0e42b980319b6a18e","session_id":"6088418ca3d1ae746654f73a","correct":true},{"rt":724.4700000155717,"stimulus":"\n      <p>How sure are you?</p>\n      <p>Rate your confidence in your answer from 1 (pure guess) to 5 (very sure) by pressing the corresponding button.</p>\n     ","response":0,"image":"img/yarn_alternate.jpg","task":"confidence","old_or_new":"new","trial_type":"html-button-response","trial_index":90,"time_elapsed":127195,"internal_node_id":"0.0-3.0-1.43","subject_id":"5f6252507d0bc62882fb9e07","study_id":"606233c0e42b980319b6a18e","session_id":"6088418ca3d1ae746654f73a"},{"rt":709.0900000184774,"stimulus":"img/toaster.jpg","response":"y","image":"img/toaster.jpg","old_or_new":"old","task":"recognition","trial_type":"image-keyboard-response","trial_index":91,"time_elapsed":128406,"internal_node_id":"0.0-3.0-0.44","subject_id":"5f6252507d0bc62882fb9e07","study_id":"606233c0e42b980319b6a18e","session_id":"6088418ca3d1ae746654f73a","correct":true},{"rt":446.5499999932945,"stimulus":"\n      <p>How sure are you?</p>\n      <p>Rate your confidence in your answer from 1 (pure guess) to 5 (very sure) by pressing the corresponding button.</p>\n     ","response":4,"image":"img/toaster.jpg","task":"confidence","old_or_new":"old","trial_type":"html-button-response","trial_index":92,"time_elapsed":128853,"internal_node_id":"0.0-3.0-1.44","subject_id":"5f6252507d0bc62882fb9e07","study_id":"606233c0e42b980319b6a18e","session_id":"6088418ca3d1ae746654f73a"},{"rt":556.4599999925122,"stimulus":"img/trophy_alternate.jpg","response":"n","image":"img/trophy_alternate.jpg","old_or_new":"new","task":"recognition","trial_type":"image-keyboard-response","trial_index":93,"time_elapsed":129911,"internal_node_id":"0.0-3.0-0.45","subject_id":"5f6252507d0bc62882fb9e07","study_id":"606233c0e42b980319b6a18e","session_id":"6088418ca3d1ae746654f73a","correct":true},{"rt":480.1549999974668,"stimulus":"\n      <p>How sure are you?</p>\n      <p>Rate your confidence in your answer from 1 (pure guess) to 5 (very sure) by pressing the corresponding button.</p>\n     ","response":4,"image":"img/trophy_alternate.jpg","task":"confidence","old_or_new":"new","trial_type":"html-button-response","trial_index":94,"time_elapsed":130392,"internal_node_id":"0.0-3.0-1.45","subject_id":"5f6252507d0bc62882fb9e07","study_id":"606233c0e42b980319b6a18e","session_id":"6088418ca3d1ae746654f73a"},{"rt":669.6049999445677,"stimulus":"img/watch_alternate.jpg","response":"n","image":"img/watch_alternate.jpg","old_or_new":"new","task":"recognition","trial_type":"image-keyboard-response","trial_index":95,"time_elapsed":131564,"internal_node_id":"0.0-3.0-0.46","subject_id":"5f6252507d0bc62882fb9e07","study_id":"606233c0e42b980319b6a18e","session_id":"6088418ca3d1ae746654f73a","correct":true},{"rt":449.555000057444,"stimulus":"\n      <p>How sure are you?</p>\n      <p>Rate your confidence in your answer from 1 (pure guess) to 5 (very sure) by pressing the corresponding button.</p>\n     ","response":4,"image":"img/watch_alternate.jpg","task":"confidence","old_or_new":"new","trial_type":"html-button-response","trial_index":96,"time_elapsed":132014,"internal_node_id":"0.0-3.0-1.46","subject_id":"5f6252507d0bc62882fb9e07","study_id":"606233c0e42b980319b6a18e","session_id":"6088418ca3d1ae746654f73a"},{"rt":516.8850000482053,"stimulus":"img/toothbrush.jpg","response":"n","image":"img/toothbrush.jpg","old_or_new":"old","task":"recognition","trial_type":"image-keyboard-response","trial_index":97,"time_elapsed":133033,"internal_node_id":"0.0-3.0-0.47","subject_id":"5f6252507d0bc62882fb9e07","study_id":"606233c0e42b980319b6a18e","session_id":"6088418ca3d1ae746654f73a","correct":false},{"rt":695.5500000622123,"stimulus":"\n      <p>How sure are you?</p>\n      <p>Rate your confidence in your answer from 1 (pure guess) to 5 (very sure) by pressing the corresponding button.</p>\n     ","response":4,"image":"img/toothbrush.jpg","task":"confidence","old_or_new":"old","trial_type":"html-button-response","trial_index":98,"time_elapsed":133729,"internal_node_id":"0.0-3.0-1.47","subject_id":"5f6252507d0bc62882fb9e07","study_id":"606233c0e42b980319b6a18e","session_id":"6088418ca3d1ae746654f73a"}]