[{"success":true,"timeout":false,"failed_images":[],"failed_audio":[],"failed_video":[],"trial_type":"preload","trial_index":0,"time_elapsed":4433,"internal_node_id":"0.0-0.0","subject_id":"601266b26cdabd29da3d3926","study_id":"606233c0e42b980319b6a18e","session_id":"6088349d5f64c703b681d58b"},{"rt":30445.574999997916,"stimulus":"\n      <div style=\"width:800px; text-align: left;\">\n        <p>Welcome to day 2 of the experiment! Thanks for coming back.</p>\n        <p>You will be presented with a series of images. Images will appear one at a time.</p>\n        <p>Each image will remain on the screen until you press either <span style=\"font-weight: bold;\">\"y\" to indicate you have seen the \n        exact same photo the day before or \"n\" to indicate you have not seen the exact same photo the day before.</span></p>\n        <p>After you answer yes (\"y\") or no (\"n\"), you will then be prompted to rate your certainty on a scale of\n        1 (pure guess) to 5 (very sure).</p>\n      </div>\n    ","response":0,"trial_type":"html-button-response","trial_index":1,"time_elapsed":34880,"internal_node_id":"0.0-1.0","subject_id":"601266b26cdabd29da3d3926","study_id":"606233c0e42b980319b6a18e","session_id":"6088349d5f64c703b681d58b"},{"success":true,"trial_type":"fullscreen","trial_index":2,"time_elapsed":37828,"internal_node_id":"0.0-2.0","subject_id":"601266b26cdabd29da3d3926","study_id":"606233c0e42b980319b6a18e","session_id":"6088349d5f64c703b681d58b"},{"rt":4886.359999996785,"stimulus":"img/skates_alternate.jpg","response":"y","image":"img/skates_alternate.jpg","old_or_new":"new","task":"recognition","trial_type":"image-keyboard-response","trial_index":3,"time_elapsed":42723,"internal_node_id":"0.0-3.0-0.0","subject_id":"601266b26cdabd29da3d3926","study_id":"606233c0e42b980319b6a18e","session_id":"6088349d5f64c703b681d58b","correct":false},{"rt":2117.1849999955157,"stimulus":"\n      <p>How sure are you?</p>\n      <p>Rate your confidence in your answer from 1 (pure guess) to 5 (very sure) by pressing the corresponding button.</p>\n     ","response":3,"image":"img/skates_alternate.jpg","task":"confidence","old_or_new":"new","trial_type":"html-button-response","trial_index":4,"time_elapsed":44841,"internal_node_id":"0.0-3.0-1.0","subject_id":"601266b26cdabd29da3d3926","study_id":"606233c0e42b980319b6a18e","session_id":"6088349d5f64c703b681d58b"},{"rt":1751.720000000205,"stimulus":"img/shovel.jpg","response":"y","image":"img/shovel.jpg","old_or_new":"old","task":"recognition","trial_type":"image-keyboard-response","trial_index":5,"time_elapsed":47096,"internal_node_id":"0.0-3.0-0.1","subject_id":"601266b26cdabd29da3d3926","study_id":"606233c0e42b980319b6a18e","session_id":"6088349d5f64c703b681d58b","correct":true},{"rt":1303.490000005695,"stimulus":"\n      <p>How sure are you?</p>\n      <p>Rate your confidence in your answer from 1 (pure guess) to 5 (very sure) by pressing the corresponding button.</p>\n     ","response":4,"image":"img/shovel.jpg","task":"confidence","old_or_new":"old","trial_type":"html-button-response","trial_index":6,"time_elapsed":48400,"internal_node_id":"0.0-3.0-1.1","subject_id":"601266b26cdabd29da3d3926","study_id":"606233c0e42b980319b6a18e","session_id":"6088349d5f64c703b681d58b"},{"rt":1779.499999996915,"stimulus":"img/trophy.jpg","response":"y","image":"img/trophy.jpg","old_or_new":"old","task":"recognition","trial_type":"image-keyboard-response","trial_index":7,"time_elapsed":50686,"internal_node_id":"0.0-3.0-0.2","subject_id":"601266b26cdabd29da3d3926","study_id":"606233c0e42b980319b6a18e","session_id":"6088349d5f64c703b681d58b","correct":true},{"rt":728.9400000008754,"stimulus":"\n      <p>How sure are you?</p>\n      <p>Rate your confidence in your answer from 1 (pure guess) to 5 (very sure) by pressing the corresponding button.</p>\n     ","response":4,"image":"img/trophy.jpg","task":"confidence","old_or_new":"old","trial_type":"html-button-response","trial_index":8,"time_elapsed":51416,"internal_node_id":"0.0-3.0-1.2","subject_id":"601266b26cdabd29da3d3926","study_id":"606233c0e42b980319b6a18e","session_id":"6088349d5f64c703b681d58b"},{"rt":4011.4099999991595,"stimulus":"img/power_cord_alternate.jpg","response":"y","image":"img/power_cord_alternate.jpg","old_or_new":"new","task":"recognition","trial_type":"image-keyboard-response","trial_index":9,"time_elapsed":55942,"internal_node_id":"0.0-3.0-0.3","subject_id":"601266b26cdabd29da3d3926","study_id":"606233c0e42b980319b6a18e","session_id":"6088349d5f64c703b681d58b","correct":false},{"rt":2171.454999996058,"stimulus":"\n      <p>How sure are you?</p>\n      <p>Rate your confidence in your answer from 1 (pure guess) to 5 (very sure) by pressing the corresponding button.</p>\n     ","response":1,"image":"img/power_cord_alternate.jpg","task":"confidence","old_or_new":"new","trial_type":"html-button-response","trial_index":10,"time_elapsed":58115,"internal_node_id":"0.0-3.0-1.3","subject_id":"601266b26cdabd29da3d3926","study_id":"606233c0e42b980319b6a18e","session_id":"6088349d5f64c703b681d58b"},{"rt":1242.9249999986496,"stimulus":"img/spoon.jpg","response":"y","image":"img/spoon.jpg","old_or_new":"old","task":"recognition","trial_type":"image-keyboard-response","trial_index":11,"time_elapsed":59863,"internal_node_id":"0.0-3.0-0.4","subject_id":"601266b26cdabd29da3d3926","study_id":"606233c0e42b980319b6a18e","session_id":"6088349d5f64c703b681d58b","correct":true},{"rt":658.0850000027567,"stimulus":"\n      <p>How sure are you?</p>\n      <p>Rate your confidence in your answer from 1 (pure guess) to 5 (very sure) by pressing the corresponding button.</p>\n     ","response":4,"image":"img/spoon.jpg","task":"confidence","old_or_new":"old","trial_type":"html-button-response","trial_index":12,"time_elapsed":60522,"internal_node_id":"0.0-3.0-1.4","subject_id":"601266b26cdabd29da3d3926","study_id":"606233c0e42b980319b6a18e","session_id":"6088349d5f64c703b681d58b"},{"rt":1345.4300000012154,"stimulus":"img/spoon_alternate.jpg","response":"y","image":"img/spoon_alternate.jpg","old_or_new":"new","task":"recognition","trial_type":"image-keyboard-response","trial_index":13,"time_elapsed":62378,"internal_node_id":"0.0-3.0-0.5","subject_id":"601266b26cdabd29da3d3926","study_id":"606233c0e42b980319b6a18e","session_id":"6088349d5f64c703b681d58b","correct":false},{"rt":637.8499999991618,"stimulus":"\n      <p>How sure are you?</p>\n      <p>Rate your confidence in your answer from 1 (pure guess) to 5 (very sure) by pressing the corresponding button.</p>\n     ","response":1,"image":"img/spoon_alternate.jpg","task":"confidence","old_or_new":"new","trial_type":"html-button-response","trial_index":14,"time_elapsed":63017,"internal_node_id":"0.0-3.0-1.5","subject_id":"601266b26cdabd29da3d3926","study_id":"606233c0e42b980319b6a18e","session_id":"6088349d5f64c703b681d58b"},{"rt":1290.9250000011525,"stimulus":"img/shoe_alternate.jpg","response":"y","image":"img/shoe_alternate.jpg","old_or_new":"new","task":"recognition","trial_type":"image-keyboard-response","trial_index":15,"time_elapsed":64817,"internal_node_id":"0.0-3.0-0.6","subject_id":"601266b26cdabd29da3d3926","study_id":"606233c0e42b980319b6a18e","session_id":"6088349d5f64c703b681d58b","correct":false},{"rt":737.185000005411,"stimulus":"\n      <p>How sure are you?</p>\n      <p>Rate your confidence in your answer from 1 (pure guess) to 5 (very sure) by pressing the corresponding button.</p>\n     ","response":2,"image":"img/shoe_alternate.jpg","task":"confidence","old_or_new":"new","trial_type":"html-button-response","trial_index":16,"time_elapsed":65555,"internal_node_id":"0.0-3.0-1.6","subject_id":"601266b26cdabd29da3d3926","study_id":"606233c0e42b980319b6a18e","session_id":"6088349d5f64c703b681d58b"},{"rt":967.609999999695,"stimulus":"img/toaster_alternate.jpg","response":"y","image":"img/toaster_alternate.jpg","old_or_new":"new","task":"recognition","trial_type":"image-keyboard-response","trial_index":17,"time_elapsed":67029,"internal_node_id":"0.0-3.0-0.7","subject_id":"601266b26cdabd29da3d3926","study_id":"606233c0e42b980319b6a18e","session_id":"6088349d5f64c703b681d58b","correct":false},{"rt":686.7350000029546,"stimulus":"\n      <p>How sure are you?</p>\n      <p>Rate your confidence in your answer from 1 (pure guess) to 5 (very sure) by pressing the corresponding button.</p>\n     ","response":4,"image":"img/toaster_alternate.jpg","task":"confidence","old_or_new":"new","trial_type":"html-button-response","trial_index":18,"time_elapsed":67717,"internal_node_id":"0.0-3.0-1.7","subject_id":"601266b26cdabd29da3d3926","study_id":"606233c0e42b980319b6a18e","session_id":"6088349d5f64c703b681d58b"},{"rt":837.455000000773,"stimulus":"img/plate.jpg","response":"y","image":"img/plate.jpg","old_or_new":"old","task":"recognition","trial_type":"image-keyboard-response","trial_index":19,"time_elapsed":69057,"internal_node_id":"0.0-3.0-0.8","subject_id":"601266b26cdabd29da3d3926","study_id":"606233c0e42b980319b6a18e","session_id":"6088349d5f64c703b681d58b","correct":true},{"rt":554.7799999985727,"stimulus":"\n      <p>How sure are you?</p>\n      <p>Rate your confidence in your answer from 1 (pure guess) to 5 (very sure) by pressing the corresponding button.</p>\n     ","response":4,"image":"img/plate.jpg","task":"confidence","old_or_new":"old","trial_type":"html-button-response","trial_index":20,"time_elapsed":69613,"internal_node_id":"0.0-3.0-1.8","subject_id":"601266b26cdabd29da3d3926","study_id":"606233c0e42b980319b6a18e","session_id":"6088349d5f64c703b681d58b"},{"rt":1372.0099999991362,"stimulus":"img/shirt_alternate.jpg","response":"n","image":"img/shirt_alternate.jpg","old_or_new":"new","task":"recognition","trial_type":"image-keyboard-response","trial_index":21,"time_elapsed":71499,"internal_node_id":"0.0-3.0-0.9","subject_id":"601266b26cdabd29da3d3926","study_id":"606233c0e42b980319b6a18e","session_id":"6088349d5f64c703b681d58b","correct":true},{"rt":1081.4249999966705,"stimulus":"\n      <p>How sure are you?</p>\n      <p>Rate your confidence in your answer from 1 (pure guess) to 5 (very sure) by pressing the corresponding button.</p>\n     ","response":4,"image":"img/shirt_alternate.jpg","task":"confidence","old_or_new":"new","trial_type":"html-button-response","trial_index":22,"time_elapsed":72581,"internal_node_id":"0.0-3.0-1.9","subject_id":"601266b26cdabd29da3d3926","study_id":"606233c0e42b980319b6a18e","session_id":"6088349d5f64c703b681d58b"},{"rt":879.7500000000582,"stimulus":"img/sink.jpg","response":"y","image":"img/sink.jpg","old_or_new":"old","task":"recognition","trial_type":"image-keyboard-response","trial_index":23,"time_elapsed":73966,"internal_node_id":"0.0-3.0-0.10","subject_id":"601266b26cdabd29da3d3926","study_id":"606233c0e42b980319b6a18e","session_id":"6088349d5f64c703b681d58b","correct":true},{"rt":423.26000000321073,"stimulus":"\n      <p>How sure are you?</p>\n      <p>Rate your confidence in your answer from 1 (pure guess) to 5 (very sure) by pressing the corresponding button.</p>\n     ","response":4,"image":"img/sink.jpg","task":"confidence","old_or_new":"old","trial_type":"html-button-response","trial_index":24,"time_elapsed":74390,"internal_node_id":"0.0-3.0-1.10","subject_id":"601266b26cdabd29da3d3926","study_id":"606233c0e42b980319b6a18e","session_id":"6088349d5f64c703b681d58b"},{"rt":574.2750000063097,"stimulus":"img/tv.jpg","response":"y","image":"img/tv.jpg","old_or_new":"old","task":"recognition","trial_type":"image-keyboard-response","trial_index":25,"time_elapsed":75468,"internal_node_id":"0.0-3.0-0.11","subject_id":"601266b26cdabd29da3d3926","study_id":"606233c0e42b980319b6a18e","session_id":"6088349d5f64c703b681d58b","correct":true},{"rt":423.0500000048778,"stimulus":"\n      <p>How sure are you?</p>\n      <p>Rate your confidence in your answer from 1 (pure guess) to 5 (very sure) by pressing the corresponding button.</p>\n     ","response":4,"image":"img/tv.jpg","task":"confidence","old_or_new":"old","trial_type":"html-button-response","trial_index":26,"time_elapsed":75892,"internal_node_id":"0.0-3.0-1.11","subject_id":"601266b26cdabd29da3d3926","study_id":"606233c0e42b980319b6a18e","session_id":"6088349d5f64c703b681d58b"},{"rt":1318.0500000016764,"stimulus":"img/sink_alternate.jpg","response":"n","image":"img/sink_alternate.jpg","old_or_new":"new","task":"recognition","trial_type":"image-keyboard-response","trial_index":27,"time_elapsed":77714,"internal_node_id":"0.0-3.0-0.12","subject_id":"601266b26cdabd29da3d3926","study_id":"606233c0e42b980319b6a18e","session_id":"6088349d5f64c703b681d58b","correct":true},{"rt":1156.5100000007078,"stimulus":"\n      <p>How sure are you?</p>\n      <p>Rate your confidence in your answer from 1 (pure guess) to 5 (very sure) by pressing the corresponding button.</p>\n     ","response":4,"image":"img/sink_alternate.jpg","task":"confidence","old_or_new":"new","trial_type":"html-button-response","trial_index":28,"time_elapsed":78871,"internal_node_id":"0.0-3.0-1.12","subject_id":"601266b26cdabd29da3d3926","study_id":"606233c0e42b980319b6a18e","session_id":"6088349d5f64c703b681d58b"},{"rt":1533.2699999999022,"stimulus":"img/parfait_alternate.jpg","response":"y","image":"img/parfait_alternate.jpg","old_or_new":"new","task":"recognition","trial_type":"image-keyboard-response","trial_index":29,"time_elapsed":80921,"internal_node_id":"0.0-3.0-0.13","subject_id":"601266b26cdabd29da3d3926","study_id":"606233c0e42b980319b6a18e","session_id":"6088349d5f64c703b681d58b","correct":false},{"rt":369.47499999951106,"stimulus":"\n      <p>How sure are you?</p>\n      <p>Rate your confidence in your answer from 1 (pure guess) to 5 (very sure) by pressing the corresponding button.</p>\n     ","response":4,"image":"img/parfait_alternate.jpg","task":"confidence","old_or_new":"new","trial_type":"html-button-response","trial_index":30,"time_elapsed":81291,"internal_node_id":"0.0-3.0-1.13","subject_id":"601266b26cdabd29da3d3926","study_id":"606233c0e42b980319b6a18e","session_id":"6088349d5f64c703b681d58b"},{"rt":1600.945000005595,"stimulus":"img/umbrella.jpg","response":"y","image":"img/umbrella.jpg","old_or_new":"old","task":"recognition","trial_type":"image-keyboard-response","trial_index":31,"time_elapsed":83403,"internal_node_id":"0.0-3.0-0.14","subject_id":"601266b26cdabd29da3d3926","study_id":"606233c0e42b980319b6a18e","session_id":"6088349d5f64c703b681d58b","correct":true},{"rt":370.78000000474276,"stimulus":"\n      <p>How sure are you?</p>\n      <p>Rate your confidence in your answer from 1 (pure guess) to 5 (very sure) by pressing the corresponding button.</p>\n     ","response":4,"image":"img/umbrella.jpg","task":"confidence","old_or_new":"old","trial_type":"html-button-response","trial_index":32,"time_elapsed":83775,"internal_node_id":"0.0-3.0-1.14","subject_id":"601266b26cdabd29da3d3926","study_id":"606233c0e42b980319b6a18e","session_id":"6088349d5f64c703b681d58b"},{"rt":1098.9150000023074,"stimulus":"img/parfait.jpg","response":"y","image":"img/parfait.jpg","old_or_new":"old","task":"recognition","trial_type":"image-keyboard-response","trial_index":33,"time_elapsed":85390,"internal_node_id":"0.0-3.0-0.15","subject_id":"601266b26cdabd29da3d3926","study_id":"606233c0e42b980319b6a18e","session_id":"6088349d5f64c703b681d58b","correct":true},{"rt":327.6350000014645,"stimulus":"\n      <p>How sure are you?</p>\n      <p>Rate your confidence in your answer from 1 (pure guess) to 5 (very sure) by pressing the corresponding button.</p>\n     ","response":4,"image":"img/parfait.jpg","task":"confidence","old_or_new":"old","trial_type":"html-button-response","trial_index":34,"time_elapsed":85719,"internal_node_id":"0.0-3.0-1.15","subject_id":"601266b26cdabd29da3d3926","study_id":"606233c0e42b980319b6a18e","session_id":"6088349d5f64c703b681d58b"},{"rt":1776.2650000004214,"stimulus":"img/scissors.jpg","response":"y","image":"img/scissors.jpg","old_or_new":"old","task":"recognition","trial_type":"image-keyboard-response","trial_index":35,"time_elapsed":88006,"internal_node_id":"0.0-3.0-0.16","subject_id":"601266b26cdabd29da3d3926","study_id":"606233c0e42b980319b6a18e","session_id":"6088349d5f64c703b681d58b","correct":true},{"rt":813.7249999999767,"stimulus":"\n      <p>How sure are you?</p>\n      <p>Rate your confidence in your answer from 1 (pure guess) to 5 (very sure) by pressing the corresponding button.</p>\n     ","response":1,"image":"img/scissors.jpg","task":"confidence","old_or_new":"old","trial_type":"html-button-response","trial_index":36,"time_elapsed":88821,"internal_node_id":"0.0-3.0-1.16","subject_id":"601266b26cdabd29da3d3926","study_id":"606233c0e42b980319b6a18e","session_id":"6088349d5f64c703b681d58b"},{"rt":705.2249999978812,"stimulus":"img/seashell.jpg","response":"y","image":"img/seashell.jpg","old_or_new":"old","task":"recognition","trial_type":"image-keyboard-response","trial_index":37,"time_elapsed":90037,"internal_node_id":"0.0-3.0-0.17","subject_id":"601266b26cdabd29da3d3926","study_id":"606233c0e42b980319b6a18e","session_id":"6088349d5f64c703b681d58b","correct":true},{"rt":575.7149999990361,"stimulus":"\n      <p>How sure are you?</p>\n      <p>Rate your confidence in your answer from 1 (pure guess) to 5 (very sure) by pressing the corresponding button.</p>\n     ","response":4,"image":"img/seashell.jpg","task":"confidence","old_or_new":"old","trial_type":"html-button-response","trial_index":38,"time_elapsed":90613,"internal_node_id":"0.0-3.0-1.17","subject_id":"601266b26cdabd29da3d3926","study_id":"606233c0e42b980319b6a18e","session_id":"6088349d5f64c703b681d58b"},{"rt":788.6500000022352,"stimulus":"img/seashell_alternate.jpg","response":"n","image":"img/seashell_alternate.jpg","old_or_new":"new","task":"recognition","trial_type":"image-keyboard-response","trial_index":39,"time_elapsed":91904,"internal_node_id":"0.0-3.0-0.18","subject_id":"601266b26cdabd29da3d3926","study_id":"606233c0e42b980319b6a18e","session_id":"6088349d5f64c703b681d58b","correct":true},{"rt":883.1550000031712,"stimulus":"\n      <p>How sure are you?</p>\n      <p>Rate your confidence in your answer from 1 (pure guess) to 5 (very sure) by pressing the corresponding button.</p>\n     ","response":4,"image":"img/seashell_alternate.jpg","task":"confidence","old_or_new":"new","trial_type":"html-button-response","trial_index":40,"time_elapsed":92788,"internal_node_id":"0.0-3.0-1.18","subject_id":"601266b26cdabd29da3d3926","study_id":"606233c0e42b980319b6a18e","session_id":"6088349d5f64c703b681d58b"},{"rt":928.3849999992526,"stimulus":"img/power_cord.jpg","response":"y","image":"img/power_cord.jpg","old_or_new":"old","task":"recognition","trial_type":"image-keyboard-response","trial_index":41,"time_elapsed":94218,"internal_node_id":"0.0-3.0-0.19","subject_id":"601266b26cdabd29da3d3926","study_id":"606233c0e42b980319b6a18e","session_id":"6088349d5f64c703b681d58b","correct":true},{"rt":422.59999999805586,"stimulus":"\n      <p>How sure are you?</p>\n      <p>Rate your confidence in your answer from 1 (pure guess) to 5 (very sure) by pressing the corresponding button.</p>\n     ","response":4,"image":"img/power_cord.jpg","task":"confidence","old_or_new":"old","trial_type":"html-button-response","trial_index":42,"time_elapsed":94642,"internal_node_id":"0.0-3.0-1.19","subject_id":"601266b26cdabd29da3d3926","study_id":"606233c0e42b980319b6a18e","session_id":"6088349d5f64c703b681d58b"},{"rt":1795.219999999972,"stimulus":"img/watch_alternate.jpg","response":"y","image":"img/watch_alternate.jpg","old_or_new":"new","task":"recognition","trial_type":"image-keyboard-response","trial_index":43,"time_elapsed":96939,"internal_node_id":"0.0-3.0-0.20","subject_id":"601266b26cdabd29da3d3926","study_id":"606233c0e42b980319b6a18e","session_id":"6088349d5f64c703b681d58b","correct":false},{"rt":1445.2200000014273,"stimulus":"\n      <p>How sure are you?</p>\n      <p>Rate your confidence in your answer from 1 (pure guess) to 5 (very sure) by pressing the corresponding button.</p>\n     ","response":1,"image":"img/watch_alternate.jpg","task":"confidence","old_or_new":"new","trial_type":"html-button-response","trial_index":44,"time_elapsed":98386,"internal_node_id":"0.0-3.0-1.20","subject_id":"601266b26cdabd29da3d3926","study_id":"606233c0e42b980319b6a18e","session_id":"6088349d5f64c703b681d58b"},{"rt":802.0200000028126,"stimulus":"img/yarn.jpg","response":"y","image":"img/yarn.jpg","old_or_new":"old","task":"recognition","trial_type":"image-keyboard-response","trial_index":45,"time_elapsed":99689,"internal_node_id":"0.0-3.0-0.21","subject_id":"601266b26cdabd29da3d3926","study_id":"606233c0e42b980319b6a18e","session_id":"6088349d5f64c703b681d58b","correct":true},{"rt":567.36500000261,"stimulus":"\n      <p>How sure are you?</p>\n      <p>Rate your confidence in your answer from 1 (pure guess) to 5 (very sure) by pressing the corresponding button.</p>\n     ","response":4,"image":"img/yarn.jpg","task":"confidence","old_or_new":"old","trial_type":"html-button-response","trial_index":46,"time_elapsed":100258,"internal_node_id":"0.0-3.0-1.21","subject_id":"601266b26cdabd29da3d3926","study_id":"606233c0e42b980319b6a18e","session_id":"6088349d5f64c703b681d58b"},{"rt":1410.9099999986938,"stimulus":"img/trophy_alternate.jpg","response":"n","image":"img/trophy_alternate.jpg","old_or_new":"new","task":"recognition","trial_type":"image-keyboard-response","trial_index":47,"time_elapsed":102181,"internal_node_id":"0.0-3.0-0.22","subject_id":"601266b26cdabd29da3d3926","study_id":"606233c0e42b980319b6a18e","session_id":"6088349d5f64c703b681d58b","correct":true},{"rt":1424.169999998412,"stimulus":"\n      <p>How sure are you?</p>\n      <p>Rate your confidence in your answer from 1 (pure guess) to 5 (very sure) by pressing the corresponding button.</p>\n     ","response":3,"image":"img/trophy_alternate.jpg","task":"confidence","old_or_new":"new","trial_type":"html-button-response","trial_index":48,"time_elapsed":103606,"internal_node_id":"0.0-3.0-1.22","subject_id":"601266b26cdabd29da3d3926","study_id":"606233c0e42b980319b6a18e","session_id":"6088349d5f64c703b681d58b"},{"rt":5294.324999995297,"stimulus":"img/toothbrush.jpg","response":"y","image":"img/toothbrush.jpg","old_or_new":"old","task":"recognition","trial_type":"image-keyboard-response","trial_index":49,"time_elapsed":109416,"internal_node_id":"0.0-3.0-0.23","subject_id":"601266b26cdabd29da3d3926","study_id":"606233c0e42b980319b6a18e","session_id":"6088349d5f64c703b681d58b","correct":true},{"rt":827.2649999998976,"stimulus":"\n      <p>How sure are you?</p>\n      <p>Rate your confidence in your answer from 1 (pure guess) to 5 (very sure) by pressing the corresponding button.</p>\n     ","response":4,"image":"img/toothbrush.jpg","task":"confidence","old_or_new":"old","trial_type":"html-button-response","trial_index":50,"time_elapsed":110244,"internal_node_id":"0.0-3.0-1.23","subject_id":"601266b26cdabd29da3d3926","study_id":"606233c0e42b980319b6a18e","session_id":"6088349d5f64c703b681d58b"},{"rt":1251.685000002908,"stimulus":"img/plate_alternate.jpg","response":"n","image":"img/plate_alternate.jpg","old_or_new":"new","task":"recognition","trial_type":"image-keyboard-response","trial_index":51,"time_elapsed":111998,"internal_node_id":"0.0-3.0-0.24","subject_id":"601266b26cdabd29da3d3926","study_id":"606233c0e42b980319b6a18e","session_id":"6088349d5f64c703b681d58b","correct":true},{"rt":1587.840000000142,"stimulus":"\n      <p>How sure are you?</p>\n      <p>Rate your confidence in your answer from 1 (pure guess) to 5 (very sure) by pressing the corresponding button.</p>\n     ","response":3,"image":"img/plate_alternate.jpg","task":"confidence","old_or_new":"new","trial_type":"html-button-response","trial_index":52,"time_elapsed":113587,"internal_node_id":"0.0-3.0-1.24","subject_id":"601266b26cdabd29da3d3926","study_id":"606233c0e42b980319b6a18e","session_id":"6088349d5f64c703b681d58b"},{"rt":14085.934999995516,"stimulus":"img/rolling_pin.jpg","response":"y","image":"img/rolling_pin.jpg","old_or_new":"old","task":"recognition","trial_type":"image-keyboard-response","trial_index":53,"time_elapsed":128189,"internal_node_id":"0.0-3.0-0.25","subject_id":"601266b26cdabd29da3d3926","study_id":"606233c0e42b980319b6a18e","session_id":"6088349d5f64c703b681d58b","correct":true},{"rt":2008.6050000027171,"stimulus":"\n      <p>How sure are you?</p>\n      <p>Rate your confidence in your answer from 1 (pure guess) to 5 (very sure) by pressing the corresponding button.</p>\n     ","response":3,"image":"img/rolling_pin.jpg","task":"confidence","old_or_new":"old","trial_type":"html-button-response","trial_index":54,"time_elapsed":130198,"internal_node_id":"0.0-3.0-1.25","subject_id":"601266b26cdabd29da3d3926","study_id":"606233c0e42b980319b6a18e","session_id":"6088349d5f64c703b681d58b"},{"rt":2318.664999998873,"stimulus":"img/shovel_alternate.jpg","response":"n","image":"img/shovel_alternate.jpg","old_or_new":"new","task":"recognition","trial_type":"image-keyboard-response","trial_index":55,"time_elapsed":133033,"internal_node_id":"0.0-3.0-0.26","subject_id":"601266b26cdabd29da3d3926","study_id":"606233c0e42b980319b6a18e","session_id":"6088349d5f64c703b681d58b","correct":true},{"rt":928.8099999976112,"stimulus":"\n      <p>How sure are you?</p>\n      <p>Rate your confidence in your answer from 1 (pure guess) to 5 (very sure) by pressing the corresponding button.</p>\n     ","response":2,"image":"img/shovel_alternate.jpg","task":"confidence","old_or_new":"new","trial_type":"html-button-response","trial_index":56,"time_elapsed":133963,"internal_node_id":"0.0-3.0-1.26","subject_id":"601266b26cdabd29da3d3926","study_id":"606233c0e42b980319b6a18e","session_id":"6088349d5f64c703b681d58b"},{"rt":1027.6900000026217,"stimulus":"img/shirt.jpg","response":"y","image":"img/shirt.jpg","old_or_new":"old","task":"recognition","trial_type":"image-keyboard-response","trial_index":57,"time_elapsed":135500,"internal_node_id":"0.0-3.0-0.27","subject_id":"601266b26cdabd29da3d3926","study_id":"606233c0e42b980319b6a18e","session_id":"6088349d5f64c703b681d58b","correct":true},{"rt":568.4649999966496,"stimulus":"\n      <p>How sure are you?</p>\n      <p>Rate your confidence in your answer from 1 (pure guess) to 5 (very sure) by pressing the corresponding button.</p>\n     ","response":4,"image":"img/shirt.jpg","task":"confidence","old_or_new":"old","trial_type":"html-button-response","trial_index":58,"time_elapsed":136070,"internal_node_id":"0.0-3.0-1.27","subject_id":"601266b26cdabd29da3d3926","study_id":"606233c0e42b980319b6a18e","session_id":"6088349d5f64c703b681d58b"},{"rt":2608.5299999976996,"stimulus":"img/toothbrush_alternate.jpg","response":"n","image":"img/toothbrush_alternate.jpg","old_or_new":"new","task":"recognition","trial_type":"image-keyboard-response","trial_index":59,"time_elapsed":139182,"internal_node_id":"0.0-3.0-0.28","subject_id":"601266b26cdabd29da3d3926","study_id":"606233c0e42b980319b6a18e","session_id":"6088349d5f64c703b681d58b","correct":true},{"rt":832.8449999971781,"stimulus":"\n      <p>How sure are you?</p>\n      <p>Rate your confidence in your answer from 1 (pure guess) to 5 (very sure) by pressing the corresponding button.</p>\n     ","response":4,"image":"img/toothbrush_alternate.jpg","task":"confidence","old_or_new":"new","trial_type":"html-button-response","trial_index":60,"time_elapsed":140015,"internal_node_id":"0.0-3.0-1.28","subject_id":"601266b26cdabd29da3d3926","study_id":"606233c0e42b980319b6a18e","session_id":"6088349d5f64c703b681d58b"},{"rt":1766.3199999951757,"stimulus":"img/pencil_sharpener_alternate.jpg","response":"y","image":"img/pencil_sharpener_alternate.jpg","old_or_new":"new","task":"recognition","trial_type":"image-keyboard-response","trial_index":61,"time_elapsed":142283,"internal_node_id":"0.0-3.0-0.29","subject_id":"601266b26cdabd29da3d3926","study_id":"606233c0e42b980319b6a18e","session_id":"6088349d5f64c703b681d58b","correct":false},{"rt":1249.0099999995437,"stimulus":"\n      <p>How sure are you?</p>\n      <p>Rate your confidence in your answer from 1 (pure guess) to 5 (very sure) by pressing the corresponding button.</p>\n     ","response":2,"image":"img/pencil_sharpener_alternate.jpg","task":"confidence","old_or_new":"new","trial_type":"html-button-response","trial_index":62,"time_elapsed":143533,"internal_node_id":"0.0-3.0-1.29","subject_id":"601266b26cdabd29da3d3926","study_id":"606233c0e42b980319b6a18e","session_id":"6088349d5f64c703b681d58b"},{"rt":4358.189999999013,"stimulus":"img/plane.jpg","response":"y","image":"img/plane.jpg","old_or_new":"old","task":"recognition","trial_type":"image-keyboard-response","trial_index":63,"time_elapsed":148395,"internal_node_id":"0.0-3.0-0.30","subject_id":"601266b26cdabd29da3d3926","study_id":"606233c0e42b980319b6a18e","session_id":"6088349d5f64c703b681d58b","correct":true},{"rt":899.0650000050664,"stimulus":"\n      <p>How sure are you?</p>\n      <p>Rate your confidence in your answer from 1 (pure guess) to 5 (very sure) by pressing the corresponding button.</p>\n     ","response":4,"image":"img/plane.jpg","task":"confidence","old_or_new":"old","trial_type":"html-button-response","trial_index":64,"time_elapsed":149295,"internal_node_id":"0.0-3.0-1.30","subject_id":"601266b26cdabd29da3d3926","study_id":"606233c0e42b980319b6a18e","session_id":"6088349d5f64c703b681d58b"},{"rt":1922.4599999943166,"stimulus":"img/skates.jpg","response":"n","image":"img/skates.jpg","old_or_new":"old","task":"recognition","trial_type":"image-keyboard-response","trial_index":65,"time_elapsed":151735,"internal_node_id":"0.0-3.0-0.31","subject_id":"601266b26cdabd29da3d3926","study_id":"606233c0e42b980319b6a18e","session_id":"6088349d5f64c703b681d58b","correct":false},{"rt":2310.1000000024214,"stimulus":"\n      <p>How sure are you?</p>\n      <p>Rate your confidence in your answer from 1 (pure guess) to 5 (very sure) by pressing the corresponding button.</p>\n     ","response":2,"image":"img/skates.jpg","task":"confidence","old_or_new":"old","trial_type":"html-button-response","trial_index":66,"time_elapsed":154046,"internal_node_id":"0.0-3.0-1.31","subject_id":"601266b26cdabd29da3d3926","study_id":"606233c0e42b980319b6a18e","session_id":"6088349d5f64c703b681d58b"},{"rt":5417.809999999008,"stimulus":"img/rolling_pin_alternate.jpg","response":"n","image":"img/rolling_pin_alternate.jpg","old_or_new":"new","task":"recognition","trial_type":"image-keyboard-response","trial_index":67,"time_elapsed":159978,"internal_node_id":"0.0-3.0-0.32","subject_id":"601266b26cdabd29da3d3926","study_id":"606233c0e42b980319b6a18e","session_id":"6088349d5f64c703b681d58b","correct":true},{"rt":687.4099999986356,"stimulus":"\n      <p>How sure are you?</p>\n      <p>Rate your confidence in your answer from 1 (pure guess) to 5 (very sure) by pressing the corresponding button.</p>\n     ","response":3,"image":"img/rolling_pin_alternate.jpg","task":"confidence","old_or_new":"new","trial_type":"html-button-response","trial_index":68,"time_elapsed":160667,"internal_node_id":"0.0-3.0-1.32","subject_id":"601266b26cdabd29da3d3926","study_id":"606233c0e42b980319b6a18e","session_id":"6088349d5f64c703b681d58b"},{"rt":788.2649999955902,"stimulus":"img/wheel_barrow.jpg","response":"y","image":"img/wheel_barrow.jpg","old_or_new":"old","task":"recognition","trial_type":"image-keyboard-response","trial_index":69,"time_elapsed":161959,"internal_node_id":"0.0-3.0-0.33","subject_id":"601266b26cdabd29da3d3926","study_id":"606233c0e42b980319b6a18e","session_id":"6088349d5f64c703b681d58b","correct":true},{"rt":594.9449999970966,"stimulus":"\n      <p>How sure are you?</p>\n      <p>Rate your confidence in your answer from 1 (pure guess) to 5 (very sure) by pressing the corresponding button.</p>\n     ","response":4,"image":"img/wheel_barrow.jpg","task":"confidence","old_or_new":"old","trial_type":"html-button-response","trial_index":70,"time_elapsed":162555,"internal_node_id":"0.0-3.0-1.33","subject_id":"601266b26cdabd29da3d3926","study_id":"606233c0e42b980319b6a18e","session_id":"6088349d5f64c703b681d58b"},{"rt":2050.939999993716,"stimulus":"img/tv_alternate.jpg","response":"n","image":"img/tv_alternate.jpg","old_or_new":"new","task":"recognition","trial_type":"image-keyboard-response","trial_index":71,"time_elapsed":165109,"internal_node_id":"0.0-3.0-0.34","subject_id":"601266b26cdabd29da3d3926","study_id":"606233c0e42b980319b6a18e","session_id":"6088349d5f64c703b681d58b","correct":true},{"rt":972.4950000017998,"stimulus":"\n      <p>How sure are you?</p>\n      <p>Rate your confidence in your answer from 1 (pure guess) to 5 (very sure) by pressing the corresponding button.</p>\n     ","response":3,"image":"img/tv_alternate.jpg","task":"confidence","old_or_new":"new","trial_type":"html-button-response","trial_index":72,"time_elapsed":166082,"internal_node_id":"0.0-3.0-1.34","subject_id":"601266b26cdabd29da3d3926","study_id":"606233c0e42b980319b6a18e","session_id":"6088349d5f64c703b681d58b"},{"rt":877.3350000046776,"stimulus":"img/pizza.jpg","response":"y","image":"img/pizza.jpg","old_or_new":"old","task":"recognition","trial_type":"image-keyboard-response","trial_index":73,"time_elapsed":167461,"internal_node_id":"0.0-3.0-0.35","subject_id":"601266b26cdabd29da3d3926","study_id":"606233c0e42b980319b6a18e","session_id":"6088349d5f64c703b681d58b","correct":true},{"rt":551.339999998163,"stimulus":"\n      <p>How sure are you?</p>\n      <p>Rate your confidence in your answer from 1 (pure guess) to 5 (very sure) by pressing the corresponding button.</p>\n     ","response":4,"image":"img/pizza.jpg","task":"confidence","old_or_new":"old","trial_type":"html-button-response","trial_index":74,"time_elapsed":168014,"internal_node_id":"0.0-3.0-1.35","subject_id":"601266b26cdabd29da3d3926","study_id":"606233c0e42b980319b6a18e","session_id":"6088349d5f64c703b681d58b"},{"rt":687.644999998156,"stimulus":"img/watch.jpg","response":"y","image":"img/watch.jpg","old_or_new":"old","task":"recognition","trial_type":"image-keyboard-response","trial_index":75,"time_elapsed":169203,"internal_node_id":"0.0-3.0-0.36","subject_id":"601266b26cdabd29da3d3926","study_id":"606233c0e42b980319b6a18e","session_id":"6088349d5f64c703b681d58b","correct":true},{"rt":464.8749999978463,"stimulus":"\n      <p>How sure are you?</p>\n      <p>Rate your confidence in your answer from 1 (pure guess) to 5 (very sure) by pressing the corresponding button.</p>\n     ","response":4,"image":"img/watch.jpg","task":"confidence","old_or_new":"old","trial_type":"html-button-response","trial_index":76,"time_elapsed":169669,"internal_node_id":"0.0-3.0-1.36","subject_id":"601266b26cdabd29da3d3926","study_id":"606233c0e42b980319b6a18e","session_id":"6088349d5f64c703b681d58b"},{"rt":957.6799999995274,"stimulus":"img/knife.jpg","response":"y","image":"img/knife.jpg","old_or_new":"old","task":"recognition","trial_type":"image-keyboard-response","trial_index":77,"time_elapsed":171129,"internal_node_id":"0.0-3.0-0.37","subject_id":"601266b26cdabd29da3d3926","study_id":"606233c0e42b980319b6a18e","session_id":"6088349d5f64c703b681d58b","correct":true},{"rt":244.2399999999907,"stimulus":"\n      <p>How sure are you?</p>\n      <p>Rate your confidence in your answer from 1 (pure guess) to 5 (very sure) by pressing the corresponding button.</p>\n     ","response":4,"image":"img/knife.jpg","task":"confidence","old_or_new":"old","trial_type":"html-button-response","trial_index":78,"time_elapsed":171374,"internal_node_id":"0.0-3.0-1.37","subject_id":"601266b26cdabd29da3d3926","study_id":"606233c0e42b980319b6a18e","session_id":"6088349d5f64c703b681d58b"},{"rt":719.0750000008848,"stimulus":"img/toaster.jpg","response":"y","image":"img/toaster.jpg","old_or_new":"old","task":"recognition","trial_type":"image-keyboard-response","trial_index":79,"time_elapsed":172597,"internal_node_id":"0.0-3.0-0.38","subject_id":"601266b26cdabd29da3d3926","study_id":"606233c0e42b980319b6a18e","session_id":"6088349d5f64c703b681d58b","correct":true},{"rt":350.76500000286615,"stimulus":"\n      <p>How sure are you?</p>\n      <p>Rate your confidence in your answer from 1 (pure guess) to 5 (very sure) by pressing the corresponding button.</p>\n     ","response":4,"image":"img/toaster.jpg","task":"confidence","old_or_new":"old","trial_type":"html-button-response","trial_index":80,"time_elapsed":172949,"internal_node_id":"0.0-3.0-1.38","subject_id":"601266b26cdabd29da3d3926","study_id":"606233c0e42b980319b6a18e","session_id":"6088349d5f64c703b681d58b"},{"rt":827.0950000005541,"stimulus":"img/scissors_alternate.jpg","response":"y","image":"img/scissors_alternate.jpg","old_or_new":"new","task":"recognition","trial_type":"image-keyboard-response","trial_index":81,"time_elapsed":174292,"internal_node_id":"0.0-3.0-0.39","subject_id":"601266b26cdabd29da3d3926","study_id":"606233c0e42b980319b6a18e","session_id":"6088349d5f64c703b681d58b","correct":false},{"rt":1226.089999996475,"stimulus":"\n      <p>How sure are you?</p>\n      <p>Rate your confidence in your answer from 1 (pure guess) to 5 (very sure) by pressing the corresponding button.</p>\n     ","response":0,"image":"img/scissors_alternate.jpg","task":"confidence","old_or_new":"new","trial_type":"html-button-response","trial_index":82,"time_elapsed":175519,"internal_node_id":"0.0-3.0-1.39","subject_id":"601266b26cdabd29da3d3926","study_id":"606233c0e42b980319b6a18e","session_id":"6088349d5f64c703b681d58b"},{"rt":1411.7299999998068,"stimulus":"img/yarn_alternate.jpg","response":"n","image":"img/yarn_alternate.jpg","old_or_new":"new","task":"recognition","trial_type":"image-keyboard-response","trial_index":83,"time_elapsed":177432,"internal_node_id":"0.0-3.0-0.40","subject_id":"601266b26cdabd29da3d3926","study_id":"606233c0e42b980319b6a18e","session_id":"6088349d5f64c703b681d58b","correct":true},{"rt":955.8400000023539,"stimulus":"\n      <p>How sure are you?</p>\n      <p>Rate your confidence in your answer from 1 (pure guess) to 5 (very sure) by pressing the corresponding button.</p>\n     ","response":3,"image":"img/yarn_alternate.jpg","task":"confidence","old_or_new":"new","trial_type":"html-button-response","trial_index":84,"time_elapsed":178389,"internal_node_id":"0.0-3.0-1.40","subject_id":"601266b26cdabd29da3d3926","study_id":"606233c0e42b980319b6a18e","session_id":"6088349d5f64c703b681d58b"},{"rt":1258.014999999432,"stimulus":"img/knife_alternate.jpg","response":"n","image":"img/knife_alternate.jpg","old_or_new":"new","task":"recognition","trial_type":"image-keyboard-response","trial_index":85,"time_elapsed":180164,"internal_node_id":"0.0-3.0-0.41","subject_id":"601266b26cdabd29da3d3926","study_id":"606233c0e42b980319b6a18e","session_id":"6088349d5f64c703b681d58b","correct":true},{"rt":1086.219999997411,"stimulus":"\n      <p>How sure are you?</p>\n      <p>Rate your confidence in your answer from 1 (pure guess) to 5 (very sure) by pressing the corresponding button.</p>\n     ","response":4,"image":"img/knife_alternate.jpg","task":"confidence","old_or_new":"new","trial_type":"html-button-response","trial_index":86,"time_elapsed":181251,"internal_node_id":"0.0-3.0-1.41","subject_id":"601266b26cdabd29da3d3926","study_id":"606233c0e42b980319b6a18e","session_id":"6088349d5f64c703b681d58b"},{"rt":1589.0500000023167,"stimulus":"img/pizza_alternate.jpg","response":"n","image":"img/pizza_alternate.jpg","old_or_new":"new","task":"recognition","trial_type":"image-keyboard-response","trial_index":87,"time_elapsed":183356,"internal_node_id":"0.0-3.0-0.42","subject_id":"601266b26cdabd29da3d3926","study_id":"606233c0e42b980319b6a18e","session_id":"6088349d5f64c703b681d58b","correct":true},{"rt":716.854999998759,"stimulus":"\n      <p>How sure are you?</p>\n      <p>Rate your confidence in your answer from 1 (pure guess) to 5 (very sure) by pressing the corresponding button.</p>\n     ","response":1,"image":"img/pizza_alternate.jpg","task":"confidence","old_or_new":"new","trial_type":"html-button-response","trial_index":88,"time_elapsed":184073,"internal_node_id":"0.0-3.0-1.42","subject_id":"601266b26cdabd29da3d3926","study_id":"606233c0e42b980319b6a18e","session_id":"6088349d5f64c703b681d58b"},{"rt":974.7649999990244,"stimulus":"img/pencil_sharpener.jpg","response":"y","image":"img/pencil_sharpener.jpg","old_or_new":"old","task":"recognition","trial_type":"image-keyboard-response","trial_index":89,"time_elapsed":185565,"internal_node_id":"0.0-3.0-0.43","subject_id":"601266b26cdabd29da3d3926","study_id":"606233c0e42b980319b6a18e","session_id":"6088349d5f64c703b681d58b","correct":true},{"rt":531.6050000037649,"stimulus":"\n      <p>How sure are you?</p>\n      <p>Rate your confidence in your answer from 1 (pure guess) to 5 (very sure) by pressing the corresponding button.</p>\n     ","response":4,"image":"img/pencil_sharpener.jpg","task":"confidence","old_or_new":"old","trial_type":"html-button-response","trial_index":90,"time_elapsed":186098,"internal_node_id":"0.0-3.0-1.43","subject_id":"601266b26cdabd29da3d3926","study_id":"606233c0e42b980319b6a18e","session_id":"6088349d5f64c703b681d58b"},{"rt":1060.5050000012852,"stimulus":"img/wheel_barrow_alternate.jpg","response":"n","image":"img/wheel_barrow_alternate.jpg","old_or_new":"new","task":"recognition","trial_type":"image-keyboard-response","trial_index":91,"time_elapsed":187671,"internal_node_id":"0.0-3.0-0.44","subject_id":"601266b26cdabd29da3d3926","study_id":"606233c0e42b980319b6a18e","session_id":"6088349d5f64c703b681d58b","correct":true},{"rt":2913.12000000471,"stimulus":"\n      <p>How sure are you?</p>\n      <p>Rate your confidence in your answer from 1 (pure guess) to 5 (very sure) by pressing the corresponding button.</p>\n     ","response":3,"image":"img/wheel_barrow_alternate.jpg","task":"confidence","old_or_new":"new","trial_type":"html-button-response","trial_index":92,"time_elapsed":190585,"internal_node_id":"0.0-3.0-1.44","subject_id":"601266b26cdabd29da3d3926","study_id":"606233c0e42b980319b6a18e","session_id":"6088349d5f64c703b681d58b"},{"rt":946.7300000032992,"stimulus":"img/umbrella_alternate.jpg","response":"n","image":"img/umbrella_alternate.jpg","old_or_new":"new","task":"recognition","trial_type":"image-keyboard-response","trial_index":93,"time_elapsed":192035,"internal_node_id":"0.0-3.0-0.45","subject_id":"601266b26cdabd29da3d3926","study_id":"606233c0e42b980319b6a18e","session_id":"6088349d5f64c703b681d58b","correct":true},{"rt":1180.6700000015553,"stimulus":"\n      <p>How sure are you?</p>\n      <p>Rate your confidence in your answer from 1 (pure guess) to 5 (very sure) by pressing the corresponding button.</p>\n     ","response":4,"image":"img/umbrella_alternate.jpg","task":"confidence","old_or_new":"new","trial_type":"html-button-response","trial_index":94,"time_elapsed":193217,"internal_node_id":"0.0-3.0-1.45","subject_id":"601266b26cdabd29da3d3926","study_id":"606233c0e42b980319b6a18e","session_id":"6088349d5f64c703b681d58b"},{"rt":929.2999999961467,"stimulus":"img/plane_alternate.jpg","response":"n","image":"img/plane_alternate.jpg","old_or_new":"new","task":"recognition","trial_type":"image-keyboard-response","trial_index":95,"time_elapsed":194651,"internal_node_id":"0.0-3.0-0.46","subject_id":"601266b26cdabd29da3d3926","study_id":"606233c0e42b980319b6a18e","session_id":"6088349d5f64c703b681d58b","correct":true},{"rt":1241.9899999949848,"stimulus":"\n      <p>How sure are you?</p>\n      <p>Rate your confidence in your answer from 1 (pure guess) to 5 (very sure) by pressing the corresponding button.</p>\n     ","response":3,"image":"img/plane_alternate.jpg","task":"confidence","old_or_new":"new","trial_type":"html-button-response","trial_index":96,"time_elapsed":195895,"internal_node_id":"0.0-3.0-1.46","subject_id":"601266b26cdabd29da3d3926","study_id":"606233c0e42b980319b6a18e","session_id":"6088349d5f64c703b681d58b"},{"rt":1292.8250000040862,"stimulus":"img/shoe.jpg","response":"y","image":"img/shoe.jpg","old_or_new":"old","task":"recognition","trial_type":"image-keyboard-response","trial_index":97,"time_elapsed":197699,"internal_node_id":"0.0-3.0-0.47","subject_id":"601266b26cdabd29da3d3926","study_id":"606233c0e42b980319b6a18e","session_id":"6088349d5f64c703b681d58b","correct":true},{"rt":422.82500000146683,"stimulus":"\n      <p>How sure are you?</p>\n      <p>Rate your confidence in your answer from 1 (pure guess) to 5 (very sure) by pressing the corresponding button.</p>\n     ","response":4,"image":"img/shoe.jpg","task":"confidence","old_or_new":"old","trial_type":"html-button-response","trial_index":98,"time_elapsed":198123,"internal_node_id":"0.0-3.0-1.47","subject_id":"601266b26cdabd29da3d3926","study_id":"606233c0e42b980319b6a18e","session_id":"6088349d5f64c703b681d58b"}]