[{"success":true,"timeout":false,"failed_images":[],"failed_audio":[],"failed_video":[],"trial_type":"preload","trial_index":0,"time_elapsed":4918,"internal_node_id":"0.0-0.0","subject_id":"58dc5764bd5abb000185ee7b","study_id":"606233c0e42b980319b6a18e","session_id":"608861c6a6272465d8dcca4f"},{"rt":17455.044999951497,"stimulus":"\n      <div style=\"width:800px; text-align: left;\">\n        <p>Welcome to day 2 of the experiment! Thanks for coming back.</p>\n        <p>You will be presented with a series of images. Images will appear one at a time.</p>\n        <p>Each image will remain on the screen until you press either <span style=\"font-weight: bold;\">\"y\" to indicate you have seen the \n        exact same photo the day before or \"n\" to indicate you have not seen the exact same photo the day before.</span></p>\n        <p>After you answer yes (\"y\") or no (\"n\"), you will then be prompted to rate your certainty on a scale of\n        1 (pure guess) to 5 (very sure).</p>\n      </div>\n    ","response":0,"trial_type":"html-button-response","trial_index":1,"time_elapsed":22375,"internal_node_id":"0.0-1.0","subject_id":"58dc5764bd5abb000185ee7b","study_id":"606233c0e42b980319b6a18e","session_id":"608861c6a6272465d8dcca4f"},{"success":true,"trial_type":"fullscreen","trial_index":2,"time_elapsed":27434,"internal_node_id":"0.0-2.0","subject_id":"58dc5764bd5abb000185ee7b","study_id":"606233c0e42b980319b6a18e","session_id":"608861c6a6272465d8dcca4f"},{"rt":3055.98999990616,"stimulus":"img/tv_alternate.jpg","response":"y","image":"img/tv_alternate.jpg","old_or_new":"new","task":"recognition","trial_type":"image-keyboard-response","trial_index":3,"time_elapsed":30493,"internal_node_id":"0.0-3.0-0.0","subject_id":"58dc5764bd5abb000185ee7b","study_id":"606233c0e42b980319b6a18e","session_id":"608861c6a6272465d8dcca4f","correct":false},{"rt":3056.6000000108033,"stimulus":"\n      <p>How sure are you?</p>\n      <p>Rate your confidence in your answer from 1 (pure guess) to 5 (very sure) by pressing the corresponding button.</p>\n     ","response":3,"image":"img/tv_alternate.jpg","task":"confidence","old_or_new":"new","trial_type":"html-button-response","trial_index":4,"time_elapsed":33552,"internal_node_id":"0.0-3.0-1.0","subject_id":"58dc5764bd5abb000185ee7b","study_id":"606233c0e42b980319b6a18e","session_id":"608861c6a6272465d8dcca4f"},{"rt":2171.6599999926984,"stimulus":"img/shirt.jpg","response":"y","image":"img/shirt.jpg","old_or_new":"old","task":"recognition","trial_type":"image-keyboard-response","trial_index":5,"time_elapsed":36232,"internal_node_id":"0.0-3.0-0.1","subject_id":"58dc5764bd5abb000185ee7b","study_id":"606233c0e42b980319b6a18e","session_id":"608861c6a6272465d8dcca4f","correct":true},{"rt":1278.995000058785,"stimulus":"\n      <p>How sure are you?</p>\n      <p>Rate your confidence in your answer from 1 (pure guess) to 5 (very sure) by pressing the corresponding button.</p>\n     ","response":4,"image":"img/shirt.jpg","task":"confidence","old_or_new":"old","trial_type":"html-button-response","trial_index":6,"time_elapsed":37513,"internal_node_id":"0.0-3.0-1.1","subject_id":"58dc5764bd5abb000185ee7b","study_id":"606233c0e42b980319b6a18e","session_id":"608861c6a6272465d8dcca4f"},{"rt":1247.094999998808,"stimulus":"img/shovel.jpg","response":"y","image":"img/shovel.jpg","old_or_new":"old","task":"recognition","trial_type":"image-keyboard-response","trial_index":7,"time_elapsed":39270,"internal_node_id":"0.0-3.0-0.2","subject_id":"58dc5764bd5abb000185ee7b","study_id":"606233c0e42b980319b6a18e","session_id":"608861c6a6272465d8dcca4f","correct":true},{"rt":2648.4749999362975,"stimulus":"\n      <p>How sure are you?</p>\n      <p>Rate your confidence in your answer from 1 (pure guess) to 5 (very sure) by pressing the corresponding button.</p>\n     ","response":4,"image":"img/shovel.jpg","task":"confidence","old_or_new":"old","trial_type":"html-button-response","trial_index":8,"time_elapsed":41920,"internal_node_id":"0.0-3.0-1.2","subject_id":"58dc5764bd5abb000185ee7b","study_id":"606233c0e42b980319b6a18e","session_id":"608861c6a6272465d8dcca4f"},{"rt":1765.4399999883026,"stimulus":"img/scissors_alternate.jpg","response":"n","image":"img/scissors_alternate.jpg","old_or_new":"new","task":"recognition","trial_type":"image-keyboard-response","trial_index":9,"time_elapsed":44201,"internal_node_id":"0.0-3.0-0.3","subject_id":"58dc5764bd5abb000185ee7b","study_id":"606233c0e42b980319b6a18e","session_id":"608861c6a6272465d8dcca4f","correct":true},{"rt":1580.7450000429526,"stimulus":"\n      <p>How sure are you?</p>\n      <p>Rate your confidence in your answer from 1 (pure guess) to 5 (very sure) by pressing the corresponding button.</p>\n     ","response":1,"image":"img/scissors_alternate.jpg","task":"confidence","old_or_new":"new","trial_type":"html-button-response","trial_index":10,"time_elapsed":45784,"internal_node_id":"0.0-3.0-1.3","subject_id":"58dc5764bd5abb000185ee7b","study_id":"606233c0e42b980319b6a18e","session_id":"608861c6a6272465d8dcca4f"},{"rt":3267.549999989569,"stimulus":"img/pencil_sharpener.jpg","response":"y","image":"img/pencil_sharpener.jpg","old_or_new":"old","task":"recognition","trial_type":"image-keyboard-response","trial_index":11,"time_elapsed":49561,"internal_node_id":"0.0-3.0-0.4","subject_id":"58dc5764bd5abb000185ee7b","study_id":"606233c0e42b980319b6a18e","session_id":"608861c6a6272465d8dcca4f","correct":true},{"rt":2094.044999917969,"stimulus":"\n      <p>How sure are you?</p>\n      <p>Rate your confidence in your answer from 1 (pure guess) to 5 (very sure) by pressing the corresponding button.</p>\n     ","response":4,"image":"img/pencil_sharpener.jpg","task":"confidence","old_or_new":"old","trial_type":"html-button-response","trial_index":12,"time_elapsed":51658,"internal_node_id":"0.0-3.0-1.4","subject_id":"58dc5764bd5abb000185ee7b","study_id":"606233c0e42b980319b6a18e","session_id":"608861c6a6272465d8dcca4f"},{"rt":1754.780000075698,"stimulus":"img/shirt_alternate.jpg","response":"n","image":"img/shirt_alternate.jpg","old_or_new":"new","task":"recognition","trial_type":"image-keyboard-response","trial_index":13,"time_elapsed":53922,"internal_node_id":"0.0-3.0-0.5","subject_id":"58dc5764bd5abb000185ee7b","study_id":"606233c0e42b980319b6a18e","session_id":"608861c6a6272465d8dcca4f","correct":true},{"rt":1864.6300000837073,"stimulus":"\n      <p>How sure are you?</p>\n      <p>Rate your confidence in your answer from 1 (pure guess) to 5 (very sure) by pressing the corresponding button.</p>\n     ","response":3,"image":"img/shirt_alternate.jpg","task":"confidence","old_or_new":"new","trial_type":"html-button-response","trial_index":14,"time_elapsed":55788,"internal_node_id":"0.0-3.0-1.5","subject_id":"58dc5764bd5abb000185ee7b","study_id":"606233c0e42b980319b6a18e","session_id":"608861c6a6272465d8dcca4f"},{"rt":1998.5500000184402,"stimulus":"img/shoe_alternate.jpg","response":"n","image":"img/shoe_alternate.jpg","old_or_new":"new","task":"recognition","trial_type":"image-keyboard-response","trial_index":15,"time_elapsed":58297,"internal_node_id":"0.0-3.0-0.6","subject_id":"58dc5764bd5abb000185ee7b","study_id":"606233c0e42b980319b6a18e","session_id":"608861c6a6272465d8dcca4f","correct":true},{"rt":1401.5999999828637,"stimulus":"\n      <p>How sure are you?</p>\n      <p>Rate your confidence in your answer from 1 (pure guess) to 5 (very sure) by pressing the corresponding button.</p>\n     ","response":4,"image":"img/shoe_alternate.jpg","task":"confidence","old_or_new":"new","trial_type":"html-button-response","trial_index":16,"time_elapsed":59699,"internal_node_id":"0.0-3.0-1.6","subject_id":"58dc5764bd5abb000185ee7b","study_id":"606233c0e42b980319b6a18e","session_id":"608861c6a6272465d8dcca4f"},{"rt":2041.4399999426678,"stimulus":"img/umbrella_alternate.jpg","response":"y","image":"img/umbrella_alternate.jpg","old_or_new":"new","task":"recognition","trial_type":"image-keyboard-response","trial_index":17,"time_elapsed":62245,"internal_node_id":"0.0-3.0-0.7","subject_id":"58dc5764bd5abb000185ee7b","study_id":"606233c0e42b980319b6a18e","session_id":"608861c6a6272465d8dcca4f","correct":false},{"rt":1738.2549999747425,"stimulus":"\n      <p>How sure are you?</p>\n      <p>Rate your confidence in your answer from 1 (pure guess) to 5 (very sure) by pressing the corresponding button.</p>\n     ","response":2,"image":"img/umbrella_alternate.jpg","task":"confidence","old_or_new":"new","trial_type":"html-button-response","trial_index":18,"time_elapsed":63986,"internal_node_id":"0.0-3.0-1.7","subject_id":"58dc5764bd5abb000185ee7b","study_id":"606233c0e42b980319b6a18e","session_id":"608861c6a6272465d8dcca4f"},{"rt":2283.8849999243394,"stimulus":"img/parfait_alternate.jpg","response":"y","image":"img/parfait_alternate.jpg","old_or_new":"new","task":"recognition","trial_type":"image-keyboard-response","trial_index":19,"time_elapsed":66776,"internal_node_id":"0.0-3.0-0.8","subject_id":"58dc5764bd5abb000185ee7b","study_id":"606233c0e42b980319b6a18e","session_id":"608861c6a6272465d8dcca4f","correct":false},{"rt":2233.460000017658,"stimulus":"\n      <p>How sure are you?</p>\n      <p>Rate your confidence in your answer from 1 (pure guess) to 5 (very sure) by pressing the corresponding button.</p>\n     ","response":2,"image":"img/parfait_alternate.jpg","task":"confidence","old_or_new":"new","trial_type":"html-button-response","trial_index":20,"time_elapsed":69012,"internal_node_id":"0.0-3.0-1.8","subject_id":"58dc5764bd5abb000185ee7b","study_id":"606233c0e42b980319b6a18e","session_id":"608861c6a6272465d8dcca4f"},{"rt":1835.289999959059,"stimulus":"img/pizza_alternate.jpg","response":"n","image":"img/pizza_alternate.jpg","old_or_new":"new","task":"recognition","trial_type":"image-keyboard-response","trial_index":21,"time_elapsed":71351,"internal_node_id":"0.0-3.0-0.9","subject_id":"58dc5764bd5abb000185ee7b","study_id":"606233c0e42b980319b6a18e","session_id":"608861c6a6272465d8dcca4f","correct":true},{"rt":1571.2000000057742,"stimulus":"\n      <p>How sure are you?</p>\n      <p>Rate your confidence in your answer from 1 (pure guess) to 5 (very sure) by pressing the corresponding button.</p>\n     ","response":2,"image":"img/pizza_alternate.jpg","task":"confidence","old_or_new":"new","trial_type":"html-button-response","trial_index":22,"time_elapsed":72924,"internal_node_id":"0.0-3.0-1.9","subject_id":"58dc5764bd5abb000185ee7b","study_id":"606233c0e42b980319b6a18e","session_id":"608861c6a6272465d8dcca4f"},{"rt":1892.4450000049546,"stimulus":"img/tv.jpg","response":"y","image":"img/tv.jpg","old_or_new":"old","task":"recognition","trial_type":"image-keyboard-response","trial_index":23,"time_elapsed":75332,"internal_node_id":"0.0-3.0-0.10","subject_id":"58dc5764bd5abb000185ee7b","study_id":"606233c0e42b980319b6a18e","session_id":"608861c6a6272465d8dcca4f","correct":true},{"rt":1271.125000086613,"stimulus":"\n      <p>How sure are you?</p>\n      <p>Rate your confidence in your answer from 1 (pure guess) to 5 (very sure) by pressing the corresponding button.</p>\n     ","response":3,"image":"img/tv.jpg","task":"confidence","old_or_new":"old","trial_type":"html-button-response","trial_index":24,"time_elapsed":76605,"internal_node_id":"0.0-3.0-1.10","subject_id":"58dc5764bd5abb000185ee7b","study_id":"606233c0e42b980319b6a18e","session_id":"608861c6a6272465d8dcca4f"},{"rt":3242.5849999999627,"stimulus":"img/trophy_alternate.jpg","response":"y","image":"img/trophy_alternate.jpg","old_or_new":"new","task":"recognition","trial_type":"image-keyboard-response","trial_index":25,"time_elapsed":80363,"internal_node_id":"0.0-3.0-0.11","subject_id":"58dc5764bd5abb000185ee7b","study_id":"606233c0e42b980319b6a18e","session_id":"608861c6a6272465d8dcca4f","correct":false},{"rt":1483.669999986887,"stimulus":"\n      <p>How sure are you?</p>\n      <p>Rate your confidence in your answer from 1 (pure guess) to 5 (very sure) by pressing the corresponding button.</p>\n     ","response":1,"image":"img/trophy_alternate.jpg","task":"confidence","old_or_new":"new","trial_type":"html-button-response","trial_index":26,"time_elapsed":81849,"internal_node_id":"0.0-3.0-1.11","subject_id":"58dc5764bd5abb000185ee7b","study_id":"606233c0e42b980319b6a18e","session_id":"608861c6a6272465d8dcca4f"},{"rt":3734.610000043176,"stimulus":"img/power_cord_alternate.jpg","response":"n","image":"img/power_cord_alternate.jpg","old_or_new":"new","task":"recognition","trial_type":"image-keyboard-response","trial_index":27,"time_elapsed":86089,"internal_node_id":"0.0-3.0-0.12","subject_id":"58dc5764bd5abb000185ee7b","study_id":"606233c0e42b980319b6a18e","session_id":"608861c6a6272465d8dcca4f","correct":true},{"rt":1534.0200000209734,"stimulus":"\n      <p>How sure are you?</p>\n      <p>Rate your confidence in your answer from 1 (pure guess) to 5 (very sure) by pressing the corresponding button.</p>\n     ","response":2,"image":"img/power_cord_alternate.jpg","task":"confidence","old_or_new":"new","trial_type":"html-button-response","trial_index":28,"time_elapsed":87626,"internal_node_id":"0.0-3.0-1.12","subject_id":"58dc5764bd5abb000185ee7b","study_id":"606233c0e42b980319b6a18e","session_id":"608861c6a6272465d8dcca4f"},{"rt":1580.0949999829754,"stimulus":"img/wheel_barrow.jpg","response":"y","image":"img/wheel_barrow.jpg","old_or_new":"old","task":"recognition","trial_type":"image-keyboard-response","trial_index":29,"time_elapsed":89719,"internal_node_id":"0.0-3.0-0.13","subject_id":"58dc5764bd5abb000185ee7b","study_id":"606233c0e42b980319b6a18e","session_id":"608861c6a6272465d8dcca4f","correct":true},{"rt":1853.5749999573454,"stimulus":"\n      <p>How sure are you?</p>\n      <p>Rate your confidence in your answer from 1 (pure guess) to 5 (very sure) by pressing the corresponding button.</p>\n     ","response":4,"image":"img/wheel_barrow.jpg","task":"confidence","old_or_new":"old","trial_type":"html-button-response","trial_index":30,"time_elapsed":91575,"internal_node_id":"0.0-3.0-1.13","subject_id":"58dc5764bd5abb000185ee7b","study_id":"606233c0e42b980319b6a18e","session_id":"608861c6a6272465d8dcca4f"},{"rt":2779.9749999539927,"stimulus":"img/plane_alternate.jpg","response":"n","image":"img/plane_alternate.jpg","old_or_new":"new","task":"recognition","trial_type":"image-keyboard-response","trial_index":31,"time_elapsed":94868,"internal_node_id":"0.0-3.0-0.14","subject_id":"58dc5764bd5abb000185ee7b","study_id":"606233c0e42b980319b6a18e","session_id":"608861c6a6272465d8dcca4f","correct":true},{"rt":3874.859999981709,"stimulus":"\n      <p>How sure are you?</p>\n      <p>Rate your confidence in your answer from 1 (pure guess) to 5 (very sure) by pressing the corresponding button.</p>\n     ","response":4,"image":"img/plane_alternate.jpg","task":"confidence","old_or_new":"new","trial_type":"html-button-response","trial_index":32,"time_elapsed":98745,"internal_node_id":"0.0-3.0-1.14","subject_id":"58dc5764bd5abb000185ee7b","study_id":"606233c0e42b980319b6a18e","session_id":"608861c6a6272465d8dcca4f"},{"rt":1977.625000057742,"stimulus":"img/knife_alternate.jpg","response":"n","image":"img/knife_alternate.jpg","old_or_new":"new","task":"recognition","trial_type":"image-keyboard-response","trial_index":33,"time_elapsed":101226,"internal_node_id":"0.0-3.0-0.15","subject_id":"58dc5764bd5abb000185ee7b","study_id":"606233c0e42b980319b6a18e","session_id":"608861c6a6272465d8dcca4f","correct":true},{"rt":1355.9400000376627,"stimulus":"\n      <p>How sure are you?</p>\n      <p>Rate your confidence in your answer from 1 (pure guess) to 5 (very sure) by pressing the corresponding button.</p>\n     ","response":3,"image":"img/knife_alternate.jpg","task":"confidence","old_or_new":"new","trial_type":"html-button-response","trial_index":34,"time_elapsed":102584,"internal_node_id":"0.0-3.0-1.15","subject_id":"58dc5764bd5abb000185ee7b","study_id":"606233c0e42b980319b6a18e","session_id":"608861c6a6272465d8dcca4f"},{"rt":1420.9199999459088,"stimulus":"img/plate.jpg","response":"y","image":"img/plate.jpg","old_or_new":"old","task":"recognition","trial_type":"image-keyboard-response","trial_index":35,"time_elapsed":104517,"internal_node_id":"0.0-3.0-0.16","subject_id":"58dc5764bd5abb000185ee7b","study_id":"606233c0e42b980319b6a18e","session_id":"608861c6a6272465d8dcca4f","correct":true},{"rt":1977.6749999728054,"stimulus":"\n      <p>How sure are you?</p>\n      <p>Rate your confidence in your answer from 1 (pure guess) to 5 (very sure) by pressing the corresponding button.</p>\n     ","response":3,"image":"img/plate.jpg","task":"confidence","old_or_new":"old","trial_type":"html-button-response","trial_index":36,"time_elapsed":106496,"internal_node_id":"0.0-3.0-1.16","subject_id":"58dc5764bd5abb000185ee7b","study_id":"606233c0e42b980319b6a18e","session_id":"608861c6a6272465d8dcca4f"},{"rt":1530.2849999861792,"stimulus":"img/parfait.jpg","response":"y","image":"img/parfait.jpg","old_or_new":"old","task":"recognition","trial_type":"image-keyboard-response","trial_index":37,"time_elapsed":108545,"internal_node_id":"0.0-3.0-0.17","subject_id":"58dc5764bd5abb000185ee7b","study_id":"606233c0e42b980319b6a18e","session_id":"608861c6a6272465d8dcca4f","correct":true},{"rt":1583.8450000155717,"stimulus":"\n      <p>How sure are you?</p>\n      <p>Rate your confidence in your answer from 1 (pure guess) to 5 (very sure) by pressing the corresponding button.</p>\n     ","response":3,"image":"img/parfait.jpg","task":"confidence","old_or_new":"old","trial_type":"html-button-response","trial_index":38,"time_elapsed":110131,"internal_node_id":"0.0-3.0-1.17","subject_id":"58dc5764bd5abb000185ee7b","study_id":"606233c0e42b980319b6a18e","session_id":"608861c6a6272465d8dcca4f"},{"rt":1371.474999934435,"stimulus":"img/trophy.jpg","response":"y","image":"img/trophy.jpg","old_or_new":"old","task":"recognition","trial_type":"image-keyboard-response","trial_index":39,"time_elapsed":112020,"internal_node_id":"0.0-3.0-0.18","subject_id":"58dc5764bd5abb000185ee7b","study_id":"606233c0e42b980319b6a18e","session_id":"608861c6a6272465d8dcca4f","correct":true},{"rt":1269.5900000398979,"stimulus":"\n      <p>How sure are you?</p>\n      <p>Rate your confidence in your answer from 1 (pure guess) to 5 (very sure) by pressing the corresponding button.</p>\n     ","response":4,"image":"img/trophy.jpg","task":"confidence","old_or_new":"old","trial_type":"html-button-response","trial_index":40,"time_elapsed":113291,"internal_node_id":"0.0-3.0-1.18","subject_id":"58dc5764bd5abb000185ee7b","study_id":"606233c0e42b980319b6a18e","session_id":"608861c6a6272465d8dcca4f"},{"rt":1924.0800000261515,"stimulus":"img/watch.jpg","response":"n","image":"img/watch.jpg","old_or_new":"old","task":"recognition","trial_type":"image-keyboard-response","trial_index":41,"time_elapsed":115728,"internal_node_id":"0.0-3.0-0.19","subject_id":"58dc5764bd5abb000185ee7b","study_id":"606233c0e42b980319b6a18e","session_id":"608861c6a6272465d8dcca4f","correct":false},{"rt":1462.2199999867007,"stimulus":"\n      <p>How sure are you?</p>\n      <p>Rate your confidence in your answer from 1 (pure guess) to 5 (very sure) by pressing the corresponding button.</p>\n     ","response":2,"image":"img/watch.jpg","task":"confidence","old_or_new":"old","trial_type":"html-button-response","trial_index":42,"time_elapsed":117192,"internal_node_id":"0.0-3.0-1.19","subject_id":"58dc5764bd5abb000185ee7b","study_id":"606233c0e42b980319b6a18e","session_id":"608861c6a6272465d8dcca4f"},{"rt":1928.840000065975,"stimulus":"img/rolling_pin.jpg","response":"y","image":"img/rolling_pin.jpg","old_or_new":"old","task":"recognition","trial_type":"image-keyboard-response","trial_index":43,"time_elapsed":119631,"internal_node_id":"0.0-3.0-0.20","subject_id":"58dc5764bd5abb000185ee7b","study_id":"606233c0e42b980319b6a18e","session_id":"608861c6a6272465d8dcca4f","correct":true},{"rt":1362.970000016503,"stimulus":"\n      <p>How sure are you?</p>\n      <p>Rate your confidence in your answer from 1 (pure guess) to 5 (very sure) by pressing the corresponding button.</p>\n     ","response":3,"image":"img/rolling_pin.jpg","task":"confidence","old_or_new":"old","trial_type":"html-button-response","trial_index":44,"time_elapsed":120996,"internal_node_id":"0.0-3.0-1.20","subject_id":"58dc5764bd5abb000185ee7b","study_id":"606233c0e42b980319b6a18e","session_id":"608861c6a6272465d8dcca4f"},{"rt":1587.9300000378862,"stimulus":"img/plane.jpg","response":"y","image":"img/plane.jpg","old_or_new":"old","task":"recognition","trial_type":"image-keyboard-response","trial_index":45,"time_elapsed":123092,"internal_node_id":"0.0-3.0-0.21","subject_id":"58dc5764bd5abb000185ee7b","study_id":"606233c0e42b980319b6a18e","session_id":"608861c6a6272465d8dcca4f","correct":true},{"rt":1438.789999927394,"stimulus":"\n      <p>How sure are you?</p>\n      <p>Rate your confidence in your answer from 1 (pure guess) to 5 (very sure) by pressing the corresponding button.</p>\n     ","response":4,"image":"img/plane.jpg","task":"confidence","old_or_new":"old","trial_type":"html-button-response","trial_index":46,"time_elapsed":124533,"internal_node_id":"0.0-3.0-1.21","subject_id":"58dc5764bd5abb000185ee7b","study_id":"606233c0e42b980319b6a18e","session_id":"608861c6a6272465d8dcca4f"},{"rt":1250.8799999486655,"stimulus":"img/pizza.jpg","response":"y","image":"img/pizza.jpg","old_or_new":"old","task":"recognition","trial_type":"image-keyboard-response","trial_index":47,"time_elapsed":126290,"internal_node_id":"0.0-3.0-0.22","subject_id":"58dc5764bd5abb000185ee7b","study_id":"606233c0e42b980319b6a18e","session_id":"608861c6a6272465d8dcca4f","correct":true},{"rt":4673.500000033528,"stimulus":"\n      <p>How sure are you?</p>\n      <p>Rate your confidence in your answer from 1 (pure guess) to 5 (very sure) by pressing the corresponding button.</p>\n     ","response":4,"image":"img/pizza.jpg","task":"confidence","old_or_new":"old","trial_type":"html-button-response","trial_index":48,"time_elapsed":130964,"internal_node_id":"0.0-3.0-1.22","subject_id":"58dc5764bd5abb000185ee7b","study_id":"606233c0e42b980319b6a18e","session_id":"608861c6a6272465d8dcca4f"},{"rt":1507.3199999751523,"stimulus":"img/plate_alternate.jpg","response":"n","image":"img/plate_alternate.jpg","old_or_new":"new","task":"recognition","trial_type":"image-keyboard-response","trial_index":49,"time_elapsed":132976,"internal_node_id":"0.0-3.0-0.23","subject_id":"58dc5764bd5abb000185ee7b","study_id":"606233c0e42b980319b6a18e","session_id":"608861c6a6272465d8dcca4f","correct":true},{"rt":2043.390000006184,"stimulus":"\n      <p>How sure are you?</p>\n      <p>Rate your confidence in your answer from 1 (pure guess) to 5 (very sure) by pressing the corresponding button.</p>\n     ","response":2,"image":"img/plate_alternate.jpg","task":"confidence","old_or_new":"new","trial_type":"html-button-response","trial_index":50,"time_elapsed":135021,"internal_node_id":"0.0-3.0-1.23","subject_id":"58dc5764bd5abb000185ee7b","study_id":"606233c0e42b980319b6a18e","session_id":"608861c6a6272465d8dcca4f"},{"rt":1600.8800000417978,"stimulus":"img/rolling_pin_alternate.jpg","response":"n","image":"img/rolling_pin_alternate.jpg","old_or_new":"new","task":"recognition","trial_type":"image-keyboard-response","trial_index":51,"time_elapsed":137135,"internal_node_id":"0.0-3.0-0.24","subject_id":"58dc5764bd5abb000185ee7b","study_id":"606233c0e42b980319b6a18e","session_id":"608861c6a6272465d8dcca4f","correct":true},{"rt":1761.324999970384,"stimulus":"\n      <p>How sure are you?</p>\n      <p>Rate your confidence in your answer from 1 (pure guess) to 5 (very sure) by pressing the corresponding button.</p>\n     ","response":1,"image":"img/rolling_pin_alternate.jpg","task":"confidence","old_or_new":"new","trial_type":"html-button-response","trial_index":52,"time_elapsed":138898,"internal_node_id":"0.0-3.0-1.24","subject_id":"58dc5764bd5abb000185ee7b","study_id":"606233c0e42b980319b6a18e","session_id":"608861c6a6272465d8dcca4f"},{"rt":1794.6249999804422,"stimulus":"img/pencil_sharpener_alternate.jpg","response":"n","image":"img/pencil_sharpener_alternate.jpg","old_or_new":"new","task":"recognition","trial_type":"image-keyboard-response","trial_index":53,"time_elapsed":141196,"internal_node_id":"0.0-3.0-0.25","subject_id":"58dc5764bd5abb000185ee7b","study_id":"606233c0e42b980319b6a18e","session_id":"608861c6a6272465d8dcca4f","correct":true},{"rt":1684.9800000200048,"stimulus":"\n      <p>How sure are you?</p>\n      <p>Rate your confidence in your answer from 1 (pure guess) to 5 (very sure) by pressing the corresponding button.</p>\n     ","response":3,"image":"img/pencil_sharpener_alternate.jpg","task":"confidence","old_or_new":"new","trial_type":"html-button-response","trial_index":54,"time_elapsed":142882,"internal_node_id":"0.0-3.0-1.25","subject_id":"58dc5764bd5abb000185ee7b","study_id":"606233c0e42b980319b6a18e","session_id":"608861c6a6272465d8dcca4f"},{"rt":1973.3199999900535,"stimulus":"img/seashell.jpg","response":"y","image":"img/seashell.jpg","old_or_new":"old","task":"recognition","trial_type":"image-keyboard-response","trial_index":55,"time_elapsed":145365,"internal_node_id":"0.0-3.0-0.26","subject_id":"58dc5764bd5abb000185ee7b","study_id":"606233c0e42b980319b6a18e","session_id":"608861c6a6272465d8dcca4f","correct":true},{"rt":1633.8199999881908,"stimulus":"\n      <p>How sure are you?</p>\n      <p>Rate your confidence in your answer from 1 (pure guess) to 5 (very sure) by pressing the corresponding button.</p>\n     ","response":3,"image":"img/seashell.jpg","task":"confidence","old_or_new":"old","trial_type":"html-button-response","trial_index":56,"time_elapsed":147000,"internal_node_id":"0.0-3.0-1.26","subject_id":"58dc5764bd5abb000185ee7b","study_id":"606233c0e42b980319b6a18e","session_id":"608861c6a6272465d8dcca4f"},{"rt":1769.3799999542534,"stimulus":"img/skates.jpg","response":"y","image":"img/skates.jpg","old_or_new":"old","task":"recognition","trial_type":"image-keyboard-response","trial_index":57,"time_elapsed":149273,"internal_node_id":"0.0-3.0-0.27","subject_id":"58dc5764bd5abb000185ee7b","study_id":"606233c0e42b980319b6a18e","session_id":"608861c6a6272465d8dcca4f","correct":true},{"rt":1298.424999928102,"stimulus":"\n      <p>How sure are you?</p>\n      <p>Rate your confidence in your answer from 1 (pure guess) to 5 (very sure) by pressing the corresponding button.</p>\n     ","response":4,"image":"img/skates.jpg","task":"confidence","old_or_new":"old","trial_type":"html-button-response","trial_index":58,"time_elapsed":150573,"internal_node_id":"0.0-3.0-1.27","subject_id":"58dc5764bd5abb000185ee7b","study_id":"606233c0e42b980319b6a18e","session_id":"608861c6a6272465d8dcca4f"},{"rt":1796.889999997802,"stimulus":"img/toaster_alternate.jpg","response":"n","image":"img/toaster_alternate.jpg","old_or_new":"new","task":"recognition","trial_type":"image-keyboard-response","trial_index":59,"time_elapsed":152872,"internal_node_id":"0.0-3.0-0.28","subject_id":"58dc5764bd5abb000185ee7b","study_id":"606233c0e42b980319b6a18e","session_id":"608861c6a6272465d8dcca4f","correct":true},{"rt":1453.984999912791,"stimulus":"\n      <p>How sure are you?</p>\n      <p>Rate your confidence in your answer from 1 (pure guess) to 5 (very sure) by pressing the corresponding button.</p>\n     ","response":1,"image":"img/toaster_alternate.jpg","task":"confidence","old_or_new":"new","trial_type":"html-button-response","trial_index":60,"time_elapsed":154328,"internal_node_id":"0.0-3.0-1.28","subject_id":"58dc5764bd5abb000185ee7b","study_id":"606233c0e42b980319b6a18e","session_id":"608861c6a6272465d8dcca4f"},{"rt":2041.215000092052,"stimulus":"img/knife.jpg","response":"y","image":"img/knife.jpg","old_or_new":"old","task":"recognition","trial_type":"image-keyboard-response","trial_index":61,"time_elapsed":156881,"internal_node_id":"0.0-3.0-0.29","subject_id":"58dc5764bd5abb000185ee7b","study_id":"606233c0e42b980319b6a18e","session_id":"608861c6a6272465d8dcca4f","correct":true},{"rt":1357.1199999423698,"stimulus":"\n      <p>How sure are you?</p>\n      <p>Rate your confidence in your answer from 1 (pure guess) to 5 (very sure) by pressing the corresponding button.</p>\n     ","response":3,"image":"img/knife.jpg","task":"confidence","old_or_new":"old","trial_type":"html-button-response","trial_index":62,"time_elapsed":158241,"internal_node_id":"0.0-3.0-1.29","subject_id":"58dc5764bd5abb000185ee7b","study_id":"606233c0e42b980319b6a18e","session_id":"608861c6a6272465d8dcca4f"},{"rt":1940.4499999945983,"stimulus":"img/sink_alternate.jpg","response":"n","image":"img/sink_alternate.jpg","old_or_new":"new","task":"recognition","trial_type":"image-keyboard-response","trial_index":63,"time_elapsed":160697,"internal_node_id":"0.0-3.0-0.30","subject_id":"58dc5764bd5abb000185ee7b","study_id":"606233c0e42b980319b6a18e","session_id":"608861c6a6272465d8dcca4f","correct":true},{"rt":1321.4099999750033,"stimulus":"\n      <p>How sure are you?</p>\n      <p>Rate your confidence in your answer from 1 (pure guess) to 5 (very sure) by pressing the corresponding button.</p>\n     ","response":2,"image":"img/sink_alternate.jpg","task":"confidence","old_or_new":"new","trial_type":"html-button-response","trial_index":64,"time_elapsed":162020,"internal_node_id":"0.0-3.0-1.30","subject_id":"58dc5764bd5abb000185ee7b","study_id":"606233c0e42b980319b6a18e","session_id":"608861c6a6272465d8dcca4f"},{"rt":2025.5049999104813,"stimulus":"img/toothbrush.jpg","response":"y","image":"img/toothbrush.jpg","old_or_new":"old","task":"recognition","trial_type":"image-keyboard-response","trial_index":65,"time_elapsed":164559,"internal_node_id":"0.0-3.0-0.31","subject_id":"58dc5764bd5abb000185ee7b","study_id":"606233c0e42b980319b6a18e","session_id":"608861c6a6272465d8dcca4f","correct":true},{"rt":1322.8999999118969,"stimulus":"\n      <p>How sure are you?</p>\n      <p>Rate your confidence in your answer from 1 (pure guess) to 5 (very sure) by pressing the corresponding button.</p>\n     ","response":3,"image":"img/toothbrush.jpg","task":"confidence","old_or_new":"old","trial_type":"html-button-response","trial_index":66,"time_elapsed":165883,"internal_node_id":"0.0-3.0-1.31","subject_id":"58dc5764bd5abb000185ee7b","study_id":"606233c0e42b980319b6a18e","session_id":"608861c6a6272465d8dcca4f"},{"rt":1894.1499999491498,"stimulus":"img/toaster.jpg","response":"y","image":"img/toaster.jpg","old_or_new":"old","task":"recognition","trial_type":"image-keyboard-response","trial_index":67,"time_elapsed":168287,"internal_node_id":"0.0-3.0-0.32","subject_id":"58dc5764bd5abb000185ee7b","study_id":"606233c0e42b980319b6a18e","session_id":"608861c6a6272465d8dcca4f","correct":true},{"rt":1470.5649999668822,"stimulus":"\n      <p>How sure are you?</p>\n      <p>Rate your confidence in your answer from 1 (pure guess) to 5 (very sure) by pressing the corresponding button.</p>\n     ","response":4,"image":"img/toaster.jpg","task":"confidence","old_or_new":"old","trial_type":"html-button-response","trial_index":68,"time_elapsed":169759,"internal_node_id":"0.0-3.0-1.32","subject_id":"58dc5764bd5abb000185ee7b","study_id":"606233c0e42b980319b6a18e","session_id":"608861c6a6272465d8dcca4f"},{"rt":1409.0600000927225,"stimulus":"img/seashell_alternate.jpg","response":"n","image":"img/seashell_alternate.jpg","old_or_new":"new","task":"recognition","trial_type":"image-keyboard-response","trial_index":69,"time_elapsed":171670,"internal_node_id":"0.0-3.0-0.33","subject_id":"58dc5764bd5abb000185ee7b","study_id":"606233c0e42b980319b6a18e","session_id":"608861c6a6272465d8dcca4f","correct":true},{"rt":1479.4599999440834,"stimulus":"\n      <p>How sure are you?</p>\n      <p>Rate your confidence in your answer from 1 (pure guess) to 5 (very sure) by pressing the corresponding button.</p>\n     ","response":3,"image":"img/seashell_alternate.jpg","task":"confidence","old_or_new":"new","trial_type":"html-button-response","trial_index":70,"time_elapsed":173151,"internal_node_id":"0.0-3.0-1.33","subject_id":"58dc5764bd5abb000185ee7b","study_id":"606233c0e42b980319b6a18e","session_id":"608861c6a6272465d8dcca4f"},{"rt":2166.345000034198,"stimulus":"img/spoon.jpg","response":"y","image":"img/spoon.jpg","old_or_new":"old","task":"recognition","trial_type":"image-keyboard-response","trial_index":71,"time_elapsed":175821,"internal_node_id":"0.0-3.0-0.34","subject_id":"58dc5764bd5abb000185ee7b","study_id":"606233c0e42b980319b6a18e","session_id":"608861c6a6272465d8dcca4f","correct":true},{"rt":1411.240000044927,"stimulus":"\n      <p>How sure are you?</p>\n      <p>Rate your confidence in your answer from 1 (pure guess) to 5 (very sure) by pressing the corresponding button.</p>\n     ","response":4,"image":"img/spoon.jpg","task":"confidence","old_or_new":"old","trial_type":"html-button-response","trial_index":72,"time_elapsed":177234,"internal_node_id":"0.0-3.0-1.34","subject_id":"58dc5764bd5abb000185ee7b","study_id":"606233c0e42b980319b6a18e","session_id":"608861c6a6272465d8dcca4f"},{"rt":2021.000000066124,"stimulus":"img/shovel_alternate.jpg","response":"n","image":"img/shovel_alternate.jpg","old_or_new":"new","task":"recognition","trial_type":"image-keyboard-response","trial_index":73,"time_elapsed":179757,"internal_node_id":"0.0-3.0-0.35","subject_id":"58dc5764bd5abb000185ee7b","study_id":"606233c0e42b980319b6a18e","session_id":"608861c6a6272465d8dcca4f","correct":true},{"rt":1325.719999964349,"stimulus":"\n      <p>How sure are you?</p>\n      <p>Rate your confidence in your answer from 1 (pure guess) to 5 (very sure) by pressing the corresponding button.</p>\n     ","response":1,"image":"img/shovel_alternate.jpg","task":"confidence","old_or_new":"new","trial_type":"html-button-response","trial_index":74,"time_elapsed":181085,"internal_node_id":"0.0-3.0-1.35","subject_id":"58dc5764bd5abb000185ee7b","study_id":"606233c0e42b980319b6a18e","session_id":"608861c6a6272465d8dcca4f"},{"rt":2041.9499999843538,"stimulus":"img/wheel_barrow_alternate.jpg","response":"n","image":"img/wheel_barrow_alternate.jpg","old_or_new":"new","task":"recognition","trial_type":"image-keyboard-response","trial_index":75,"time_elapsed":183632,"internal_node_id":"0.0-3.0-0.36","subject_id":"58dc5764bd5abb000185ee7b","study_id":"606233c0e42b980319b6a18e","session_id":"608861c6a6272465d8dcca4f","correct":true},{"rt":1714.22999992501,"stimulus":"\n      <p>How sure are you?</p>\n      <p>Rate your confidence in your answer from 1 (pure guess) to 5 (very sure) by pressing the corresponding button.</p>\n     ","response":3,"image":"img/wheel_barrow_alternate.jpg","task":"confidence","old_or_new":"new","trial_type":"html-button-response","trial_index":76,"time_elapsed":185349,"internal_node_id":"0.0-3.0-1.36","subject_id":"58dc5764bd5abb000185ee7b","study_id":"606233c0e42b980319b6a18e","session_id":"608861c6a6272465d8dcca4f"},{"rt":1302.9549999628216,"stimulus":"img/scissors.jpg","response":"n","image":"img/scissors.jpg","old_or_new":"old","task":"recognition","trial_type":"image-keyboard-response","trial_index":77,"time_elapsed":187154,"internal_node_id":"0.0-3.0-0.37","subject_id":"58dc5764bd5abb000185ee7b","study_id":"606233c0e42b980319b6a18e","session_id":"608861c6a6272465d8dcca4f","correct":false},{"rt":1195.7049999618903,"stimulus":"\n      <p>How sure are you?</p>\n      <p>Rate your confidence in your answer from 1 (pure guess) to 5 (very sure) by pressing the corresponding button.</p>\n     ","response":4,"image":"img/scissors.jpg","task":"confidence","old_or_new":"old","trial_type":"html-button-response","trial_index":78,"time_elapsed":188352,"internal_node_id":"0.0-3.0-1.37","subject_id":"58dc5764bd5abb000185ee7b","study_id":"606233c0e42b980319b6a18e","session_id":"608861c6a6272465d8dcca4f"},{"rt":1987.26500000339,"stimulus":"img/shoe.jpg","response":"y","image":"img/shoe.jpg","old_or_new":"old","task":"recognition","trial_type":"image-keyboard-response","trial_index":79,"time_elapsed":190842,"internal_node_id":"0.0-3.0-0.38","subject_id":"58dc5764bd5abb000185ee7b","study_id":"606233c0e42b980319b6a18e","session_id":"608861c6a6272465d8dcca4f","correct":true},{"rt":1796.3100000051782,"stimulus":"\n      <p>How sure are you?</p>\n      <p>Rate your confidence in your answer from 1 (pure guess) to 5 (very sure) by pressing the corresponding button.</p>\n     ","response":3,"image":"img/shoe.jpg","task":"confidence","old_or_new":"old","trial_type":"html-button-response","trial_index":80,"time_elapsed":192640,"internal_node_id":"0.0-3.0-1.38","subject_id":"58dc5764bd5abb000185ee7b","study_id":"606233c0e42b980319b6a18e","session_id":"608861c6a6272465d8dcca4f"},{"rt":2680.064999964088,"stimulus":"img/spoon_alternate.jpg","response":"n","image":"img/spoon_alternate.jpg","old_or_new":"new","task":"recognition","trial_type":"image-keyboard-response","trial_index":81,"time_elapsed":195838,"internal_node_id":"0.0-3.0-0.39","subject_id":"58dc5764bd5abb000185ee7b","study_id":"606233c0e42b980319b6a18e","session_id":"608861c6a6272465d8dcca4f","correct":true},{"rt":1864.6400000434369,"stimulus":"\n      <p>How sure are you?</p>\n      <p>Rate your confidence in your answer from 1 (pure guess) to 5 (very sure) by pressing the corresponding button.</p>\n     ","response":3,"image":"img/spoon_alternate.jpg","task":"confidence","old_or_new":"new","trial_type":"html-button-response","trial_index":82,"time_elapsed":197704,"internal_node_id":"0.0-3.0-1.39","subject_id":"58dc5764bd5abb000185ee7b","study_id":"606233c0e42b980319b6a18e","session_id":"608861c6a6272465d8dcca4f"},{"rt":5979.995000059716,"stimulus":"img/umbrella.jpg","response":"n","image":"img/umbrella.jpg","old_or_new":"old","task":"recognition","trial_type":"image-keyboard-response","trial_index":83,"time_elapsed":204195,"internal_node_id":"0.0-3.0-0.40","subject_id":"58dc5764bd5abb000185ee7b","study_id":"606233c0e42b980319b6a18e","session_id":"608861c6a6272465d8dcca4f","correct":false},{"rt":1888.8700000243261,"stimulus":"\n      <p>How sure are you?</p>\n      <p>Rate your confidence in your answer from 1 (pure guess) to 5 (very sure) by pressing the corresponding button.</p>\n     ","response":1,"image":"img/umbrella.jpg","task":"confidence","old_or_new":"old","trial_type":"html-button-response","trial_index":84,"time_elapsed":206086,"internal_node_id":"0.0-3.0-1.40","subject_id":"58dc5764bd5abb000185ee7b","study_id":"606233c0e42b980319b6a18e","session_id":"608861c6a6272465d8dcca4f"},{"rt":1977.320000063628,"stimulus":"img/toothbrush_alternate.jpg","response":"n","image":"img/toothbrush_alternate.jpg","old_or_new":"new","task":"recognition","trial_type":"image-keyboard-response","trial_index":85,"time_elapsed":208575,"internal_node_id":"0.0-3.0-0.41","subject_id":"58dc5764bd5abb000185ee7b","study_id":"606233c0e42b980319b6a18e","session_id":"608861c6a6272465d8dcca4f","correct":true},{"rt":1313.1749999010935,"stimulus":"\n      <p>How sure are you?</p>\n      <p>Rate your confidence in your answer from 1 (pure guess) to 5 (very sure) by pressing the corresponding button.</p>\n     ","response":3,"image":"img/toothbrush_alternate.jpg","task":"confidence","old_or_new":"new","trial_type":"html-button-response","trial_index":86,"time_elapsed":209890,"internal_node_id":"0.0-3.0-1.41","subject_id":"58dc5764bd5abb000185ee7b","study_id":"606233c0e42b980319b6a18e","session_id":"608861c6a6272465d8dcca4f"},{"rt":1371.7000000178814,"stimulus":"img/sink.jpg","response":"y","image":"img/sink.jpg","old_or_new":"old","task":"recognition","trial_type":"image-keyboard-response","trial_index":87,"time_elapsed":211765,"internal_node_id":"0.0-3.0-0.42","subject_id":"58dc5764bd5abb000185ee7b","study_id":"606233c0e42b980319b6a18e","session_id":"608861c6a6272465d8dcca4f","correct":true},{"rt":1830.1800000481308,"stimulus":"\n      <p>How sure are you?</p>\n      <p>Rate your confidence in your answer from 1 (pure guess) to 5 (very sure) by pressing the corresponding button.</p>\n     ","response":4,"image":"img/sink.jpg","task":"confidence","old_or_new":"old","trial_type":"html-button-response","trial_index":88,"time_elapsed":213597,"internal_node_id":"0.0-3.0-1.42","subject_id":"58dc5764bd5abb000185ee7b","study_id":"606233c0e42b980319b6a18e","session_id":"608861c6a6272465d8dcca4f"},{"rt":1474.1200000280514,"stimulus":"img/skates_alternate.jpg","response":"n","image":"img/skates_alternate.jpg","old_or_new":"new","task":"recognition","trial_type":"image-keyboard-response","trial_index":89,"time_elapsed":215573,"internal_node_id":"0.0-3.0-0.43","subject_id":"58dc5764bd5abb000185ee7b","study_id":"606233c0e42b980319b6a18e","session_id":"608861c6a6272465d8dcca4f","correct":true},{"rt":1207.4499999871477,"stimulus":"\n      <p>How sure are you?</p>\n      <p>Rate your confidence in your answer from 1 (pure guess) to 5 (very sure) by pressing the corresponding button.</p>\n     ","response":3,"image":"img/skates_alternate.jpg","task":"confidence","old_or_new":"new","trial_type":"html-button-response","trial_index":90,"time_elapsed":216782,"internal_node_id":"0.0-3.0-1.43","subject_id":"58dc5764bd5abb000185ee7b","study_id":"606233c0e42b980319b6a18e","session_id":"608861c6a6272465d8dcca4f"},{"rt":1349.1699999431148,"stimulus":"img/yarn_alternate.jpg","response":"n","image":"img/yarn_alternate.jpg","old_or_new":"new","task":"recognition","trial_type":"image-keyboard-response","trial_index":91,"time_elapsed":218649,"internal_node_id":"0.0-3.0-0.44","subject_id":"58dc5764bd5abb000185ee7b","study_id":"606233c0e42b980319b6a18e","session_id":"608861c6a6272465d8dcca4f","correct":true},{"rt":1813.220000010915,"stimulus":"\n      <p>How sure are you?</p>\n      <p>Rate your confidence in your answer from 1 (pure guess) to 5 (very sure) by pressing the corresponding button.</p>\n     ","response":4,"image":"img/yarn_alternate.jpg","task":"confidence","old_or_new":"new","trial_type":"html-button-response","trial_index":92,"time_elapsed":220464,"internal_node_id":"0.0-3.0-1.44","subject_id":"58dc5764bd5abb000185ee7b","study_id":"606233c0e42b980319b6a18e","session_id":"608861c6a6272465d8dcca4f"},{"rt":2619.1400000825524,"stimulus":"img/watch_alternate.jpg","response":"n","image":"img/watch_alternate.jpg","old_or_new":"new","task":"recognition","trial_type":"image-keyboard-response","trial_index":93,"time_elapsed":223589,"internal_node_id":"0.0-3.0-0.45","subject_id":"58dc5764bd5abb000185ee7b","study_id":"606233c0e42b980319b6a18e","session_id":"608861c6a6272465d8dcca4f","correct":true},{"rt":1535.5899999849498,"stimulus":"\n      <p>How sure are you?</p>\n      <p>Rate your confidence in your answer from 1 (pure guess) to 5 (very sure) by pressing the corresponding button.</p>\n     ","response":3,"image":"img/watch_alternate.jpg","task":"confidence","old_or_new":"new","trial_type":"html-button-response","trial_index":94,"time_elapsed":225127,"internal_node_id":"0.0-3.0-1.45","subject_id":"58dc5764bd5abb000185ee7b","study_id":"606233c0e42b980319b6a18e","session_id":"608861c6a6272465d8dcca4f"},{"rt":1940.2349999872968,"stimulus":"img/power_cord.jpg","response":"y","image":"img/power_cord.jpg","old_or_new":"old","task":"recognition","trial_type":"image-keyboard-response","trial_index":95,"time_elapsed":227579,"internal_node_id":"0.0-3.0-0.46","subject_id":"58dc5764bd5abb000185ee7b","study_id":"606233c0e42b980319b6a18e","session_id":"608861c6a6272465d8dcca4f","correct":true},{"rt":1229.5750000048429,"stimulus":"\n      <p>How sure are you?</p>\n      <p>Rate your confidence in your answer from 1 (pure guess) to 5 (very sure) by pressing the corresponding button.</p>\n     ","response":4,"image":"img/power_cord.jpg","task":"confidence","old_or_new":"old","trial_type":"html-button-response","trial_index":96,"time_elapsed":228810,"internal_node_id":"0.0-3.0-1.46","subject_id":"58dc5764bd5abb000185ee7b","study_id":"606233c0e42b980319b6a18e","session_id":"608861c6a6272465d8dcca4f"},{"rt":1390.235000057146,"stimulus":"img/yarn.jpg","response":"y","image":"img/yarn.jpg","old_or_new":"old","task":"recognition","trial_type":"image-keyboard-response","trial_index":97,"time_elapsed":230707,"internal_node_id":"0.0-3.0-0.47","subject_id":"58dc5764bd5abb000185ee7b","study_id":"606233c0e42b980319b6a18e","session_id":"608861c6a6272465d8dcca4f","correct":true},{"rt":1238.6549999937415,"stimulus":"\n      <p>How sure are you?</p>\n      <p>Rate your confidence in your answer from 1 (pure guess) to 5 (very sure) by pressing the corresponding button.</p>\n     ","response":4,"image":"img/yarn.jpg","task":"confidence","old_or_new":"old","trial_type":"html-button-response","trial_index":98,"time_elapsed":231948,"internal_node_id":"0.0-3.0-1.47","subject_id":"58dc5764bd5abb000185ee7b","study_id":"606233c0e42b980319b6a18e","session_id":"608861c6a6272465d8dcca4f"}]