[{"success":true,"timeout":false,"failed_images":[],"failed_audio":[],"failed_video":[],"trial_type":"preload","trial_index":0,"time_elapsed":6311,"internal_node_id":"0.0-0.0","subject_id":"6017ff67d472ae3ae159096c","study_id":"606233c0e42b980319b6a18e","session_id":"608858ed921943779d2c284d"},{"rt":28101.54999990482,"stimulus":"\n      <div style=\"width:800px; text-align: left;\">\n        <p>Welcome to day 2 of the experiment! Thanks for coming back.</p>\n        <p>You will be presented with a series of images. Images will appear one at a time.</p>\n        <p>Each image will remain on the screen until you press either <span style=\"font-weight: bold;\">\"y\" to indicate you have seen the \n        exact same photo the day before or \"n\" to indicate you have not seen the exact same photo the day before.</span></p>\n        <p>After you answer yes (\"y\") or no (\"n\"), you will then be prompted to rate your certainty on a scale of\n        1 (pure guess) to 5 (very sure).</p>\n      </div>\n    ","response":0,"trial_type":"html-button-response","trial_index":1,"time_elapsed":34414,"internal_node_id":"0.0-1.0","subject_id":"6017ff67d472ae3ae159096c","study_id":"606233c0e42b980319b6a18e","session_id":"608858ed921943779d2c284d"},{"success":true,"trial_type":"fullscreen","trial_index":2,"time_elapsed":37840,"internal_node_id":"0.0-2.0","subject_id":"6017ff67d472ae3ae159096c","study_id":"606233c0e42b980319b6a18e","session_id":"608858ed921943779d2c284d"},{"rt":2457.550000050105,"stimulus":"img/tv_alternate.jpg","response":"n","image":"img/tv_alternate.jpg","old_or_new":"new","task":"recognition","trial_type":"image-keyboard-response","trial_index":3,"time_elapsed":40310,"internal_node_id":"0.0-3.0-0.0","subject_id":"6017ff67d472ae3ae159096c","study_id":"606233c0e42b980319b6a18e","session_id":"608858ed921943779d2c284d","correct":true},{"rt":4641.460000071675,"stimulus":"\n      <p>How sure are you?</p>\n      <p>Rate your confidence in your answer from 1 (pure guess) to 5 (very sure) by pressing the corresponding button.</p>\n     ","response":2,"image":"img/tv_alternate.jpg","task":"confidence","old_or_new":"new","trial_type":"html-button-response","trial_index":4,"time_elapsed":44953,"internal_node_id":"0.0-3.0-1.0","subject_id":"6017ff67d472ae3ae159096c","study_id":"606233c0e42b980319b6a18e","session_id":"608858ed921943779d2c284d"},{"rt":1185.2000000653788,"stimulus":"img/scissors_alternate.jpg","response":"n","image":"img/scissors_alternate.jpg","old_or_new":"new","task":"recognition","trial_type":"image-keyboard-response","trial_index":5,"time_elapsed":46641,"internal_node_id":"0.0-3.0-0.1","subject_id":"6017ff67d472ae3ae159096c","study_id":"606233c0e42b980319b6a18e","session_id":"608858ed921943779d2c284d","correct":true},{"rt":2113.009999971837,"stimulus":"\n      <p>How sure are you?</p>\n      <p>Rate your confidence in your answer from 1 (pure guess) to 5 (very sure) by pressing the corresponding button.</p>\n     ","response":3,"image":"img/scissors_alternate.jpg","task":"confidence","old_or_new":"new","trial_type":"html-button-response","trial_index":6,"time_elapsed":48755,"internal_node_id":"0.0-3.0-1.1","subject_id":"6017ff67d472ae3ae159096c","study_id":"606233c0e42b980319b6a18e","session_id":"608858ed921943779d2c284d"},{"rt":775.3100000554696,"stimulus":"img/pencil_sharpener.jpg","response":"y","image":"img/pencil_sharpener.jpg","old_or_new":"old","task":"recognition","trial_type":"image-keyboard-response","trial_index":7,"time_elapsed":50034,"internal_node_id":"0.0-3.0-0.2","subject_id":"6017ff67d472ae3ae159096c","study_id":"606233c0e42b980319b6a18e","session_id":"608858ed921943779d2c284d","correct":true},{"rt":1122.040000045672,"stimulus":"\n      <p>How sure are you?</p>\n      <p>Rate your confidence in your answer from 1 (pure guess) to 5 (very sure) by pressing the corresponding button.</p>\n     ","response":4,"image":"img/pencil_sharpener.jpg","task":"confidence","old_or_new":"old","trial_type":"html-button-response","trial_index":8,"time_elapsed":51157,"internal_node_id":"0.0-3.0-1.2","subject_id":"6017ff67d472ae3ae159096c","study_id":"606233c0e42b980319b6a18e","session_id":"608858ed921943779d2c284d"},{"rt":2188.300000037998,"stimulus":"img/plate_alternate.jpg","response":"n","image":"img/plate_alternate.jpg","old_or_new":"new","task":"recognition","trial_type":"image-keyboard-response","trial_index":9,"time_elapsed":53848,"internal_node_id":"0.0-3.0-0.3","subject_id":"6017ff67d472ae3ae159096c","study_id":"606233c0e42b980319b6a18e","session_id":"608858ed921943779d2c284d","correct":true},{"rt":1443.1099999928847,"stimulus":"\n      <p>How sure are you?</p>\n      <p>Rate your confidence in your answer from 1 (pure guess) to 5 (very sure) by pressing the corresponding button.</p>\n     ","response":2,"image":"img/plate_alternate.jpg","task":"confidence","old_or_new":"new","trial_type":"html-button-response","trial_index":10,"time_elapsed":55292,"internal_node_id":"0.0-3.0-1.3","subject_id":"6017ff67d472ae3ae159096c","study_id":"606233c0e42b980319b6a18e","session_id":"608858ed921943779d2c284d"},{"rt":1149.5649999706075,"stimulus":"img/trophy_alternate.jpg","response":"n","image":"img/trophy_alternate.jpg","old_or_new":"new","task":"recognition","trial_type":"image-keyboard-response","trial_index":11,"time_elapsed":56944,"internal_node_id":"0.0-3.0-0.4","subject_id":"6017ff67d472ae3ae159096c","study_id":"606233c0e42b980319b6a18e","session_id":"608858ed921943779d2c284d","correct":true},{"rt":544.9449999723583,"stimulus":"\n      <p>How sure are you?</p>\n      <p>Rate your confidence in your answer from 1 (pure guess) to 5 (very sure) by pressing the corresponding button.</p>\n     ","response":2,"image":"img/trophy_alternate.jpg","task":"confidence","old_or_new":"new","trial_type":"html-button-response","trial_index":12,"time_elapsed":57490,"internal_node_id":"0.0-3.0-1.4","subject_id":"6017ff67d472ae3ae159096c","study_id":"606233c0e42b980319b6a18e","session_id":"608858ed921943779d2c284d"},{"rt":653.8799999980256,"stimulus":"img/umbrella_alternate.jpg","response":"y","image":"img/umbrella_alternate.jpg","old_or_new":"new","task":"recognition","trial_type":"image-keyboard-response","trial_index":13,"time_elapsed":58645,"internal_node_id":"0.0-3.0-0.5","subject_id":"6017ff67d472ae3ae159096c","study_id":"606233c0e42b980319b6a18e","session_id":"608858ed921943779d2c284d","correct":false},{"rt":1112.4050000216812,"stimulus":"\n      <p>How sure are you?</p>\n      <p>Rate your confidence in your answer from 1 (pure guess) to 5 (very sure) by pressing the corresponding button.</p>\n     ","response":4,"image":"img/umbrella_alternate.jpg","task":"confidence","old_or_new":"new","trial_type":"html-button-response","trial_index":14,"time_elapsed":59759,"internal_node_id":"0.0-3.0-1.5","subject_id":"6017ff67d472ae3ae159096c","study_id":"606233c0e42b980319b6a18e","session_id":"608858ed921943779d2c284d"},{"rt":805.009999894537,"stimulus":"img/pencil_sharpener_alternate.jpg","response":"y","image":"img/pencil_sharpener_alternate.jpg","old_or_new":"new","task":"recognition","trial_type":"image-keyboard-response","trial_index":15,"time_elapsed":61067,"internal_node_id":"0.0-3.0-0.6","subject_id":"6017ff67d472ae3ae159096c","study_id":"606233c0e42b980319b6a18e","session_id":"608858ed921943779d2c284d","correct":false},{"rt":537.9749999847263,"stimulus":"\n      <p>How sure are you?</p>\n      <p>Rate your confidence in your answer from 1 (pure guess) to 5 (very sure) by pressing the corresponding button.</p>\n     ","response":4,"image":"img/pencil_sharpener_alternate.jpg","task":"confidence","old_or_new":"new","trial_type":"html-button-response","trial_index":16,"time_elapsed":61606,"internal_node_id":"0.0-3.0-1.6","subject_id":"6017ff67d472ae3ae159096c","study_id":"606233c0e42b980319b6a18e","session_id":"608858ed921943779d2c284d"},{"rt":1116.1849999334663,"stimulus":"img/parfait_alternate.jpg","response":"y","image":"img/parfait_alternate.jpg","old_or_new":"new","task":"recognition","trial_type":"image-keyboard-response","trial_index":17,"time_elapsed":63225,"internal_node_id":"0.0-3.0-0.7","subject_id":"6017ff67d472ae3ae159096c","study_id":"606233c0e42b980319b6a18e","session_id":"608858ed921943779d2c284d","correct":false},{"rt":351.23000002931803,"stimulus":"\n      <p>How sure are you?</p>\n      <p>Rate your confidence in your answer from 1 (pure guess) to 5 (very sure) by pressing the corresponding button.</p>\n     ","response":4,"image":"img/parfait_alternate.jpg","task":"confidence","old_or_new":"new","trial_type":"html-button-response","trial_index":18,"time_elapsed":63577,"internal_node_id":"0.0-3.0-1.7","subject_id":"6017ff67d472ae3ae159096c","study_id":"606233c0e42b980319b6a18e","session_id":"608858ed921943779d2c284d"},{"rt":834.900000016205,"stimulus":"img/shirt_alternate.jpg","response":"n","image":"img/shirt_alternate.jpg","old_or_new":"new","task":"recognition","trial_type":"image-keyboard-response","trial_index":19,"time_elapsed":64914,"internal_node_id":"0.0-3.0-0.8","subject_id":"6017ff67d472ae3ae159096c","study_id":"606233c0e42b980319b6a18e","session_id":"608858ed921943779d2c284d","correct":true},{"rt":1205.8699999470264,"stimulus":"\n      <p>How sure are you?</p>\n      <p>Rate your confidence in your answer from 1 (pure guess) to 5 (very sure) by pressing the corresponding button.</p>\n     ","response":2,"image":"img/shirt_alternate.jpg","task":"confidence","old_or_new":"new","trial_type":"html-button-response","trial_index":20,"time_elapsed":66121,"internal_node_id":"0.0-3.0-1.8","subject_id":"6017ff67d472ae3ae159096c","study_id":"606233c0e42b980319b6a18e","session_id":"608858ed921943779d2c284d"},{"rt":867.919999989681,"stimulus":"img/yarn.jpg","response":"y","image":"img/yarn.jpg","old_or_new":"old","task":"recognition","trial_type":"image-keyboard-response","trial_index":21,"time_elapsed":67492,"internal_node_id":"0.0-3.0-0.9","subject_id":"6017ff67d472ae3ae159096c","study_id":"606233c0e42b980319b6a18e","session_id":"608858ed921943779d2c284d","correct":true},{"rt":671.0800000000745,"stimulus":"\n      <p>How sure are you?</p>\n      <p>Rate your confidence in your answer from 1 (pure guess) to 5 (very sure) by pressing the corresponding button.</p>\n     ","response":4,"image":"img/yarn.jpg","task":"confidence","old_or_new":"old","trial_type":"html-button-response","trial_index":22,"time_elapsed":68164,"internal_node_id":"0.0-3.0-1.9","subject_id":"6017ff67d472ae3ae159096c","study_id":"606233c0e42b980319b6a18e","session_id":"608858ed921943779d2c284d"},{"rt":1605.0550000509247,"stimulus":"img/toaster.jpg","response":"y","image":"img/toaster.jpg","old_or_new":"old","task":"recognition","trial_type":"image-keyboard-response","trial_index":23,"time_elapsed":70272,"internal_node_id":"0.0-3.0-0.10","subject_id":"6017ff67d472ae3ae159096c","study_id":"606233c0e42b980319b6a18e","session_id":"608858ed921943779d2c284d","correct":true},{"rt":492.0200000051409,"stimulus":"\n      <p>How sure are you?</p>\n      <p>Rate your confidence in your answer from 1 (pure guess) to 5 (very sure) by pressing the corresponding button.</p>\n     ","response":4,"image":"img/toaster.jpg","task":"confidence","old_or_new":"old","trial_type":"html-button-response","trial_index":24,"time_elapsed":70765,"internal_node_id":"0.0-3.0-1.10","subject_id":"6017ff67d472ae3ae159096c","study_id":"606233c0e42b980319b6a18e","session_id":"608858ed921943779d2c284d"},{"rt":1361.380000016652,"stimulus":"img/shovel_alternate.jpg","response":"n","image":"img/shovel_alternate.jpg","old_or_new":"new","task":"recognition","trial_type":"image-keyboard-response","trial_index":25,"time_elapsed":72629,"internal_node_id":"0.0-3.0-0.11","subject_id":"6017ff67d472ae3ae159096c","study_id":"606233c0e42b980319b6a18e","session_id":"608858ed921943779d2c284d","correct":true},{"rt":2987.3849999858066,"stimulus":"\n      <p>How sure are you?</p>\n      <p>Rate your confidence in your answer from 1 (pure guess) to 5 (very sure) by pressing the corresponding button.</p>\n     ","response":1,"image":"img/shovel_alternate.jpg","task":"confidence","old_or_new":"new","trial_type":"html-button-response","trial_index":26,"time_elapsed":75617,"internal_node_id":"0.0-3.0-1.11","subject_id":"6017ff67d472ae3ae159096c","study_id":"606233c0e42b980319b6a18e","session_id":"608858ed921943779d2c284d"},{"rt":958.0449999775738,"stimulus":"img/pizza.jpg","response":"y","image":"img/pizza.jpg","old_or_new":"old","task":"recognition","trial_type":"image-keyboard-response","trial_index":27,"time_elapsed":77079,"internal_node_id":"0.0-3.0-0.12","subject_id":"6017ff67d472ae3ae159096c","study_id":"606233c0e42b980319b6a18e","session_id":"608858ed921943779d2c284d","correct":true},{"rt":584.4049999723211,"stimulus":"\n      <p>How sure are you?</p>\n      <p>Rate your confidence in your answer from 1 (pure guess) to 5 (very sure) by pressing the corresponding button.</p>\n     ","response":4,"image":"img/pizza.jpg","task":"confidence","old_or_new":"old","trial_type":"html-button-response","trial_index":28,"time_elapsed":77664,"internal_node_id":"0.0-3.0-1.12","subject_id":"6017ff67d472ae3ae159096c","study_id":"606233c0e42b980319b6a18e","session_id":"608858ed921943779d2c284d"},{"rt":1621.3500000303611,"stimulus":"img/power_cord_alternate.jpg","response":"n","image":"img/power_cord_alternate.jpg","old_or_new":"new","task":"recognition","trial_type":"image-keyboard-response","trial_index":29,"time_elapsed":79788,"internal_node_id":"0.0-3.0-0.13","subject_id":"6017ff67d472ae3ae159096c","study_id":"606233c0e42b980319b6a18e","session_id":"608858ed921943779d2c284d","correct":true},{"rt":906.3000000314787,"stimulus":"\n      <p>How sure are you?</p>\n      <p>Rate your confidence in your answer from 1 (pure guess) to 5 (very sure) by pressing the corresponding button.</p>\n     ","response":0,"image":"img/power_cord_alternate.jpg","task":"confidence","old_or_new":"new","trial_type":"html-button-response","trial_index":30,"time_elapsed":80695,"internal_node_id":"0.0-3.0-1.13","subject_id":"6017ff67d472ae3ae159096c","study_id":"606233c0e42b980319b6a18e","session_id":"608858ed921943779d2c284d"},{"rt":1196.5900000650436,"stimulus":"img/shovel.jpg","response":"y","image":"img/shovel.jpg","old_or_new":"old","task":"recognition","trial_type":"image-keyboard-response","trial_index":31,"time_elapsed":82394,"internal_node_id":"0.0-3.0-0.14","subject_id":"6017ff67d472ae3ae159096c","study_id":"606233c0e42b980319b6a18e","session_id":"608858ed921943779d2c284d","correct":true},{"rt":657.0950000314042,"stimulus":"\n      <p>How sure are you?</p>\n      <p>Rate your confidence in your answer from 1 (pure guess) to 5 (very sure) by pressing the corresponding button.</p>\n     ","response":4,"image":"img/shovel.jpg","task":"confidence","old_or_new":"old","trial_type":"html-button-response","trial_index":32,"time_elapsed":83052,"internal_node_id":"0.0-3.0-1.14","subject_id":"6017ff67d472ae3ae159096c","study_id":"606233c0e42b980319b6a18e","session_id":"608858ed921943779d2c284d"},{"rt":1576.7699999269098,"stimulus":"img/shirt.jpg","response":"y","image":"img/shirt.jpg","old_or_new":"old","task":"recognition","trial_type":"image-keyboard-response","trial_index":33,"time_elapsed":85132,"internal_node_id":"0.0-3.0-0.15","subject_id":"6017ff67d472ae3ae159096c","study_id":"606233c0e42b980319b6a18e","session_id":"608858ed921943779d2c284d","correct":true},{"rt":289.3200000980869,"stimulus":"\n      <p>How sure are you?</p>\n      <p>Rate your confidence in your answer from 1 (pure guess) to 5 (very sure) by pressing the corresponding button.</p>\n     ","response":4,"image":"img/shirt.jpg","task":"confidence","old_or_new":"old","trial_type":"html-button-response","trial_index":34,"time_elapsed":85422,"internal_node_id":"0.0-3.0-1.15","subject_id":"6017ff67d472ae3ae159096c","study_id":"606233c0e42b980319b6a18e","session_id":"608858ed921943779d2c284d"},{"rt":990.5700000235811,"stimulus":"img/plane.jpg","response":"y","image":"img/plane.jpg","old_or_new":"old","task":"recognition","trial_type":"image-keyboard-response","trial_index":35,"time_elapsed":86916,"internal_node_id":"0.0-3.0-0.16","subject_id":"6017ff67d472ae3ae159096c","study_id":"606233c0e42b980319b6a18e","session_id":"608858ed921943779d2c284d","correct":true},{"rt":217.3099999781698,"stimulus":"\n      <p>How sure are you?</p>\n      <p>Rate your confidence in your answer from 1 (pure guess) to 5 (very sure) by pressing the corresponding button.</p>\n     ","response":4,"image":"img/plane.jpg","task":"confidence","old_or_new":"old","trial_type":"html-button-response","trial_index":36,"time_elapsed":87134,"internal_node_id":"0.0-3.0-1.16","subject_id":"6017ff67d472ae3ae159096c","study_id":"606233c0e42b980319b6a18e","session_id":"608858ed921943779d2c284d"},{"rt":920.2799999620765,"stimulus":"img/toothbrush.jpg","response":"n","image":"img/toothbrush.jpg","old_or_new":"old","task":"recognition","trial_type":"image-keyboard-response","trial_index":37,"time_elapsed":88557,"internal_node_id":"0.0-3.0-0.17","subject_id":"6017ff67d472ae3ae159096c","study_id":"606233c0e42b980319b6a18e","session_id":"608858ed921943779d2c284d","correct":false},{"rt":714.5200000377372,"stimulus":"\n      <p>How sure are you?</p>\n      <p>Rate your confidence in your answer from 1 (pure guess) to 5 (very sure) by pressing the corresponding button.</p>\n     ","response":2,"image":"img/toothbrush.jpg","task":"confidence","old_or_new":"old","trial_type":"html-button-response","trial_index":38,"time_elapsed":89272,"internal_node_id":"0.0-3.0-1.17","subject_id":"6017ff67d472ae3ae159096c","study_id":"606233c0e42b980319b6a18e","session_id":"608858ed921943779d2c284d"},{"rt":833.7349999928847,"stimulus":"img/skates_alternate.jpg","response":"n","image":"img/skates_alternate.jpg","old_or_new":"new","task":"recognition","trial_type":"image-keyboard-response","trial_index":39,"time_elapsed":90609,"internal_node_id":"0.0-3.0-0.18","subject_id":"6017ff67d472ae3ae159096c","study_id":"606233c0e42b980319b6a18e","session_id":"608858ed921943779d2c284d","correct":true},{"rt":1152.0200000377372,"stimulus":"\n      <p>How sure are you?</p>\n      <p>Rate your confidence in your answer from 1 (pure guess) to 5 (very sure) by pressing the corresponding button.</p>\n     ","response":4,"image":"img/skates_alternate.jpg","task":"confidence","old_or_new":"new","trial_type":"html-button-response","trial_index":40,"time_elapsed":91762,"internal_node_id":"0.0-3.0-1.18","subject_id":"6017ff67d472ae3ae159096c","study_id":"606233c0e42b980319b6a18e","session_id":"608858ed921943779d2c284d"},{"rt":2238.9149999944493,"stimulus":"img/skates.jpg","response":"y","image":"img/skates.jpg","old_or_new":"old","task":"recognition","trial_type":"image-keyboard-response","trial_index":41,"time_elapsed":94504,"internal_node_id":"0.0-3.0-0.19","subject_id":"6017ff67d472ae3ae159096c","study_id":"606233c0e42b980319b6a18e","session_id":"608858ed921943779d2c284d","correct":true},{"rt":396.98499999940395,"stimulus":"\n      <p>How sure are you?</p>\n      <p>Rate your confidence in your answer from 1 (pure guess) to 5 (very sure) by pressing the corresponding button.</p>\n     ","response":4,"image":"img/skates.jpg","task":"confidence","old_or_new":"old","trial_type":"html-button-response","trial_index":42,"time_elapsed":94902,"internal_node_id":"0.0-3.0-1.19","subject_id":"6017ff67d472ae3ae159096c","study_id":"606233c0e42b980319b6a18e","session_id":"608858ed921943779d2c284d"},{"rt":938.4749999735504,"stimulus":"img/parfait.jpg","response":"y","image":"img/parfait.jpg","old_or_new":"old","task":"recognition","trial_type":"image-keyboard-response","trial_index":43,"time_elapsed":96343,"internal_node_id":"0.0-3.0-0.20","subject_id":"6017ff67d472ae3ae159096c","study_id":"606233c0e42b980319b6a18e","session_id":"608858ed921943779d2c284d","correct":true},{"rt":239.10999996587634,"stimulus":"\n      <p>How sure are you?</p>\n      <p>Rate your confidence in your answer from 1 (pure guess) to 5 (very sure) by pressing the corresponding button.</p>\n     ","response":4,"image":"img/parfait.jpg","task":"confidence","old_or_new":"old","trial_type":"html-button-response","trial_index":44,"time_elapsed":96583,"internal_node_id":"0.0-3.0-1.20","subject_id":"6017ff67d472ae3ae159096c","study_id":"606233c0e42b980319b6a18e","session_id":"608858ed921943779d2c284d"},{"rt":872.4550000624731,"stimulus":"img/sink_alternate.jpg","response":"n","image":"img/sink_alternate.jpg","old_or_new":"new","task":"recognition","trial_type":"image-keyboard-response","trial_index":45,"time_elapsed":97959,"internal_node_id":"0.0-3.0-0.21","subject_id":"6017ff67d472ae3ae159096c","study_id":"606233c0e42b980319b6a18e","session_id":"608858ed921943779d2c284d","correct":true},{"rt":1005.6099999928847,"stimulus":"\n      <p>How sure are you?</p>\n      <p>Rate your confidence in your answer from 1 (pure guess) to 5 (very sure) by pressing the corresponding button.</p>\n     ","response":3,"image":"img/sink_alternate.jpg","task":"confidence","old_or_new":"new","trial_type":"html-button-response","trial_index":46,"time_elapsed":98965,"internal_node_id":"0.0-3.0-1.21","subject_id":"6017ff67d472ae3ae159096c","study_id":"606233c0e42b980319b6a18e","session_id":"608858ed921943779d2c284d"},{"rt":940.4649999924004,"stimulus":"img/plate.jpg","response":"n","image":"img/plate.jpg","old_or_new":"old","task":"recognition","trial_type":"image-keyboard-response","trial_index":47,"time_elapsed":100408,"internal_node_id":"0.0-3.0-0.22","subject_id":"6017ff67d472ae3ae159096c","study_id":"606233c0e42b980319b6a18e","session_id":"608858ed921943779d2c284d","correct":false},{"rt":539.6099999779835,"stimulus":"\n      <p>How sure are you?</p>\n      <p>Rate your confidence in your answer from 1 (pure guess) to 5 (very sure) by pressing the corresponding button.</p>\n     ","response":2,"image":"img/plate.jpg","task":"confidence","old_or_new":"old","trial_type":"html-button-response","trial_index":48,"time_elapsed":100948,"internal_node_id":"0.0-3.0-1.22","subject_id":"6017ff67d472ae3ae159096c","study_id":"606233c0e42b980319b6a18e","session_id":"608858ed921943779d2c284d"},{"rt":1012.5250000273809,"stimulus":"img/shoe.jpg","response":"n","image":"img/shoe.jpg","old_or_new":"old","task":"recognition","trial_type":"image-keyboard-response","trial_index":49,"time_elapsed":102463,"internal_node_id":"0.0-3.0-0.23","subject_id":"6017ff67d472ae3ae159096c","study_id":"606233c0e42b980319b6a18e","session_id":"608858ed921943779d2c284d","correct":false},{"rt":350.1450000330806,"stimulus":"\n      <p>How sure are you?</p>\n      <p>Rate your confidence in your answer from 1 (pure guess) to 5 (very sure) by pressing the corresponding button.</p>\n     ","response":3,"image":"img/shoe.jpg","task":"confidence","old_or_new":"old","trial_type":"html-button-response","trial_index":50,"time_elapsed":102814,"internal_node_id":"0.0-3.0-1.23","subject_id":"6017ff67d472ae3ae159096c","study_id":"606233c0e42b980319b6a18e","session_id":"608858ed921943779d2c284d"},{"rt":1316.2399999564514,"stimulus":"img/spoon.jpg","response":"n","image":"img/spoon.jpg","old_or_new":"old","task":"recognition","trial_type":"image-keyboard-response","trial_index":51,"time_elapsed":104633,"internal_node_id":"0.0-3.0-0.24","subject_id":"6017ff67d472ae3ae159096c","study_id":"606233c0e42b980319b6a18e","session_id":"608858ed921943779d2c284d","correct":false},{"rt":468.33499998319894,"stimulus":"\n      <p>How sure are you?</p>\n      <p>Rate your confidence in your answer from 1 (pure guess) to 5 (very sure) by pressing the corresponding button.</p>\n     ","response":2,"image":"img/spoon.jpg","task":"confidence","old_or_new":"old","trial_type":"html-button-response","trial_index":52,"time_elapsed":105102,"internal_node_id":"0.0-3.0-1.24","subject_id":"6017ff67d472ae3ae159096c","study_id":"606233c0e42b980319b6a18e","session_id":"608858ed921943779d2c284d"},{"rt":1028.9249999914318,"stimulus":"img/tv.jpg","response":"n","image":"img/tv.jpg","old_or_new":"old","task":"recognition","trial_type":"image-keyboard-response","trial_index":53,"time_elapsed":106634,"internal_node_id":"0.0-3.0-0.25","subject_id":"6017ff67d472ae3ae159096c","study_id":"606233c0e42b980319b6a18e","session_id":"608858ed921943779d2c284d","correct":false},{"rt":1129.0899999439716,"stimulus":"\n      <p>How sure are you?</p>\n      <p>Rate your confidence in your answer from 1 (pure guess) to 5 (very sure) by pressing the corresponding button.</p>\n     ","response":1,"image":"img/tv.jpg","task":"confidence","old_or_new":"old","trial_type":"html-button-response","trial_index":54,"time_elapsed":107764,"internal_node_id":"0.0-3.0-1.25","subject_id":"6017ff67d472ae3ae159096c","study_id":"606233c0e42b980319b6a18e","session_id":"608858ed921943779d2c284d"},{"rt":954.594999901019,"stimulus":"img/yarn_alternate.jpg","response":"n","image":"img/yarn_alternate.jpg","old_or_new":"new","task":"recognition","trial_type":"image-keyboard-response","trial_index":55,"time_elapsed":109221,"internal_node_id":"0.0-3.0-0.26","subject_id":"6017ff67d472ae3ae159096c","study_id":"606233c0e42b980319b6a18e","session_id":"608858ed921943779d2c284d","correct":true},{"rt":423.36000001523644,"stimulus":"\n      <p>How sure are you?</p>\n      <p>Rate your confidence in your answer from 1 (pure guess) to 5 (very sure) by pressing the corresponding button.</p>\n     ","response":1,"image":"img/yarn_alternate.jpg","task":"confidence","old_or_new":"new","trial_type":"html-button-response","trial_index":56,"time_elapsed":109649,"internal_node_id":"0.0-3.0-1.26","subject_id":"6017ff67d472ae3ae159096c","study_id":"606233c0e42b980319b6a18e","session_id":"608858ed921943779d2c284d"},{"rt":1470.2150000957772,"stimulus":"img/rolling_pin.jpg","response":"n","image":"img/rolling_pin.jpg","old_or_new":"old","task":"recognition","trial_type":"image-keyboard-response","trial_index":57,"time_elapsed":111621,"internal_node_id":"0.0-3.0-0.27","subject_id":"6017ff67d472ae3ae159096c","study_id":"606233c0e42b980319b6a18e","session_id":"608858ed921943779d2c284d","correct":false},{"rt":670.1500000199303,"stimulus":"\n      <p>How sure are you?</p>\n      <p>Rate your confidence in your answer from 1 (pure guess) to 5 (very sure) by pressing the corresponding button.</p>\n     ","response":2,"image":"img/rolling_pin.jpg","task":"confidence","old_or_new":"old","trial_type":"html-button-response","trial_index":58,"time_elapsed":112292,"internal_node_id":"0.0-3.0-1.27","subject_id":"6017ff67d472ae3ae159096c","study_id":"606233c0e42b980319b6a18e","session_id":"608858ed921943779d2c284d"},{"rt":954.5249999500811,"stimulus":"img/seashell_alternate.jpg","response":"n","image":"img/seashell_alternate.jpg","old_or_new":"new","task":"recognition","trial_type":"image-keyboard-response","trial_index":59,"time_elapsed":113749,"internal_node_id":"0.0-3.0-0.28","subject_id":"6017ff67d472ae3ae159096c","study_id":"606233c0e42b980319b6a18e","session_id":"608858ed921943779d2c284d","correct":true},{"rt":409.0200000209734,"stimulus":"\n      <p>How sure are you?</p>\n      <p>Rate your confidence in your answer from 1 (pure guess) to 5 (very sure) by pressing the corresponding button.</p>\n     ","response":3,"image":"img/seashell_alternate.jpg","task":"confidence","old_or_new":"new","trial_type":"html-button-response","trial_index":60,"time_elapsed":114159,"internal_node_id":"0.0-3.0-1.28","subject_id":"6017ff67d472ae3ae159096c","study_id":"606233c0e42b980319b6a18e","session_id":"608858ed921943779d2c284d"},{"rt":889.6599999861792,"stimulus":"img/scissors.jpg","response":"n","image":"img/scissors.jpg","old_or_new":"old","task":"recognition","trial_type":"image-keyboard-response","trial_index":61,"time_elapsed":115551,"internal_node_id":"0.0-3.0-0.29","subject_id":"6017ff67d472ae3ae159096c","study_id":"606233c0e42b980319b6a18e","session_id":"608858ed921943779d2c284d","correct":false},{"rt":495.01499999314547,"stimulus":"\n      <p>How sure are you?</p>\n      <p>Rate your confidence in your answer from 1 (pure guess) to 5 (very sure) by pressing the corresponding button.</p>\n     ","response":3,"image":"img/scissors.jpg","task":"confidence","old_or_new":"old","trial_type":"html-button-response","trial_index":62,"time_elapsed":116047,"internal_node_id":"0.0-3.0-1.29","subject_id":"6017ff67d472ae3ae159096c","study_id":"606233c0e42b980319b6a18e","session_id":"608858ed921943779d2c284d"},{"rt":745.2200000407174,"stimulus":"img/shoe_alternate.jpg","response":"n","image":"img/shoe_alternate.jpg","old_or_new":"new","task":"recognition","trial_type":"image-keyboard-response","trial_index":63,"time_elapsed":117295,"internal_node_id":"0.0-3.0-0.30","subject_id":"6017ff67d472ae3ae159096c","study_id":"606233c0e42b980319b6a18e","session_id":"608858ed921943779d2c284d","correct":true},{"rt":468.8249999890104,"stimulus":"\n      <p>How sure are you?</p>\n      <p>Rate your confidence in your answer from 1 (pure guess) to 5 (very sure) by pressing the corresponding button.</p>\n     ","response":4,"image":"img/shoe_alternate.jpg","task":"confidence","old_or_new":"new","trial_type":"html-button-response","trial_index":64,"time_elapsed":117765,"internal_node_id":"0.0-3.0-1.30","subject_id":"6017ff67d472ae3ae159096c","study_id":"606233c0e42b980319b6a18e","session_id":"608858ed921943779d2c284d"},{"rt":948.8049999345094,"stimulus":"img/plane_alternate.jpg","response":"n","image":"img/plane_alternate.jpg","old_or_new":"new","task":"recognition","trial_type":"image-keyboard-response","trial_index":65,"time_elapsed":119216,"internal_node_id":"0.0-3.0-0.31","subject_id":"6017ff67d472ae3ae159096c","study_id":"606233c0e42b980319b6a18e","session_id":"608858ed921943779d2c284d","correct":true},{"rt":573.3999999938533,"stimulus":"\n      <p>How sure are you?</p>\n      <p>Rate your confidence in your answer from 1 (pure guess) to 5 (very sure) by pressing the corresponding button.</p>\n     ","response":3,"image":"img/plane_alternate.jpg","task":"confidence","old_or_new":"new","trial_type":"html-button-response","trial_index":66,"time_elapsed":119791,"internal_node_id":"0.0-3.0-1.31","subject_id":"6017ff67d472ae3ae159096c","study_id":"606233c0e42b980319b6a18e","session_id":"608858ed921943779d2c284d"},{"rt":666.3399999961257,"stimulus":"img/umbrella.jpg","response":"y","image":"img/umbrella.jpg","old_or_new":"old","task":"recognition","trial_type":"image-keyboard-response","trial_index":67,"time_elapsed":120959,"internal_node_id":"0.0-3.0-0.32","subject_id":"6017ff67d472ae3ae159096c","study_id":"606233c0e42b980319b6a18e","session_id":"608858ed921943779d2c284d","correct":true},{"rt":482.26999992039055,"stimulus":"\n      <p>How sure are you?</p>\n      <p>Rate your confidence in your answer from 1 (pure guess) to 5 (very sure) by pressing the corresponding button.</p>\n     ","response":4,"image":"img/umbrella.jpg","task":"confidence","old_or_new":"old","trial_type":"html-button-response","trial_index":68,"time_elapsed":121443,"internal_node_id":"0.0-3.0-1.32","subject_id":"6017ff67d472ae3ae159096c","study_id":"606233c0e42b980319b6a18e","session_id":"608858ed921943779d2c284d"},{"rt":628.4199999645352,"stimulus":"img/wheel_barrow_alternate.jpg","response":"y","image":"img/wheel_barrow_alternate.jpg","old_or_new":"new","task":"recognition","trial_type":"image-keyboard-response","trial_index":69,"time_elapsed":122573,"internal_node_id":"0.0-3.0-0.33","subject_id":"6017ff67d472ae3ae159096c","study_id":"606233c0e42b980319b6a18e","session_id":"608858ed921943779d2c284d","correct":false},{"rt":412.2600000118837,"stimulus":"\n      <p>How sure are you?</p>\n      <p>Rate your confidence in your answer from 1 (pure guess) to 5 (very sure) by pressing the corresponding button.</p>\n     ","response":4,"image":"img/wheel_barrow_alternate.jpg","task":"confidence","old_or_new":"new","trial_type":"html-button-response","trial_index":70,"time_elapsed":122986,"internal_node_id":"0.0-3.0-1.33","subject_id":"6017ff67d472ae3ae159096c","study_id":"606233c0e42b980319b6a18e","session_id":"608858ed921943779d2c284d"},{"rt":920.6849999027327,"stimulus":"img/watch_alternate.jpg","response":"n","image":"img/watch_alternate.jpg","old_or_new":"new","task":"recognition","trial_type":"image-keyboard-response","trial_index":71,"time_elapsed":124409,"internal_node_id":"0.0-3.0-0.34","subject_id":"6017ff67d472ae3ae159096c","study_id":"606233c0e42b980319b6a18e","session_id":"608858ed921943779d2c284d","correct":true},{"rt":1043.6899999622256,"stimulus":"\n      <p>How sure are you?</p>\n      <p>Rate your confidence in your answer from 1 (pure guess) to 5 (very sure) by pressing the corresponding button.</p>\n     ","response":1,"image":"img/watch_alternate.jpg","task":"confidence","old_or_new":"new","trial_type":"html-button-response","trial_index":72,"time_elapsed":125454,"internal_node_id":"0.0-3.0-1.34","subject_id":"6017ff67d472ae3ae159096c","study_id":"606233c0e42b980319b6a18e","session_id":"608858ed921943779d2c284d"},{"rt":780.8850000146776,"stimulus":"img/seashell.jpg","response":"n","image":"img/seashell.jpg","old_or_new":"old","task":"recognition","trial_type":"image-keyboard-response","trial_index":73,"time_elapsed":126737,"internal_node_id":"0.0-3.0-0.35","subject_id":"6017ff67d472ae3ae159096c","study_id":"606233c0e42b980319b6a18e","session_id":"608858ed921943779d2c284d","correct":false},{"rt":383.8849999010563,"stimulus":"\n      <p>How sure are you?</p>\n      <p>Rate your confidence in your answer from 1 (pure guess) to 5 (very sure) by pressing the corresponding button.</p>\n     ","response":1,"image":"img/seashell.jpg","task":"confidence","old_or_new":"old","trial_type":"html-button-response","trial_index":74,"time_elapsed":127122,"internal_node_id":"0.0-3.0-1.35","subject_id":"6017ff67d472ae3ae159096c","study_id":"606233c0e42b980319b6a18e","session_id":"608858ed921943779d2c284d"},{"rt":1649.6050000423566,"stimulus":"img/toaster_alternate.jpg","response":"y","image":"img/toaster_alternate.jpg","old_or_new":"new","task":"recognition","trial_type":"image-keyboard-response","trial_index":75,"time_elapsed":129275,"internal_node_id":"0.0-3.0-0.36","subject_id":"6017ff67d472ae3ae159096c","study_id":"606233c0e42b980319b6a18e","session_id":"608858ed921943779d2c284d","correct":false},{"rt":872.6999999489635,"stimulus":"\n      <p>How sure are you?</p>\n      <p>Rate your confidence in your answer from 1 (pure guess) to 5 (very sure) by pressing the corresponding button.</p>\n     ","response":4,"image":"img/toaster_alternate.jpg","task":"confidence","old_or_new":"new","trial_type":"html-button-response","trial_index":76,"time_elapsed":130149,"internal_node_id":"0.0-3.0-1.36","subject_id":"6017ff67d472ae3ae159096c","study_id":"606233c0e42b980319b6a18e","session_id":"608858ed921943779d2c284d"},{"rt":866.0099999979138,"stimulus":"img/knife.jpg","response":"y","image":"img/knife.jpg","old_or_new":"old","task":"recognition","trial_type":"image-keyboard-response","trial_index":77,"time_elapsed":131517,"internal_node_id":"0.0-3.0-0.37","subject_id":"6017ff67d472ae3ae159096c","study_id":"606233c0e42b980319b6a18e","session_id":"608858ed921943779d2c284d","correct":true},{"rt":660.0150000303984,"stimulus":"\n      <p>How sure are you?</p>\n      <p>Rate your confidence in your answer from 1 (pure guess) to 5 (very sure) by pressing the corresponding button.</p>\n     ","response":4,"image":"img/knife.jpg","task":"confidence","old_or_new":"old","trial_type":"html-button-response","trial_index":78,"time_elapsed":132178,"internal_node_id":"0.0-3.0-1.37","subject_id":"6017ff67d472ae3ae159096c","study_id":"606233c0e42b980319b6a18e","session_id":"608858ed921943779d2c284d"},{"rt":610.8649999368936,"stimulus":"img/knife_alternate.jpg","response":"y","image":"img/knife_alternate.jpg","old_or_new":"new","task":"recognition","trial_type":"image-keyboard-response","trial_index":79,"time_elapsed":133291,"internal_node_id":"0.0-3.0-0.38","subject_id":"6017ff67d472ae3ae159096c","study_id":"606233c0e42b980319b6a18e","session_id":"608858ed921943779d2c284d","correct":false},{"rt":373.35500004701316,"stimulus":"\n      <p>How sure are you?</p>\n      <p>Rate your confidence in your answer from 1 (pure guess) to 5 (very sure) by pressing the corresponding button.</p>\n     ","response":4,"image":"img/knife_alternate.jpg","task":"confidence","old_or_new":"new","trial_type":"html-button-response","trial_index":80,"time_elapsed":133665,"internal_node_id":"0.0-3.0-1.38","subject_id":"6017ff67d472ae3ae159096c","study_id":"606233c0e42b980319b6a18e","session_id":"608858ed921943779d2c284d"},{"rt":1049.1450000554323,"stimulus":"img/spoon_alternate.jpg","response":"n","image":"img/spoon_alternate.jpg","old_or_new":"new","task":"recognition","trial_type":"image-keyboard-response","trial_index":81,"time_elapsed":135217,"internal_node_id":"0.0-3.0-0.39","subject_id":"6017ff67d472ae3ae159096c","study_id":"606233c0e42b980319b6a18e","session_id":"608858ed921943779d2c284d","correct":true},{"rt":418.6749999644235,"stimulus":"\n      <p>How sure are you?</p>\n      <p>Rate your confidence in your answer from 1 (pure guess) to 5 (very sure) by pressing the corresponding button.</p>\n     ","response":1,"image":"img/spoon_alternate.jpg","task":"confidence","old_or_new":"new","trial_type":"html-button-response","trial_index":82,"time_elapsed":135636,"internal_node_id":"0.0-3.0-1.39","subject_id":"6017ff67d472ae3ae159096c","study_id":"606233c0e42b980319b6a18e","session_id":"608858ed921943779d2c284d"},{"rt":592.9199999663979,"stimulus":"img/rolling_pin_alternate.jpg","response":"y","image":"img/rolling_pin_alternate.jpg","old_or_new":"new","task":"recognition","trial_type":"image-keyboard-response","trial_index":83,"time_elapsed":136731,"internal_node_id":"0.0-3.0-0.40","subject_id":"6017ff67d472ae3ae159096c","study_id":"606233c0e42b980319b6a18e","session_id":"608858ed921943779d2c284d","correct":false},{"rt":2055.144999991171,"stimulus":"\n      <p>How sure are you?</p>\n      <p>Rate your confidence in your answer from 1 (pure guess) to 5 (very sure) by pressing the corresponding button.</p>\n     ","response":3,"image":"img/rolling_pin_alternate.jpg","task":"confidence","old_or_new":"new","trial_type":"html-button-response","trial_index":84,"time_elapsed":138787,"internal_node_id":"0.0-3.0-1.40","subject_id":"6017ff67d472ae3ae159096c","study_id":"606233c0e42b980319b6a18e","session_id":"608858ed921943779d2c284d"},{"rt":2092.5150000257418,"stimulus":"img/trophy.jpg","response":"y","image":"img/trophy.jpg","old_or_new":"old","task":"recognition","trial_type":"image-keyboard-response","trial_index":85,"time_elapsed":141383,"internal_node_id":"0.0-3.0-0.41","subject_id":"6017ff67d472ae3ae159096c","study_id":"606233c0e42b980319b6a18e","session_id":"608858ed921943779d2c284d","correct":true},{"rt":1758.6799999698997,"stimulus":"\n      <p>How sure are you?</p>\n      <p>Rate your confidence in your answer from 1 (pure guess) to 5 (very sure) by pressing the corresponding button.</p>\n     ","response":2,"image":"img/trophy.jpg","task":"confidence","old_or_new":"old","trial_type":"html-button-response","trial_index":86,"time_elapsed":143142,"internal_node_id":"0.0-3.0-1.41","subject_id":"6017ff67d472ae3ae159096c","study_id":"606233c0e42b980319b6a18e","session_id":"608858ed921943779d2c284d"},{"rt":1188.2850000401959,"stimulus":"img/wheel_barrow.jpg","response":"y","image":"img/wheel_barrow.jpg","old_or_new":"old","task":"recognition","trial_type":"image-keyboard-response","trial_index":87,"time_elapsed":144834,"internal_node_id":"0.0-3.0-0.42","subject_id":"6017ff67d472ae3ae159096c","study_id":"606233c0e42b980319b6a18e","session_id":"608858ed921943779d2c284d","correct":true},{"rt":376.1299999896437,"stimulus":"\n      <p>How sure are you?</p>\n      <p>Rate your confidence in your answer from 1 (pure guess) to 5 (very sure) by pressing the corresponding button.</p>\n     ","response":4,"image":"img/wheel_barrow.jpg","task":"confidence","old_or_new":"old","trial_type":"html-button-response","trial_index":88,"time_elapsed":145211,"internal_node_id":"0.0-3.0-1.42","subject_id":"6017ff67d472ae3ae159096c","study_id":"606233c0e42b980319b6a18e","session_id":"608858ed921943779d2c284d"},{"rt":1173.1450000079349,"stimulus":"img/watch.jpg","response":"y","image":"img/watch.jpg","old_or_new":"old","task":"recognition","trial_type":"image-keyboard-response","trial_index":89,"time_elapsed":146888,"internal_node_id":"0.0-3.0-0.43","subject_id":"6017ff67d472ae3ae159096c","study_id":"606233c0e42b980319b6a18e","session_id":"608858ed921943779d2c284d","correct":true},{"rt":388.65000009536743,"stimulus":"\n      <p>How sure are you?</p>\n      <p>Rate your confidence in your answer from 1 (pure guess) to 5 (very sure) by pressing the corresponding button.</p>\n     ","response":4,"image":"img/watch.jpg","task":"confidence","old_or_new":"old","trial_type":"html-button-response","trial_index":90,"time_elapsed":147278,"internal_node_id":"0.0-3.0-1.43","subject_id":"6017ff67d472ae3ae159096c","study_id":"606233c0e42b980319b6a18e","session_id":"608858ed921943779d2c284d"},{"rt":1696.4549999684095,"stimulus":"img/pizza_alternate.jpg","response":"n","image":"img/pizza_alternate.jpg","old_or_new":"new","task":"recognition","trial_type":"image-keyboard-response","trial_index":91,"time_elapsed":149477,"internal_node_id":"0.0-3.0-0.44","subject_id":"6017ff67d472ae3ae159096c","study_id":"606233c0e42b980319b6a18e","session_id":"608858ed921943779d2c284d","correct":true},{"rt":410.4299999307841,"stimulus":"\n      <p>How sure are you?</p>\n      <p>Rate your confidence in your answer from 1 (pure guess) to 5 (very sure) by pressing the corresponding button.</p>\n     ","response":1,"image":"img/pizza_alternate.jpg","task":"confidence","old_or_new":"new","trial_type":"html-button-response","trial_index":92,"time_elapsed":149888,"internal_node_id":"0.0-3.0-1.44","subject_id":"6017ff67d472ae3ae159096c","study_id":"606233c0e42b980319b6a18e","session_id":"608858ed921943779d2c284d"},{"rt":1451.2000000104308,"stimulus":"img/toothbrush_alternate.jpg","response":"n","image":"img/toothbrush_alternate.jpg","old_or_new":"new","task":"recognition","trial_type":"image-keyboard-response","trial_index":93,"time_elapsed":151842,"internal_node_id":"0.0-3.0-0.45","subject_id":"6017ff67d472ae3ae159096c","study_id":"606233c0e42b980319b6a18e","session_id":"608858ed921943779d2c284d","correct":true},{"rt":560.1000000024214,"stimulus":"\n      <p>How sure are you?</p>\n      <p>Rate your confidence in your answer from 1 (pure guess) to 5 (very sure) by pressing the corresponding button.</p>\n     ","response":3,"image":"img/toothbrush_alternate.jpg","task":"confidence","old_or_new":"new","trial_type":"html-button-response","trial_index":94,"time_elapsed":152403,"internal_node_id":"0.0-3.0-1.45","subject_id":"6017ff67d472ae3ae159096c","study_id":"606233c0e42b980319b6a18e","session_id":"608858ed921943779d2c284d"},{"rt":878.5550000611693,"stimulus":"img/power_cord.jpg","response":"y","image":"img/power_cord.jpg","old_or_new":"old","task":"recognition","trial_type":"image-keyboard-response","trial_index":95,"time_elapsed":153784,"internal_node_id":"0.0-3.0-0.46","subject_id":"6017ff67d472ae3ae159096c","study_id":"606233c0e42b980319b6a18e","session_id":"608858ed921943779d2c284d","correct":true},{"rt":304.43999997805804,"stimulus":"\n      <p>How sure are you?</p>\n      <p>Rate your confidence in your answer from 1 (pure guess) to 5 (very sure) by pressing the corresponding button.</p>\n     ","response":4,"image":"img/power_cord.jpg","task":"confidence","old_or_new":"old","trial_type":"html-button-response","trial_index":96,"time_elapsed":154089,"internal_node_id":"0.0-3.0-1.46","subject_id":"6017ff67d472ae3ae159096c","study_id":"606233c0e42b980319b6a18e","session_id":"608858ed921943779d2c284d"},{"rt":690.2400000253692,"stimulus":"img/sink.jpg","response":"y","image":"img/sink.jpg","old_or_new":"old","task":"recognition","trial_type":"image-keyboard-response","trial_index":97,"time_elapsed":155281,"internal_node_id":"0.0-3.0-0.47","subject_id":"6017ff67d472ae3ae159096c","study_id":"606233c0e42b980319b6a18e","session_id":"608858ed921943779d2c284d","correct":true},{"rt":236.12999997567385,"stimulus":"\n      <p>How sure are you?</p>\n      <p>Rate your confidence in your answer from 1 (pure guess) to 5 (very sure) by pressing the corresponding button.</p>\n     ","response":4,"image":"img/sink.jpg","task":"confidence","old_or_new":"old","trial_type":"html-button-response","trial_index":98,"time_elapsed":155518,"internal_node_id":"0.0-3.0-1.47","subject_id":"6017ff67d472ae3ae159096c","study_id":"606233c0e42b980319b6a18e","session_id":"608858ed921943779d2c284d"}]