[{"success":true,"timeout":false,"failed_images":[],"failed_audio":[],"failed_video":[],"trial_type":"preload","trial_index":0,"time_elapsed":4214,"internal_node_id":"0.0-0.0","subject_id":"5fefcbb9bbdf7f348f598fa6","study_id":"607de2837874a824e2e8c6ec","session_id":"6088502049cb861e5ae199c7"},{"rt":9548.734999960288,"stimulus":"\n      <div style=\"width:800px; text-align: left;\">\n        <p>Welcome to day 2 of the experiment! Thanks for coming back.</p>\n        <p>You will be presented with a series of images. Images will appear one at a time.</p>\n        <p>Each image will remain on the screen until you press either <span style=\"font-weight: bold;\">\"y\" to indicate you have seen the \n        exact same photo the day before or \"n\" to indicate you have not seen the exact same photo the day before.</span></p>\n        <p>After you answer yes (\"y\") or no (\"n\"), you will then be prompted to rate your certainty on a scale of\n        1 (pure guess) to 5 (very sure).</p>\n      </div>\n    ","response":0,"trial_type":"html-button-response","trial_index":1,"time_elapsed":13766,"internal_node_id":"0.0-1.0","subject_id":"5fefcbb9bbdf7f348f598fa6","study_id":"607de2837874a824e2e8c6ec","session_id":"6088502049cb861e5ae199c7"},{"success":true,"trial_type":"fullscreen","trial_index":2,"time_elapsed":17236,"internal_node_id":"0.0-2.0","subject_id":"5fefcbb9bbdf7f348f598fa6","study_id":"607de2837874a824e2e8c6ec","session_id":"6088502049cb861e5ae199c7"},{"rt":5068.889999995008,"stimulus":"img/basket.jpg","response":"y","image":"img/basket.jpg","old_or_new":"old","task":"recognition","trial_type":"image-keyboard-response","trial_index":3,"time_elapsed":22345,"internal_node_id":"0.0-3.0-0.0","subject_id":"5fefcbb9bbdf7f348f598fa6","study_id":"607de2837874a824e2e8c6ec","session_id":"6088502049cb861e5ae199c7","correct":true},{"rt":3778.3150000032037,"stimulus":"\n      <p>How sure are you?</p>\n      <p>Rate your confidence in your answer from 1 (pure guess) to 5 (very sure) by pressing the corresponding button.</p>\n     ","response":4,"image":"img/basket.jpg","task":"confidence","old_or_new":"old","trial_type":"html-button-response","trial_index":4,"time_elapsed":26126,"internal_node_id":"0.0-3.0-1.0","subject_id":"5fefcbb9bbdf7f348f598fa6","study_id":"607de2837874a824e2e8c6ec","session_id":"6088502049cb861e5ae199c7"},{"rt":2620.6350000575185,"stimulus":"img/hat.jpg","response":"n","image":"img/hat.jpg","old_or_new":"old","task":"recognition","trial_type":"image-keyboard-response","trial_index":5,"time_elapsed":29254,"internal_node_id":"0.0-3.0-0.1","subject_id":"5fefcbb9bbdf7f348f598fa6","study_id":"607de2837874a824e2e8c6ec","session_id":"6088502049cb861e5ae199c7","correct":false},{"rt":5325.064999982715,"stimulus":"\n      <p>How sure are you?</p>\n      <p>Rate your confidence in your answer from 1 (pure guess) to 5 (very sure) by pressing the corresponding button.</p>\n     ","response":2,"image":"img/hat.jpg","task":"confidence","old_or_new":"old","trial_type":"html-button-response","trial_index":6,"time_elapsed":34582,"internal_node_id":"0.0-3.0-1.1","subject_id":"5fefcbb9bbdf7f348f598fa6","study_id":"607de2837874a824e2e8c6ec","session_id":"6088502049cb861e5ae199c7"},{"rt":1705.3450000239536,"stimulus":"img/fan.jpg","response":"y","image":"img/fan.jpg","old_or_new":"old","task":"recognition","trial_type":"image-keyboard-response","trial_index":7,"time_elapsed":36794,"internal_node_id":"0.0-3.0-0.2","subject_id":"5fefcbb9bbdf7f348f598fa6","study_id":"607de2837874a824e2e8c6ec","session_id":"6088502049cb861e5ae199c7","correct":true},{"rt":1281.3299999106675,"stimulus":"\n      <p>How sure are you?</p>\n      <p>Rate your confidence in your answer from 1 (pure guess) to 5 (very sure) by pressing the corresponding button.</p>\n     ","response":4,"image":"img/fan.jpg","task":"confidence","old_or_new":"old","trial_type":"html-button-response","trial_index":8,"time_elapsed":38078,"internal_node_id":"0.0-3.0-1.2","subject_id":"5fefcbb9bbdf7f348f598fa6","study_id":"607de2837874a824e2e8c6ec","session_id":"6088502049cb861e5ae199c7"},{"rt":2725.3400000045076,"stimulus":"img/grapes_alternate.jpg","response":"n","image":"img/grapes_alternate.jpg","old_or_new":"new","task":"recognition","trial_type":"image-keyboard-response","trial_index":9,"time_elapsed":41323,"internal_node_id":"0.0-3.0-0.3","subject_id":"5fefcbb9bbdf7f348f598fa6","study_id":"607de2837874a824e2e8c6ec","session_id":"6088502049cb861e5ae199c7","correct":true},{"rt":1580.6349999038503,"stimulus":"\n      <p>How sure are you?</p>\n      <p>Rate your confidence in your answer from 1 (pure guess) to 5 (very sure) by pressing the corresponding button.</p>\n     ","response":4,"image":"img/grapes_alternate.jpg","task":"confidence","old_or_new":"new","trial_type":"html-button-response","trial_index":10,"time_elapsed":42905,"internal_node_id":"0.0-3.0-1.3","subject_id":"5fefcbb9bbdf7f348f598fa6","study_id":"607de2837874a824e2e8c6ec","session_id":"6088502049cb861e5ae199c7"},{"rt":1704.2549999896437,"stimulus":"img/hair_tie.jpg","response":"y","image":"img/hair_tie.jpg","old_or_new":"old","task":"recognition","trial_type":"image-keyboard-response","trial_index":11,"time_elapsed":45124,"internal_node_id":"0.0-3.0-0.4","subject_id":"5fefcbb9bbdf7f348f598fa6","study_id":"607de2837874a824e2e8c6ec","session_id":"6088502049cb861e5ae199c7","correct":true},{"rt":1995.615000021644,"stimulus":"\n      <p>How sure are you?</p>\n      <p>Rate your confidence in your answer from 1 (pure guess) to 5 (very sure) by pressing the corresponding button.</p>\n     ","response":4,"image":"img/hair_tie.jpg","task":"confidence","old_or_new":"old","trial_type":"html-button-response","trial_index":12,"time_elapsed":47121,"internal_node_id":"0.0-3.0-1.4","subject_id":"5fefcbb9bbdf7f348f598fa6","study_id":"607de2837874a824e2e8c6ec","session_id":"6088502049cb861e5ae199c7"},{"rt":3267.310000024736,"stimulus":"img/leaf.jpg","response":"y","image":"img/leaf.jpg","old_or_new":"old","task":"recognition","trial_type":"image-keyboard-response","trial_index":13,"time_elapsed":50892,"internal_node_id":"0.0-3.0-0.5","subject_id":"5fefcbb9bbdf7f348f598fa6","study_id":"607de2837874a824e2e8c6ec","session_id":"6088502049cb861e5ae199c7","correct":true},{"rt":1810.9349999576807,"stimulus":"\n      <p>How sure are you?</p>\n      <p>Rate your confidence in your answer from 1 (pure guess) to 5 (very sure) by pressing the corresponding button.</p>\n     ","response":4,"image":"img/leaf.jpg","task":"confidence","old_or_new":"old","trial_type":"html-button-response","trial_index":14,"time_elapsed":52705,"internal_node_id":"0.0-3.0-1.5","subject_id":"5fefcbb9bbdf7f348f598fa6","study_id":"607de2837874a824e2e8c6ec","session_id":"6088502049cb861e5ae199c7"},{"rt":1932.230000034906,"stimulus":"img/lightbulb_alternate.jpg","response":"n","image":"img/lightbulb_alternate.jpg","old_or_new":"new","task":"recognition","trial_type":"image-keyboard-response","trial_index":15,"time_elapsed":55141,"internal_node_id":"0.0-3.0-0.6","subject_id":"5fefcbb9bbdf7f348f598fa6","study_id":"607de2837874a824e2e8c6ec","session_id":"6088502049cb861e5ae199c7","correct":true},{"rt":1107.9600000521168,"stimulus":"\n      <p>How sure are you?</p>\n      <p>Rate your confidence in your answer from 1 (pure guess) to 5 (very sure) by pressing the corresponding button.</p>\n     ","response":4,"image":"img/lightbulb_alternate.jpg","task":"confidence","old_or_new":"new","trial_type":"html-button-response","trial_index":16,"time_elapsed":56250,"internal_node_id":"0.0-3.0-1.6","subject_id":"5fefcbb9bbdf7f348f598fa6","study_id":"607de2837874a824e2e8c6ec","session_id":"6088502049cb861e5ae199c7"},{"rt":1938.1399999838322,"stimulus":"img/folder_alternate.jpg","response":"n","image":"img/folder_alternate.jpg","old_or_new":"new","task":"recognition","trial_type":"image-keyboard-response","trial_index":17,"time_elapsed":58695,"internal_node_id":"0.0-3.0-0.7","subject_id":"5fefcbb9bbdf7f348f598fa6","study_id":"607de2837874a824e2e8c6ec","session_id":"6088502049cb861e5ae199c7","correct":true},{"rt":876.6649999888614,"stimulus":"\n      <p>How sure are you?</p>\n      <p>Rate your confidence in your answer from 1 (pure guess) to 5 (very sure) by pressing the corresponding button.</p>\n     ","response":4,"image":"img/folder_alternate.jpg","task":"confidence","old_or_new":"new","trial_type":"html-button-response","trial_index":18,"time_elapsed":59573,"internal_node_id":"0.0-3.0-1.7","subject_id":"5fefcbb9bbdf7f348f598fa6","study_id":"607de2837874a824e2e8c6ec","session_id":"6088502049cb861e5ae199c7"},{"rt":5397.22000004258,"stimulus":"img/fan_alternate.jpg","response":"n","image":"img/fan_alternate.jpg","old_or_new":"new","task":"recognition","trial_type":"image-keyboard-response","trial_index":19,"time_elapsed":65475,"internal_node_id":"0.0-3.0-0.8","subject_id":"5fefcbb9bbdf7f348f598fa6","study_id":"607de2837874a824e2e8c6ec","session_id":"6088502049cb861e5ae199c7","correct":true},{"rt":1054.6549999853596,"stimulus":"\n      <p>How sure are you?</p>\n      <p>Rate your confidence in your answer from 1 (pure guess) to 5 (very sure) by pressing the corresponding button.</p>\n     ","response":2,"image":"img/fan_alternate.jpg","task":"confidence","old_or_new":"new","trial_type":"html-button-response","trial_index":20,"time_elapsed":66534,"internal_node_id":"0.0-3.0-1.8","subject_id":"5fefcbb9bbdf7f348f598fa6","study_id":"607de2837874a824e2e8c6ec","session_id":"6088502049cb861e5ae199c7"},{"rt":1165.8799999859184,"stimulus":"img/hat_alternate.jpg","response":"n","image":"img/hat_alternate.jpg","old_or_new":"new","task":"recognition","trial_type":"image-keyboard-response","trial_index":21,"time_elapsed":68205,"internal_node_id":"0.0-3.0-0.9","subject_id":"5fefcbb9bbdf7f348f598fa6","study_id":"607de2837874a824e2e8c6ec","session_id":"6088502049cb861e5ae199c7","correct":true},{"rt":954.8550000181422,"stimulus":"\n      <p>How sure are you?</p>\n      <p>Rate your confidence in your answer from 1 (pure guess) to 5 (very sure) by pressing the corresponding button.</p>\n     ","response":4,"image":"img/hat_alternate.jpg","task":"confidence","old_or_new":"new","trial_type":"html-button-response","trial_index":22,"time_elapsed":69161,"internal_node_id":"0.0-3.0-1.9","subject_id":"5fefcbb9bbdf7f348f598fa6","study_id":"607de2837874a824e2e8c6ec","session_id":"6088502049cb861e5ae199c7"},{"rt":2373.0849999701604,"stimulus":"img/basket_alternate.jpg","response":"y","image":"img/basket_alternate.jpg","old_or_new":"new","task":"recognition","trial_type":"image-keyboard-response","trial_index":23,"time_elapsed":72049,"internal_node_id":"0.0-3.0-0.10","subject_id":"5fefcbb9bbdf7f348f598fa6","study_id":"607de2837874a824e2e8c6ec","session_id":"6088502049cb861e5ae199c7","correct":false},{"rt":1410.829999949783,"stimulus":"\n      <p>How sure are you?</p>\n      <p>Rate your confidence in your answer from 1 (pure guess) to 5 (very sure) by pressing the corresponding button.</p>\n     ","response":4,"image":"img/basket_alternate.jpg","task":"confidence","old_or_new":"new","trial_type":"html-button-response","trial_index":24,"time_elapsed":73462,"internal_node_id":"0.0-3.0-1.10","subject_id":"5fefcbb9bbdf7f348f598fa6","study_id":"607de2837874a824e2e8c6ec","session_id":"6088502049cb861e5ae199c7"},{"rt":1432.4049999704584,"stimulus":"img/dryer_alternate.jpg","response":"n","image":"img/dryer_alternate.jpg","old_or_new":"new","task":"recognition","trial_type":"image-keyboard-response","trial_index":25,"time_elapsed":75398,"internal_node_id":"0.0-3.0-0.11","subject_id":"5fefcbb9bbdf7f348f598fa6","study_id":"607de2837874a824e2e8c6ec","session_id":"6088502049cb861e5ae199c7","correct":true},{"rt":1825.8350000251085,"stimulus":"\n      <p>How sure are you?</p>\n      <p>Rate your confidence in your answer from 1 (pure guess) to 5 (very sure) by pressing the corresponding button.</p>\n     ","response":3,"image":"img/dryer_alternate.jpg","task":"confidence","old_or_new":"new","trial_type":"html-button-response","trial_index":26,"time_elapsed":77226,"internal_node_id":"0.0-3.0-1.11","subject_id":"5fefcbb9bbdf7f348f598fa6","study_id":"607de2837874a824e2e8c6ec","session_id":"6088502049cb861e5ae199c7"},{"rt":1377.3499999660999,"stimulus":"img/chair.jpg","response":"y","image":"img/chair.jpg","old_or_new":"old","task":"recognition","trial_type":"image-keyboard-response","trial_index":27,"time_elapsed":79110,"internal_node_id":"0.0-3.0-0.12","subject_id":"5fefcbb9bbdf7f348f598fa6","study_id":"607de2837874a824e2e8c6ec","session_id":"6088502049cb861e5ae199c7","correct":true},{"rt":1428.7900000344962,"stimulus":"\n      <p>How sure are you?</p>\n      <p>Rate your confidence in your answer from 1 (pure guess) to 5 (very sure) by pressing the corresponding button.</p>\n     ","response":4,"image":"img/chair.jpg","task":"confidence","old_or_new":"old","trial_type":"html-button-response","trial_index":28,"time_elapsed":80541,"internal_node_id":"0.0-3.0-1.12","subject_id":"5fefcbb9bbdf7f348f598fa6","study_id":"607de2837874a824e2e8c6ec","session_id":"6088502049cb861e5ae199c7"},{"rt":1798.424999928102,"stimulus":"img/camera_alternate.jpg","response":"n","image":"img/camera_alternate.jpg","old_or_new":"new","task":"recognition","trial_type":"image-keyboard-response","trial_index":29,"time_elapsed":82845,"internal_node_id":"0.0-3.0-0.13","subject_id":"5fefcbb9bbdf7f348f598fa6","study_id":"607de2837874a824e2e8c6ec","session_id":"6088502049cb861e5ae199c7","correct":true},{"rt":1263.1700000492856,"stimulus":"\n      <p>How sure are you?</p>\n      <p>Rate your confidence in your answer from 1 (pure guess) to 5 (very sure) by pressing the corresponding button.</p>\n     ","response":3,"image":"img/camera_alternate.jpg","task":"confidence","old_or_new":"new","trial_type":"html-button-response","trial_index":30,"time_elapsed":84109,"internal_node_id":"0.0-3.0-1.13","subject_id":"5fefcbb9bbdf7f348f598fa6","study_id":"607de2837874a824e2e8c6ec","session_id":"6088502049cb861e5ae199c7"},{"rt":3269.2250000545755,"stimulus":"img/helmet_alternate.jpg","response":"n","image":"img/helmet_alternate.jpg","old_or_new":"new","task":"recognition","trial_type":"image-keyboard-response","trial_index":31,"time_elapsed":87883,"internal_node_id":"0.0-3.0-0.14","subject_id":"5fefcbb9bbdf7f348f598fa6","study_id":"607de2837874a824e2e8c6ec","session_id":"6088502049cb861e5ae199c7","correct":true},{"rt":1704.2099999962375,"stimulus":"\n      <p>How sure are you?</p>\n      <p>Rate your confidence in your answer from 1 (pure guess) to 5 (very sure) by pressing the corresponding button.</p>\n     ","response":2,"image":"img/helmet_alternate.jpg","task":"confidence","old_or_new":"new","trial_type":"html-button-response","trial_index":32,"time_elapsed":89589,"internal_node_id":"0.0-3.0-1.14","subject_id":"5fefcbb9bbdf7f348f598fa6","study_id":"607de2837874a824e2e8c6ec","session_id":"6088502049cb861e5ae199c7"},{"rt":1611.5149999968708,"stimulus":"img/leaf_alternate.jpg","response":"n","image":"img/leaf_alternate.jpg","old_or_new":"new","task":"recognition","trial_type":"image-keyboard-response","trial_index":33,"time_elapsed":91706,"internal_node_id":"0.0-3.0-0.15","subject_id":"5fefcbb9bbdf7f348f598fa6","study_id":"607de2837874a824e2e8c6ec","session_id":"6088502049cb861e5ae199c7","correct":true},{"rt":1261.739999987185,"stimulus":"\n      <p>How sure are you?</p>\n      <p>Rate your confidence in your answer from 1 (pure guess) to 5 (very sure) by pressing the corresponding button.</p>\n     ","response":4,"image":"img/leaf_alternate.jpg","task":"confidence","old_or_new":"new","trial_type":"html-button-response","trial_index":34,"time_elapsed":92969,"internal_node_id":"0.0-3.0-1.15","subject_id":"5fefcbb9bbdf7f348f598fa6","study_id":"607de2837874a824e2e8c6ec","session_id":"6088502049cb861e5ae199c7"},{"rt":1618.4200000716373,"stimulus":"img/camera.jpg","response":"y","image":"img/camera.jpg","old_or_new":"old","task":"recognition","trial_type":"image-keyboard-response","trial_index":35,"time_elapsed":95105,"internal_node_id":"0.0-3.0-0.16","subject_id":"5fefcbb9bbdf7f348f598fa6","study_id":"607de2837874a824e2e8c6ec","session_id":"6088502049cb861e5ae199c7","correct":true},{"rt":854.2649999726564,"stimulus":"\n      <p>How sure are you?</p>\n      <p>Rate your confidence in your answer from 1 (pure guess) to 5 (very sure) by pressing the corresponding button.</p>\n     ","response":4,"image":"img/camera.jpg","task":"confidence","old_or_new":"old","trial_type":"html-button-response","trial_index":36,"time_elapsed":95961,"internal_node_id":"0.0-3.0-1.16","subject_id":"5fefcbb9bbdf7f348f598fa6","study_id":"607de2837874a824e2e8c6ec","session_id":"6088502049cb861e5ae199c7"},{"rt":2015.0950000388548,"stimulus":"img/glasses.jpg","response":"y","image":"img/glasses.jpg","old_or_new":"old","task":"recognition","trial_type":"image-keyboard-response","trial_index":37,"time_elapsed":98491,"internal_node_id":"0.0-3.0-0.17","subject_id":"5fefcbb9bbdf7f348f598fa6","study_id":"607de2837874a824e2e8c6ec","session_id":"6088502049cb861e5ae199c7","correct":true},{"rt":915.5950000276789,"stimulus":"\n      <p>How sure are you?</p>\n      <p>Rate your confidence in your answer from 1 (pure guess) to 5 (very sure) by pressing the corresponding button.</p>\n     ","response":4,"image":"img/glasses.jpg","task":"confidence","old_or_new":"old","trial_type":"html-button-response","trial_index":38,"time_elapsed":99409,"internal_node_id":"0.0-3.0-1.17","subject_id":"5fefcbb9bbdf7f348f598fa6","study_id":"607de2837874a824e2e8c6ec","session_id":"6088502049cb861e5ae199c7"},{"rt":1289.1750000417233,"stimulus":"img/bowl.jpg","response":"y","image":"img/bowl.jpg","old_or_new":"old","task":"recognition","trial_type":"image-keyboard-response","trial_index":39,"time_elapsed":101204,"internal_node_id":"0.0-3.0-0.18","subject_id":"5fefcbb9bbdf7f348f598fa6","study_id":"607de2837874a824e2e8c6ec","session_id":"6088502049cb861e5ae199c7","correct":true},{"rt":1015.5050000175834,"stimulus":"\n      <p>How sure are you?</p>\n      <p>Rate your confidence in your answer from 1 (pure guess) to 5 (very sure) by pressing the corresponding button.</p>\n     ","response":4,"image":"img/bowl.jpg","task":"confidence","old_or_new":"old","trial_type":"html-button-response","trial_index":40,"time_elapsed":102221,"internal_node_id":"0.0-3.0-1.18","subject_id":"5fefcbb9bbdf7f348f598fa6","study_id":"607de2837874a824e2e8c6ec","session_id":"6088502049cb861e5ae199c7"},{"rt":5929.6399999875575,"stimulus":"img/globe.jpg","response":"y","image":"img/globe.jpg","old_or_new":"old","task":"recognition","trial_type":"image-keyboard-response","trial_index":41,"time_elapsed":108655,"internal_node_id":"0.0-3.0-0.19","subject_id":"5fefcbb9bbdf7f348f598fa6","study_id":"607de2837874a824e2e8c6ec","session_id":"6088502049cb861e5ae199c7","correct":true},{"rt":971.6199999675155,"stimulus":"\n      <p>How sure are you?</p>\n      <p>Rate your confidence in your answer from 1 (pure guess) to 5 (very sure) by pressing the corresponding button.</p>\n     ","response":3,"image":"img/globe.jpg","task":"confidence","old_or_new":"old","trial_type":"html-button-response","trial_index":42,"time_elapsed":109629,"internal_node_id":"0.0-3.0-1.19","subject_id":"5fefcbb9bbdf7f348f598fa6","study_id":"607de2837874a824e2e8c6ec","session_id":"6088502049cb861e5ae199c7"},{"rt":3890.060000005178,"stimulus":"img/dryer.jpg","response":"y","image":"img/dryer.jpg","old_or_new":"old","task":"recognition","trial_type":"image-keyboard-response","trial_index":43,"time_elapsed":114024,"internal_node_id":"0.0-3.0-0.20","subject_id":"5fefcbb9bbdf7f348f598fa6","study_id":"607de2837874a824e2e8c6ec","session_id":"6088502049cb861e5ae199c7","correct":true},{"rt":1846.1450000759214,"stimulus":"\n      <p>How sure are you?</p>\n      <p>Rate your confidence in your answer from 1 (pure guess) to 5 (very sure) by pressing the corresponding button.</p>\n     ","response":3,"image":"img/dryer.jpg","task":"confidence","old_or_new":"old","trial_type":"html-button-response","trial_index":44,"time_elapsed":115873,"internal_node_id":"0.0-3.0-1.20","subject_id":"5fefcbb9bbdf7f348f598fa6","study_id":"607de2837874a824e2e8c6ec","session_id":"6088502049cb861e5ae199c7"},{"rt":1265.6150000402704,"stimulus":"img/bowl_alternate.jpg","response":"n","image":"img/bowl_alternate.jpg","old_or_new":"new","task":"recognition","trial_type":"image-keyboard-response","trial_index":45,"time_elapsed":117646,"internal_node_id":"0.0-3.0-0.21","subject_id":"5fefcbb9bbdf7f348f598fa6","study_id":"607de2837874a824e2e8c6ec","session_id":"6088502049cb861e5ae199c7","correct":true},{"rt":765.2699999744073,"stimulus":"\n      <p>How sure are you?</p>\n      <p>Rate your confidence in your answer from 1 (pure guess) to 5 (very sure) by pressing the corresponding button.</p>\n     ","response":4,"image":"img/bowl_alternate.jpg","task":"confidence","old_or_new":"new","trial_type":"html-button-response","trial_index":46,"time_elapsed":118413,"internal_node_id":"0.0-3.0-1.21","subject_id":"5fefcbb9bbdf7f348f598fa6","study_id":"607de2837874a824e2e8c6ec","session_id":"6088502049cb861e5ae199c7"},{"rt":1244.4449999602512,"stimulus":"img/coin.jpg","response":"y","image":"img/coin.jpg","old_or_new":"old","task":"recognition","trial_type":"image-keyboard-response","trial_index":47,"time_elapsed":120164,"internal_node_id":"0.0-3.0-0.22","subject_id":"5fefcbb9bbdf7f348f598fa6","study_id":"607de2837874a824e2e8c6ec","session_id":"6088502049cb861e5ae199c7","correct":true},{"rt":1038.8749999692664,"stimulus":"\n      <p>How sure are you?</p>\n      <p>Rate your confidence in your answer from 1 (pure guess) to 5 (very sure) by pressing the corresponding button.</p>\n     ","response":4,"image":"img/coin.jpg","task":"confidence","old_or_new":"old","trial_type":"html-button-response","trial_index":48,"time_elapsed":121205,"internal_node_id":"0.0-3.0-1.22","subject_id":"5fefcbb9bbdf7f348f598fa6","study_id":"607de2837874a824e2e8c6ec","session_id":"6088502049cb861e5ae199c7"},{"rt":1412.639999995008,"stimulus":"img/ladder_alternate.jpg","response":"n","image":"img/ladder_alternate.jpg","old_or_new":"new","task":"recognition","trial_type":"image-keyboard-response","trial_index":49,"time_elapsed":123122,"internal_node_id":"0.0-3.0-0.23","subject_id":"5fefcbb9bbdf7f348f598fa6","study_id":"607de2837874a824e2e8c6ec","session_id":"6088502049cb861e5ae199c7","correct":true},{"rt":1372.9850000236183,"stimulus":"\n      <p>How sure are you?</p>\n      <p>Rate your confidence in your answer from 1 (pure guess) to 5 (very sure) by pressing the corresponding button.</p>\n     ","response":1,"image":"img/ladder_alternate.jpg","task":"confidence","old_or_new":"new","trial_type":"html-button-response","trial_index":50,"time_elapsed":124497,"internal_node_id":"0.0-3.0-1.23","subject_id":"5fefcbb9bbdf7f348f598fa6","study_id":"607de2837874a824e2e8c6ec","session_id":"6088502049cb861e5ae199c7"},{"rt":2072.084999992512,"stimulus":"img/lightbulb.jpg","response":"y","image":"img/lightbulb.jpg","old_or_new":"old","task":"recognition","trial_type":"image-keyboard-response","trial_index":51,"time_elapsed":127073,"internal_node_id":"0.0-3.0-0.24","subject_id":"5fefcbb9bbdf7f348f598fa6","study_id":"607de2837874a824e2e8c6ec","session_id":"6088502049cb861e5ae199c7","correct":true},{"rt":955.0150000723079,"stimulus":"\n      <p>How sure are you?</p>\n      <p>Rate your confidence in your answer from 1 (pure guess) to 5 (very sure) by pressing the corresponding button.</p>\n     ","response":4,"image":"img/lightbulb.jpg","task":"confidence","old_or_new":"old","trial_type":"html-button-response","trial_index":52,"time_elapsed":128031,"internal_node_id":"0.0-3.0-1.24","subject_id":"5fefcbb9bbdf7f348f598fa6","study_id":"607de2837874a824e2e8c6ec","session_id":"6088502049cb861e5ae199c7"},{"rt":1926.9299999577925,"stimulus":"img/drum.jpg","response":"y","image":"img/drum.jpg","old_or_new":"old","task":"recognition","trial_type":"image-keyboard-response","trial_index":53,"time_elapsed":130462,"internal_node_id":"0.0-3.0-0.25","subject_id":"5fefcbb9bbdf7f348f598fa6","study_id":"607de2837874a824e2e8c6ec","session_id":"6088502049cb861e5ae199c7","correct":true},{"rt":1093.2899999897927,"stimulus":"\n      <p>How sure are you?</p>\n      <p>Rate your confidence in your answer from 1 (pure guess) to 5 (very sure) by pressing the corresponding button.</p>\n     ","response":4,"image":"img/drum.jpg","task":"confidence","old_or_new":"old","trial_type":"html-button-response","trial_index":54,"time_elapsed":131557,"internal_node_id":"0.0-3.0-1.25","subject_id":"5fefcbb9bbdf7f348f598fa6","study_id":"607de2837874a824e2e8c6ec","session_id":"6088502049cb861e5ae199c7"},{"rt":1329.4000000460073,"stimulus":"img/hourglass.jpg","response":"y","image":"img/hourglass.jpg","old_or_new":"old","task":"recognition","trial_type":"image-keyboard-response","trial_index":55,"time_elapsed":133391,"internal_node_id":"0.0-3.0-0.26","subject_id":"5fefcbb9bbdf7f348f598fa6","study_id":"607de2837874a824e2e8c6ec","session_id":"6088502049cb861e5ae199c7","correct":true},{"rt":1392.284999950789,"stimulus":"\n      <p>How sure are you?</p>\n      <p>Rate your confidence in your answer from 1 (pure guess) to 5 (very sure) by pressing the corresponding button.</p>\n     ","response":4,"image":"img/hourglass.jpg","task":"confidence","old_or_new":"old","trial_type":"html-button-response","trial_index":56,"time_elapsed":134785,"internal_node_id":"0.0-3.0-1.26","subject_id":"5fefcbb9bbdf7f348f598fa6","study_id":"607de2837874a824e2e8c6ec","session_id":"6088502049cb861e5ae199c7"},{"rt":1740.5399999115616,"stimulus":"img/calculator_alternate.jpg","response":"n","image":"img/calculator_alternate.jpg","old_or_new":"new","task":"recognition","trial_type":"image-keyboard-response","trial_index":57,"time_elapsed":137031,"internal_node_id":"0.0-3.0-0.27","subject_id":"5fefcbb9bbdf7f348f598fa6","study_id":"607de2837874a824e2e8c6ec","session_id":"6088502049cb861e5ae199c7","correct":true},{"rt":1688.8650000328198,"stimulus":"\n      <p>How sure are you?</p>\n      <p>Rate your confidence in your answer from 1 (pure guess) to 5 (very sure) by pressing the corresponding button.</p>\n     ","response":2,"image":"img/calculator_alternate.jpg","task":"confidence","old_or_new":"new","trial_type":"html-button-response","trial_index":58,"time_elapsed":138721,"internal_node_id":"0.0-3.0-1.27","subject_id":"5fefcbb9bbdf7f348f598fa6","study_id":"607de2837874a824e2e8c6ec","session_id":"6088502049cb861e5ae199c7"},{"rt":1361.849999986589,"stimulus":"img/backpack_alternate.jpg","response":"n","image":"img/backpack_alternate.jpg","old_or_new":"new","task":"recognition","trial_type":"image-keyboard-response","trial_index":59,"time_elapsed":140587,"internal_node_id":"0.0-3.0-0.28","subject_id":"5fefcbb9bbdf7f348f598fa6","study_id":"607de2837874a824e2e8c6ec","session_id":"6088502049cb861e5ae199c7","correct":true},{"rt":1104.8450000816956,"stimulus":"\n      <p>How sure are you?</p>\n      <p>Rate your confidence in your answer from 1 (pure guess) to 5 (very sure) by pressing the corresponding button.</p>\n     ","response":3,"image":"img/backpack_alternate.jpg","task":"confidence","old_or_new":"new","trial_type":"html-button-response","trial_index":60,"time_elapsed":141693,"internal_node_id":"0.0-3.0-1.28","subject_id":"5fefcbb9bbdf7f348f598fa6","study_id":"607de2837874a824e2e8c6ec","session_id":"6088502049cb861e5ae199c7"},{"rt":1532.2799999266863,"stimulus":"img/hourglass_alternate.jpg","response":"n","image":"img/hourglass_alternate.jpg","old_or_new":"new","task":"recognition","trial_type":"image-keyboard-response","trial_index":61,"time_elapsed":143744,"internal_node_id":"0.0-3.0-0.29","subject_id":"5fefcbb9bbdf7f348f598fa6","study_id":"607de2837874a824e2e8c6ec","session_id":"6088502049cb861e5ae199c7","correct":true},{"rt":1118.8800000818446,"stimulus":"\n      <p>How sure are you?</p>\n      <p>Rate your confidence in your answer from 1 (pure guess) to 5 (very sure) by pressing the corresponding button.</p>\n     ","response":4,"image":"img/hourglass_alternate.jpg","task":"confidence","old_or_new":"new","trial_type":"html-button-response","trial_index":62,"time_elapsed":144865,"internal_node_id":"0.0-3.0-1.29","subject_id":"5fefcbb9bbdf7f348f598fa6","study_id":"607de2837874a824e2e8c6ec","session_id":"6088502049cb861e5ae199c7"},{"rt":1948.1949999462813,"stimulus":"img/calculator.jpg","response":"y","image":"img/calculator.jpg","old_or_new":"old","task":"recognition","trial_type":"image-keyboard-response","trial_index":63,"time_elapsed":147318,"internal_node_id":"0.0-3.0-0.30","subject_id":"5fefcbb9bbdf7f348f598fa6","study_id":"607de2837874a824e2e8c6ec","session_id":"6088502049cb861e5ae199c7","correct":true},{"rt":1104.8399999272078,"stimulus":"\n      <p>How sure are you?</p>\n      <p>Rate your confidence in your answer from 1 (pure guess) to 5 (very sure) by pressing the corresponding button.</p>\n     ","response":4,"image":"img/calculator.jpg","task":"confidence","old_or_new":"old","trial_type":"html-button-response","trial_index":64,"time_elapsed":148425,"internal_node_id":"0.0-3.0-1.30","subject_id":"5fefcbb9bbdf7f348f598fa6","study_id":"607de2837874a824e2e8c6ec","session_id":"6088502049cb861e5ae199c7"},{"rt":1249.889999977313,"stimulus":"img/hairbrush_alternate.jpg","response":"n","image":"img/hairbrush_alternate.jpg","old_or_new":"new","task":"recognition","trial_type":"image-keyboard-response","trial_index":65,"time_elapsed":150181,"internal_node_id":"0.0-3.0-0.31","subject_id":"5fefcbb9bbdf7f348f598fa6","study_id":"607de2837874a824e2e8c6ec","session_id":"6088502049cb861e5ae199c7","correct":true},{"rt":8362.079999991693,"stimulus":"\n      <p>How sure are you?</p>\n      <p>Rate your confidence in your answer from 1 (pure guess) to 5 (very sure) by pressing the corresponding button.</p>\n     ","response":4,"image":"img/hairbrush_alternate.jpg","task":"confidence","old_or_new":"new","trial_type":"html-button-response","trial_index":66,"time_elapsed":158545,"internal_node_id":"0.0-3.0-1.31","subject_id":"5fefcbb9bbdf7f348f598fa6","study_id":"607de2837874a824e2e8c6ec","session_id":"6088502049cb861e5ae199c7"},{"rt":1466.8850000016391,"stimulus":"img/grapes.jpg","response":"y","image":"img/grapes.jpg","old_or_new":"old","task":"recognition","trial_type":"image-keyboard-response","trial_index":67,"time_elapsed":160521,"internal_node_id":"0.0-3.0-0.32","subject_id":"5fefcbb9bbdf7f348f598fa6","study_id":"607de2837874a824e2e8c6ec","session_id":"6088502049cb861e5ae199c7","correct":true},{"rt":793.4299999615178,"stimulus":"\n      <p>How sure are you?</p>\n      <p>Rate your confidence in your answer from 1 (pure guess) to 5 (very sure) by pressing the corresponding button.</p>\n     ","response":4,"image":"img/grapes.jpg","task":"confidence","old_or_new":"old","trial_type":"html-button-response","trial_index":68,"time_elapsed":161317,"internal_node_id":"0.0-3.0-1.32","subject_id":"5fefcbb9bbdf7f348f598fa6","study_id":"607de2837874a824e2e8c6ec","session_id":"6088502049cb861e5ae199c7"},{"rt":1444.5899999700487,"stimulus":"img/coin_alternate.jpg","response":"n","image":"img/coin_alternate.jpg","old_or_new":"new","task":"recognition","trial_type":"image-keyboard-response","trial_index":69,"time_elapsed":163269,"internal_node_id":"0.0-3.0-0.33","subject_id":"5fefcbb9bbdf7f348f598fa6","study_id":"607de2837874a824e2e8c6ec","session_id":"6088502049cb861e5ae199c7","correct":true},{"rt":1063.245000084862,"stimulus":"\n      <p>How sure are you?</p>\n      <p>Rate your confidence in your answer from 1 (pure guess) to 5 (very sure) by pressing the corresponding button.</p>\n     ","response":4,"image":"img/coin_alternate.jpg","task":"confidence","old_or_new":"new","trial_type":"html-button-response","trial_index":70,"time_elapsed":164334,"internal_node_id":"0.0-3.0-1.33","subject_id":"5fefcbb9bbdf7f348f598fa6","study_id":"607de2837874a824e2e8c6ec","session_id":"6088502049cb861e5ae199c7"},{"rt":1184.3799999915063,"stimulus":"img/chair_alternate.jpg","response":"n","image":"img/chair_alternate.jpg","old_or_new":"new","task":"recognition","trial_type":"image-keyboard-response","trial_index":71,"time_elapsed":166031,"internal_node_id":"0.0-3.0-0.34","subject_id":"5fefcbb9bbdf7f348f598fa6","study_id":"607de2837874a824e2e8c6ec","session_id":"6088502049cb861e5ae199c7","correct":true},{"rt":552.3800000082701,"stimulus":"\n      <p>How sure are you?</p>\n      <p>Rate your confidence in your answer from 1 (pure guess) to 5 (very sure) by pressing the corresponding button.</p>\n     ","response":4,"image":"img/chair_alternate.jpg","task":"confidence","old_or_new":"new","trial_type":"html-button-response","trial_index":72,"time_elapsed":166585,"internal_node_id":"0.0-3.0-1.34","subject_id":"5fefcbb9bbdf7f348f598fa6","study_id":"607de2837874a824e2e8c6ec","session_id":"6088502049cb861e5ae199c7"},{"rt":1524.1750000277534,"stimulus":"img/key_alternate.jpg","response":"n","image":"img/key_alternate.jpg","old_or_new":"new","task":"recognition","trial_type":"image-keyboard-response","trial_index":73,"time_elapsed":168624,"internal_node_id":"0.0-3.0-0.35","subject_id":"5fefcbb9bbdf7f348f598fa6","study_id":"607de2837874a824e2e8c6ec","session_id":"6088502049cb861e5ae199c7","correct":true},{"rt":887.2099999571219,"stimulus":"\n      <p>How sure are you?</p>\n      <p>Rate your confidence in your answer from 1 (pure guess) to 5 (very sure) by pressing the corresponding button.</p>\n     ","response":3,"image":"img/key_alternate.jpg","task":"confidence","old_or_new":"new","trial_type":"html-button-response","trial_index":74,"time_elapsed":169513,"internal_node_id":"0.0-3.0-1.35","subject_id":"5fefcbb9bbdf7f348f598fa6","study_id":"607de2837874a824e2e8c6ec","session_id":"6088502049cb861e5ae199c7"},{"rt":1531.2799999956042,"stimulus":"img/drum_alternate.jpg","response":"n","image":"img/drum_alternate.jpg","old_or_new":"new","task":"recognition","trial_type":"image-keyboard-response","trial_index":75,"time_elapsed":171555,"internal_node_id":"0.0-3.0-0.36","subject_id":"5fefcbb9bbdf7f348f598fa6","study_id":"607de2837874a824e2e8c6ec","session_id":"6088502049cb861e5ae199c7","correct":true},{"rt":1016.6749999625608,"stimulus":"\n      <p>How sure are you?</p>\n      <p>Rate your confidence in your answer from 1 (pure guess) to 5 (very sure) by pressing the corresponding button.</p>\n     ","response":2,"image":"img/drum_alternate.jpg","task":"confidence","old_or_new":"new","trial_type":"html-button-response","trial_index":76,"time_elapsed":172573,"internal_node_id":"0.0-3.0-1.36","subject_id":"5fefcbb9bbdf7f348f598fa6","study_id":"607de2837874a824e2e8c6ec","session_id":"6088502049cb861e5ae199c7"},{"rt":2559.984999941662,"stimulus":"img/glasses_alternate.jpg","response":"n","image":"img/glasses_alternate.jpg","old_or_new":"new","task":"recognition","trial_type":"image-keyboard-response","trial_index":77,"time_elapsed":175639,"internal_node_id":"0.0-3.0-0.37","subject_id":"5fefcbb9bbdf7f348f598fa6","study_id":"607de2837874a824e2e8c6ec","session_id":"6088502049cb861e5ae199c7","correct":true},{"rt":2536.669999943115,"stimulus":"\n      <p>How sure are you?</p>\n      <p>Rate your confidence in your answer from 1 (pure guess) to 5 (very sure) by pressing the corresponding button.</p>\n     ","response":3,"image":"img/glasses_alternate.jpg","task":"confidence","old_or_new":"new","trial_type":"html-button-response","trial_index":78,"time_elapsed":178177,"internal_node_id":"0.0-3.0-1.37","subject_id":"5fefcbb9bbdf7f348f598fa6","study_id":"607de2837874a824e2e8c6ec","session_id":"6088502049cb861e5ae199c7"},{"rt":1887.8399999812245,"stimulus":"img/apple.jpg","response":"y","image":"img/apple.jpg","old_or_new":"old","task":"recognition","trial_type":"image-keyboard-response","trial_index":79,"time_elapsed":180586,"internal_node_id":"0.0-3.0-0.38","subject_id":"5fefcbb9bbdf7f348f598fa6","study_id":"607de2837874a824e2e8c6ec","session_id":"6088502049cb861e5ae199c7","correct":true},{"rt":1237.8650000318885,"stimulus":"\n      <p>How sure are you?</p>\n      <p>Rate your confidence in your answer from 1 (pure guess) to 5 (very sure) by pressing the corresponding button.</p>\n     ","response":4,"image":"img/apple.jpg","task":"confidence","old_or_new":"old","trial_type":"html-button-response","trial_index":80,"time_elapsed":181825,"internal_node_id":"0.0-3.0-1.38","subject_id":"5fefcbb9bbdf7f348f598fa6","study_id":"607de2837874a824e2e8c6ec","session_id":"6088502049cb861e5ae199c7"},{"rt":1335.3149999165908,"stimulus":"img/folder.jpg","response":"y","image":"img/folder.jpg","old_or_new":"old","task":"recognition","trial_type":"image-keyboard-response","trial_index":81,"time_elapsed":183680,"internal_node_id":"0.0-3.0-0.39","subject_id":"5fefcbb9bbdf7f348f598fa6","study_id":"607de2837874a824e2e8c6ec","session_id":"6088502049cb861e5ae199c7","correct":true},{"rt":892.7400000393391,"stimulus":"\n      <p>How sure are you?</p>\n      <p>Rate your confidence in your answer from 1 (pure guess) to 5 (very sure) by pressing the corresponding button.</p>\n     ","response":3,"image":"img/folder.jpg","task":"confidence","old_or_new":"old","trial_type":"html-button-response","trial_index":82,"time_elapsed":184575,"internal_node_id":"0.0-3.0-1.39","subject_id":"5fefcbb9bbdf7f348f598fa6","study_id":"607de2837874a824e2e8c6ec","session_id":"6088502049cb861e5ae199c7"},{"rt":1862.055000034161,"stimulus":"img/key.jpg","response":"y","image":"img/key.jpg","old_or_new":"old","task":"recognition","trial_type":"image-keyboard-response","trial_index":83,"time_elapsed":186954,"internal_node_id":"0.0-3.0-0.40","subject_id":"5fefcbb9bbdf7f348f598fa6","study_id":"607de2837874a824e2e8c6ec","session_id":"6088502049cb861e5ae199c7","correct":true},{"rt":874.5000000344589,"stimulus":"\n      <p>How sure are you?</p>\n      <p>Rate your confidence in your answer from 1 (pure guess) to 5 (very sure) by pressing the corresponding button.</p>\n     ","response":3,"image":"img/key.jpg","task":"confidence","old_or_new":"old","trial_type":"html-button-response","trial_index":84,"time_elapsed":187830,"internal_node_id":"0.0-3.0-1.40","subject_id":"5fefcbb9bbdf7f348f598fa6","study_id":"607de2837874a824e2e8c6ec","session_id":"6088502049cb861e5ae199c7"},{"rt":1314.8650000803173,"stimulus":"img/globe_alternate.jpg","response":"n","image":"img/globe_alternate.jpg","old_or_new":"new","task":"recognition","trial_type":"image-keyboard-response","trial_index":85,"time_elapsed":189651,"internal_node_id":"0.0-3.0-0.41","subject_id":"5fefcbb9bbdf7f348f598fa6","study_id":"607de2837874a824e2e8c6ec","session_id":"6088502049cb861e5ae199c7","correct":true},{"rt":892.9650000063702,"stimulus":"\n      <p>How sure are you?</p>\n      <p>Rate your confidence in your answer from 1 (pure guess) to 5 (very sure) by pressing the corresponding button.</p>\n     ","response":4,"image":"img/globe_alternate.jpg","task":"confidence","old_or_new":"new","trial_type":"html-button-response","trial_index":86,"time_elapsed":190546,"internal_node_id":"0.0-3.0-1.41","subject_id":"5fefcbb9bbdf7f348f598fa6","study_id":"607de2837874a824e2e8c6ec","session_id":"6088502049cb861e5ae199c7"},{"rt":1088.0350000225008,"stimulus":"img/apple_alternate.jpg","response":"n","image":"img/apple_alternate.jpg","old_or_new":"new","task":"recognition","trial_type":"image-keyboard-response","trial_index":87,"time_elapsed":192137,"internal_node_id":"0.0-3.0-0.42","subject_id":"5fefcbb9bbdf7f348f598fa6","study_id":"607de2837874a824e2e8c6ec","session_id":"6088502049cb861e5ae199c7","correct":true},{"rt":1151.2349999975413,"stimulus":"\n      <p>How sure are you?</p>\n      <p>Rate your confidence in your answer from 1 (pure guess) to 5 (very sure) by pressing the corresponding button.</p>\n     ","response":4,"image":"img/apple_alternate.jpg","task":"confidence","old_or_new":"new","trial_type":"html-button-response","trial_index":88,"time_elapsed":193291,"internal_node_id":"0.0-3.0-1.42","subject_id":"5fefcbb9bbdf7f348f598fa6","study_id":"607de2837874a824e2e8c6ec","session_id":"6088502049cb861e5ae199c7"},{"rt":1291.700000059791,"stimulus":"img/hair_tie_alternate.jpg","response":"n","image":"img/hair_tie_alternate.jpg","old_or_new":"new","task":"recognition","trial_type":"image-keyboard-response","trial_index":89,"time_elapsed":195090,"internal_node_id":"0.0-3.0-0.43","subject_id":"5fefcbb9bbdf7f348f598fa6","study_id":"607de2837874a824e2e8c6ec","session_id":"6088502049cb861e5ae199c7","correct":true},{"rt":1057.8499999828637,"stimulus":"\n      <p>How sure are you?</p>\n      <p>Rate your confidence in your answer from 1 (pure guess) to 5 (very sure) by pressing the corresponding button.</p>\n     ","response":4,"image":"img/hair_tie_alternate.jpg","task":"confidence","old_or_new":"new","trial_type":"html-button-response","trial_index":90,"time_elapsed":196150,"internal_node_id":"0.0-3.0-1.43","subject_id":"5fefcbb9bbdf7f348f598fa6","study_id":"607de2837874a824e2e8c6ec","session_id":"6088502049cb861e5ae199c7"},{"rt":1324.5750000933185,"stimulus":"img/ladder.jpg","response":"y","image":"img/ladder.jpg","old_or_new":"old","task":"recognition","trial_type":"image-keyboard-response","trial_index":91,"time_elapsed":197984,"internal_node_id":"0.0-3.0-0.44","subject_id":"5fefcbb9bbdf7f348f598fa6","study_id":"607de2837874a824e2e8c6ec","session_id":"6088502049cb861e5ae199c7","correct":true},{"rt":902.875000028871,"stimulus":"\n      <p>How sure are you?</p>\n      <p>Rate your confidence in your answer from 1 (pure guess) to 5 (very sure) by pressing the corresponding button.</p>\n     ","response":4,"image":"img/ladder.jpg","task":"confidence","old_or_new":"old","trial_type":"html-button-response","trial_index":92,"time_elapsed":198889,"internal_node_id":"0.0-3.0-1.44","subject_id":"5fefcbb9bbdf7f348f598fa6","study_id":"607de2837874a824e2e8c6ec","session_id":"6088502049cb861e5ae199c7"},{"rt":1842.860000091605,"stimulus":"img/hairbrush.jpg","response":"y","image":"img/hairbrush.jpg","old_or_new":"old","task":"recognition","trial_type":"image-keyboard-response","trial_index":93,"time_elapsed":201250,"internal_node_id":"0.0-3.0-0.45","subject_id":"5fefcbb9bbdf7f348f598fa6","study_id":"607de2837874a824e2e8c6ec","session_id":"6088502049cb861e5ae199c7","correct":true},{"rt":1933.4749999688938,"stimulus":"\n      <p>How sure are you?</p>\n      <p>Rate your confidence in your answer from 1 (pure guess) to 5 (very sure) by pressing the corresponding button.</p>\n     ","response":3,"image":"img/hairbrush.jpg","task":"confidence","old_or_new":"old","trial_type":"html-button-response","trial_index":94,"time_elapsed":203185,"internal_node_id":"0.0-3.0-1.45","subject_id":"5fefcbb9bbdf7f348f598fa6","study_id":"607de2837874a824e2e8c6ec","session_id":"6088502049cb861e5ae199c7"},{"rt":3701.0000000009313,"stimulus":"img/helmet.jpg","response":"y","image":"img/helmet.jpg","old_or_new":"old","task":"recognition","trial_type":"image-keyboard-response","trial_index":95,"time_elapsed":207390,"internal_node_id":"0.0-3.0-0.46","subject_id":"5fefcbb9bbdf7f348f598fa6","study_id":"607de2837874a824e2e8c6ec","session_id":"6088502049cb861e5ae199c7","correct":true},{"rt":3508.22500011418,"stimulus":"\n      <p>How sure are you?</p>\n      <p>Rate your confidence in your answer from 1 (pure guess) to 5 (very sure) by pressing the corresponding button.</p>\n     ","response":2,"image":"img/helmet.jpg","task":"confidence","old_or_new":"old","trial_type":"html-button-response","trial_index":96,"time_elapsed":210901,"internal_node_id":"0.0-3.0-1.46","subject_id":"5fefcbb9bbdf7f348f598fa6","study_id":"607de2837874a824e2e8c6ec","session_id":"6088502049cb861e5ae199c7"},{"rt":1171.775000053458,"stimulus":"img/backpack.jpg","response":"y","image":"img/backpack.jpg","old_or_new":"old","task":"recognition","trial_type":"image-keyboard-response","trial_index":97,"time_elapsed":212578,"internal_node_id":"0.0-3.0-0.47","subject_id":"5fefcbb9bbdf7f348f598fa6","study_id":"607de2837874a824e2e8c6ec","session_id":"6088502049cb861e5ae199c7","correct":true},{"rt":1157.1150000672787,"stimulus":"\n      <p>How sure are you?</p>\n      <p>Rate your confidence in your answer from 1 (pure guess) to 5 (very sure) by pressing the corresponding button.</p>\n     ","response":3,"image":"img/backpack.jpg","task":"confidence","old_or_new":"old","trial_type":"html-button-response","trial_index":98,"time_elapsed":213737,"internal_node_id":"0.0-3.0-1.47","subject_id":"5fefcbb9bbdf7f348f598fa6","study_id":"607de2837874a824e2e8c6ec","session_id":"6088502049cb861e5ae199c7"}]