[{"success":true,"timeout":false,"failed_images":[],"failed_audio":[],"failed_video":[],"trial_type":"preload","trial_index":0,"time_elapsed":5168,"internal_node_id":"0.0-0.0","subject_id":"607843e668136cd0bc9bee24","study_id":"607de2837874a824e2e8c6ec","session_id":"60884ffc935b682ee4b364ed"},{"rt":17453,"stimulus":"\n      <div style=\"width:800px; text-align: left;\">\n        <p>Welcome to day 2 of the experiment! Thanks for coming back.</p>\n        <p>You will be presented with a series of images. Images will appear one at a time.</p>\n        <p>Each image will remain on the screen until you press either <span style=\"font-weight: bold;\">\"y\" to indicate you have seen the \n        exact same photo the day before or \"n\" to indicate you have not seen the exact same photo the day before.</span></p>\n        <p>After you answer yes (\"y\") or no (\"n\"), you will then be prompted to rate your certainty on a scale of\n        1 (pure guess) to 5 (very sure).</p>\n      </div>\n    ","response":0,"trial_type":"html-button-response","trial_index":1,"time_elapsed":22623,"internal_node_id":"0.0-1.0","subject_id":"607843e668136cd0bc9bee24","study_id":"607de2837874a824e2e8c6ec","session_id":"60884ffc935b682ee4b364ed"},{"success":true,"trial_type":"fullscreen","trial_index":2,"time_elapsed":26065,"internal_node_id":"0.0-2.0","subject_id":"607843e668136cd0bc9bee24","study_id":"607de2837874a824e2e8c6ec","session_id":"60884ffc935b682ee4b364ed"},{"rt":3577,"stimulus":"img/dryer.jpg","response":"y","image":"img/dryer.jpg","old_or_new":"old","task":"recognition","trial_type":"image-keyboard-response","trial_index":3,"time_elapsed":29661,"internal_node_id":"0.0-3.0-0.0","subject_id":"607843e668136cd0bc9bee24","study_id":"607de2837874a824e2e8c6ec","session_id":"60884ffc935b682ee4b364ed","correct":true},{"rt":2239,"stimulus":"\n      <p>How sure are you?</p>\n      <p>Rate your confidence in your answer from 1 (pure guess) to 5 (very sure) by pressing the corresponding button.</p>\n     ","response":4,"image":"img/dryer.jpg","task":"confidence","old_or_new":"old","trial_type":"html-button-response","trial_index":4,"time_elapsed":31903,"internal_node_id":"0.0-3.0-1.0","subject_id":"607843e668136cd0bc9bee24","study_id":"607de2837874a824e2e8c6ec","session_id":"60884ffc935b682ee4b364ed"},{"rt":3079,"stimulus":"img/folder_alternate.jpg","response":"n","image":"img/folder_alternate.jpg","old_or_new":"new","task":"recognition","trial_type":"image-keyboard-response","trial_index":5,"time_elapsed":35495,"internal_node_id":"0.0-3.0-0.1","subject_id":"607843e668136cd0bc9bee24","study_id":"607de2837874a824e2e8c6ec","session_id":"60884ffc935b682ee4b364ed","correct":true},{"rt":1619,"stimulus":"\n      <p>How sure are you?</p>\n      <p>Rate your confidence in your answer from 1 (pure guess) to 5 (very sure) by pressing the corresponding button.</p>\n     ","response":4,"image":"img/folder_alternate.jpg","task":"confidence","old_or_new":"new","trial_type":"html-button-response","trial_index":6,"time_elapsed":37115,"internal_node_id":"0.0-3.0-1.1","subject_id":"607843e668136cd0bc9bee24","study_id":"607de2837874a824e2e8c6ec","session_id":"60884ffc935b682ee4b364ed"},{"rt":1739,"stimulus":"img/chair.jpg","response":"y","image":"img/chair.jpg","old_or_new":"old","task":"recognition","trial_type":"image-keyboard-response","trial_index":7,"time_elapsed":39367,"internal_node_id":"0.0-3.0-0.2","subject_id":"607843e668136cd0bc9bee24","study_id":"607de2837874a824e2e8c6ec","session_id":"60884ffc935b682ee4b364ed","correct":true},{"rt":1799,"stimulus":"\n      <p>How sure are you?</p>\n      <p>Rate your confidence in your answer from 1 (pure guess) to 5 (very sure) by pressing the corresponding button.</p>\n     ","response":4,"image":"img/chair.jpg","task":"confidence","old_or_new":"old","trial_type":"html-button-response","trial_index":8,"time_elapsed":41167,"internal_node_id":"0.0-3.0-1.2","subject_id":"607843e668136cd0bc9bee24","study_id":"607de2837874a824e2e8c6ec","session_id":"60884ffc935b682ee4b364ed"},{"rt":8897,"stimulus":"img/grapes_alternate.jpg","response":"y","image":"img/grapes_alternate.jpg","old_or_new":"new","task":"recognition","trial_type":"image-keyboard-response","trial_index":9,"time_elapsed":50568,"internal_node_id":"0.0-3.0-0.3","subject_id":"607843e668136cd0bc9bee24","study_id":"607de2837874a824e2e8c6ec","session_id":"60884ffc935b682ee4b364ed","correct":false},{"rt":1678,"stimulus":"\n      <p>How sure are you?</p>\n      <p>Rate your confidence in your answer from 1 (pure guess) to 5 (very sure) by pressing the corresponding button.</p>\n     ","response":3,"image":"img/grapes_alternate.jpg","task":"confidence","old_or_new":"new","trial_type":"html-button-response","trial_index":10,"time_elapsed":52250,"internal_node_id":"0.0-3.0-1.3","subject_id":"607843e668136cd0bc9bee24","study_id":"607de2837874a824e2e8c6ec","session_id":"60884ffc935b682ee4b364ed"},{"rt":1582,"stimulus":"img/helmet.jpg","response":"y","image":"img/helmet.jpg","old_or_new":"old","task":"recognition","trial_type":"image-keyboard-response","trial_index":11,"time_elapsed":54355,"internal_node_id":"0.0-3.0-0.4","subject_id":"607843e668136cd0bc9bee24","study_id":"607de2837874a824e2e8c6ec","session_id":"60884ffc935b682ee4b364ed","correct":true},{"rt":1399,"stimulus":"\n      <p>How sure are you?</p>\n      <p>Rate your confidence in your answer from 1 (pure guess) to 5 (very sure) by pressing the corresponding button.</p>\n     ","response":4,"image":"img/helmet.jpg","task":"confidence","old_or_new":"old","trial_type":"html-button-response","trial_index":12,"time_elapsed":55757,"internal_node_id":"0.0-3.0-1.4","subject_id":"607843e668136cd0bc9bee24","study_id":"607de2837874a824e2e8c6ec","session_id":"60884ffc935b682ee4b364ed"},{"rt":1509,"stimulus":"img/ladder_alternate.jpg","response":"n","image":"img/ladder_alternate.jpg","old_or_new":"new","task":"recognition","trial_type":"image-keyboard-response","trial_index":13,"time_elapsed":57780,"internal_node_id":"0.0-3.0-0.5","subject_id":"607843e668136cd0bc9bee24","study_id":"607de2837874a824e2e8c6ec","session_id":"60884ffc935b682ee4b364ed","correct":true},{"rt":2242,"stimulus":"\n      <p>How sure are you?</p>\n      <p>Rate your confidence in your answer from 1 (pure guess) to 5 (very sure) by pressing the corresponding button.</p>\n     ","response":4,"image":"img/ladder_alternate.jpg","task":"confidence","old_or_new":"new","trial_type":"html-button-response","trial_index":14,"time_elapsed":60023,"internal_node_id":"0.0-3.0-1.5","subject_id":"607843e668136cd0bc9bee24","study_id":"607de2837874a824e2e8c6ec","session_id":"60884ffc935b682ee4b364ed"},{"rt":2952,"stimulus":"img/globe_alternate.jpg","response":"n","image":"img/globe_alternate.jpg","old_or_new":"new","task":"recognition","trial_type":"image-keyboard-response","trial_index":15,"time_elapsed":63486,"internal_node_id":"0.0-3.0-0.6","subject_id":"607843e668136cd0bc9bee24","study_id":"607de2837874a824e2e8c6ec","session_id":"60884ffc935b682ee4b364ed","correct":true},{"rt":1341,"stimulus":"\n      <p>How sure are you?</p>\n      <p>Rate your confidence in your answer from 1 (pure guess) to 5 (very sure) by pressing the corresponding button.</p>\n     ","response":4,"image":"img/globe_alternate.jpg","task":"confidence","old_or_new":"new","trial_type":"html-button-response","trial_index":16,"time_elapsed":64827,"internal_node_id":"0.0-3.0-1.6","subject_id":"607843e668136cd0bc9bee24","study_id":"607de2837874a824e2e8c6ec","session_id":"60884ffc935b682ee4b364ed"},{"rt":1742,"stimulus":"img/leaf_alternate.jpg","response":"n","image":"img/leaf_alternate.jpg","old_or_new":"new","task":"recognition","trial_type":"image-keyboard-response","trial_index":17,"time_elapsed":67079,"internal_node_id":"0.0-3.0-0.7","subject_id":"607843e668136cd0bc9bee24","study_id":"607de2837874a824e2e8c6ec","session_id":"60884ffc935b682ee4b364ed","correct":true},{"rt":1571,"stimulus":"\n      <p>How sure are you?</p>\n      <p>Rate your confidence in your answer from 1 (pure guess) to 5 (very sure) by pressing the corresponding button.</p>\n     ","response":4,"image":"img/leaf_alternate.jpg","task":"confidence","old_or_new":"new","trial_type":"html-button-response","trial_index":18,"time_elapsed":68651,"internal_node_id":"0.0-3.0-1.7","subject_id":"607843e668136cd0bc9bee24","study_id":"607de2837874a824e2e8c6ec","session_id":"60884ffc935b682ee4b364ed"},{"rt":2651,"stimulus":"img/grapes.jpg","response":"y","image":"img/grapes.jpg","old_or_new":"old","task":"recognition","trial_type":"image-keyboard-response","trial_index":19,"time_elapsed":71818,"internal_node_id":"0.0-3.0-0.8","subject_id":"607843e668136cd0bc9bee24","study_id":"607de2837874a824e2e8c6ec","session_id":"60884ffc935b682ee4b364ed","correct":true},{"rt":1451,"stimulus":"\n      <p>How sure are you?</p>\n      <p>Rate your confidence in your answer from 1 (pure guess) to 5 (very sure) by pressing the corresponding button.</p>\n     ","response":4,"image":"img/grapes.jpg","task":"confidence","old_or_new":"old","trial_type":"html-button-response","trial_index":20,"time_elapsed":73271,"internal_node_id":"0.0-3.0-1.8","subject_id":"607843e668136cd0bc9bee24","study_id":"607de2837874a824e2e8c6ec","session_id":"60884ffc935b682ee4b364ed"},{"rt":1497,"stimulus":"img/fan_alternate.jpg","response":"n","image":"img/fan_alternate.jpg","old_or_new":"new","task":"recognition","trial_type":"image-keyboard-response","trial_index":21,"time_elapsed":75290,"internal_node_id":"0.0-3.0-0.9","subject_id":"607843e668136cd0bc9bee24","study_id":"607de2837874a824e2e8c6ec","session_id":"60884ffc935b682ee4b364ed","correct":true},{"rt":1276,"stimulus":"\n      <p>How sure are you?</p>\n      <p>Rate your confidence in your answer from 1 (pure guess) to 5 (very sure) by pressing the corresponding button.</p>\n     ","response":4,"image":"img/fan_alternate.jpg","task":"confidence","old_or_new":"new","trial_type":"html-button-response","trial_index":22,"time_elapsed":76566,"internal_node_id":"0.0-3.0-1.9","subject_id":"607843e668136cd0bc9bee24","study_id":"607de2837874a824e2e8c6ec","session_id":"60884ffc935b682ee4b364ed"},{"rt":1256,"stimulus":"img/apple_alternate.jpg","response":"n","image":"img/apple_alternate.jpg","old_or_new":"new","task":"recognition","trial_type":"image-keyboard-response","trial_index":23,"time_elapsed":78330,"internal_node_id":"0.0-3.0-0.10","subject_id":"607843e668136cd0bc9bee24","study_id":"607de2837874a824e2e8c6ec","session_id":"60884ffc935b682ee4b364ed","correct":true},{"rt":1287,"stimulus":"\n      <p>How sure are you?</p>\n      <p>Rate your confidence in your answer from 1 (pure guess) to 5 (very sure) by pressing the corresponding button.</p>\n     ","response":4,"image":"img/apple_alternate.jpg","task":"confidence","old_or_new":"new","trial_type":"html-button-response","trial_index":24,"time_elapsed":79616,"internal_node_id":"0.0-3.0-1.10","subject_id":"607843e668136cd0bc9bee24","study_id":"607de2837874a824e2e8c6ec","session_id":"60884ffc935b682ee4b364ed"},{"rt":1359,"stimulus":"img/hourglass.jpg","response":"y","image":"img/hourglass.jpg","old_or_new":"old","task":"recognition","trial_type":"image-keyboard-response","trial_index":25,"time_elapsed":81495,"internal_node_id":"0.0-3.0-0.11","subject_id":"607843e668136cd0bc9bee24","study_id":"607de2837874a824e2e8c6ec","session_id":"60884ffc935b682ee4b364ed","correct":true},{"rt":1509,"stimulus":"\n      <p>How sure are you?</p>\n      <p>Rate your confidence in your answer from 1 (pure guess) to 5 (very sure) by pressing the corresponding button.</p>\n     ","response":4,"image":"img/hourglass.jpg","task":"confidence","old_or_new":"old","trial_type":"html-button-response","trial_index":26,"time_elapsed":83004,"internal_node_id":"0.0-3.0-1.11","subject_id":"607843e668136cd0bc9bee24","study_id":"607de2837874a824e2e8c6ec","session_id":"60884ffc935b682ee4b364ed"},{"rt":1309,"stimulus":"img/hair_tie.jpg","response":"y","image":"img/hair_tie.jpg","old_or_new":"old","task":"recognition","trial_type":"image-keyboard-response","trial_index":27,"time_elapsed":84824,"internal_node_id":"0.0-3.0-0.12","subject_id":"607843e668136cd0bc9bee24","study_id":"607de2837874a824e2e8c6ec","session_id":"60884ffc935b682ee4b364ed","correct":true},{"rt":1288,"stimulus":"\n      <p>How sure are you?</p>\n      <p>Rate your confidence in your answer from 1 (pure guess) to 5 (very sure) by pressing the corresponding button.</p>\n     ","response":4,"image":"img/hair_tie.jpg","task":"confidence","old_or_new":"old","trial_type":"html-button-response","trial_index":28,"time_elapsed":86114,"internal_node_id":"0.0-3.0-1.12","subject_id":"607843e668136cd0bc9bee24","study_id":"607de2837874a824e2e8c6ec","session_id":"60884ffc935b682ee4b364ed"},{"rt":1133,"stimulus":"img/lightbulb_alternate.jpg","response":"n","image":"img/lightbulb_alternate.jpg","old_or_new":"new","task":"recognition","trial_type":"image-keyboard-response","trial_index":29,"time_elapsed":87761,"internal_node_id":"0.0-3.0-0.13","subject_id":"607843e668136cd0bc9bee24","study_id":"607de2837874a824e2e8c6ec","session_id":"60884ffc935b682ee4b364ed","correct":true},{"rt":1197,"stimulus":"\n      <p>How sure are you?</p>\n      <p>Rate your confidence in your answer from 1 (pure guess) to 5 (very sure) by pressing the corresponding button.</p>\n     ","response":4,"image":"img/lightbulb_alternate.jpg","task":"confidence","old_or_new":"new","trial_type":"html-button-response","trial_index":30,"time_elapsed":88960,"internal_node_id":"0.0-3.0-1.13","subject_id":"607843e668136cd0bc9bee24","study_id":"607de2837874a824e2e8c6ec","session_id":"60884ffc935b682ee4b364ed"},{"rt":1158,"stimulus":"img/camera.jpg","response":"y","image":"img/camera.jpg","old_or_new":"old","task":"recognition","trial_type":"image-keyboard-response","trial_index":31,"time_elapsed":90628,"internal_node_id":"0.0-3.0-0.14","subject_id":"607843e668136cd0bc9bee24","study_id":"607de2837874a824e2e8c6ec","session_id":"60884ffc935b682ee4b364ed","correct":true},{"rt":959,"stimulus":"\n      <p>How sure are you?</p>\n      <p>Rate your confidence in your answer from 1 (pure guess) to 5 (very sure) by pressing the corresponding button.</p>\n     ","response":4,"image":"img/camera.jpg","task":"confidence","old_or_new":"old","trial_type":"html-button-response","trial_index":32,"time_elapsed":91587,"internal_node_id":"0.0-3.0-1.14","subject_id":"607843e668136cd0bc9bee24","study_id":"607de2837874a824e2e8c6ec","session_id":"60884ffc935b682ee4b364ed"},{"rt":1110,"stimulus":"img/lightbulb.jpg","response":"y","image":"img/lightbulb.jpg","old_or_new":"old","task":"recognition","trial_type":"image-keyboard-response","trial_index":33,"time_elapsed":93209,"internal_node_id":"0.0-3.0-0.15","subject_id":"607843e668136cd0bc9bee24","study_id":"607de2837874a824e2e8c6ec","session_id":"60884ffc935b682ee4b364ed","correct":true},{"rt":1085,"stimulus":"\n      <p>How sure are you?</p>\n      <p>Rate your confidence in your answer from 1 (pure guess) to 5 (very sure) by pressing the corresponding button.</p>\n     ","response":4,"image":"img/lightbulb.jpg","task":"confidence","old_or_new":"old","trial_type":"html-button-response","trial_index":34,"time_elapsed":94295,"internal_node_id":"0.0-3.0-1.15","subject_id":"607843e668136cd0bc9bee24","study_id":"607de2837874a824e2e8c6ec","session_id":"60884ffc935b682ee4b364ed"},{"rt":998,"stimulus":"img/backpack_alternate.jpg","response":"n","image":"img/backpack_alternate.jpg","old_or_new":"new","task":"recognition","trial_type":"image-keyboard-response","trial_index":35,"time_elapsed":95801,"internal_node_id":"0.0-3.0-0.16","subject_id":"607843e668136cd0bc9bee24","study_id":"607de2837874a824e2e8c6ec","session_id":"60884ffc935b682ee4b364ed","correct":true},{"rt":853,"stimulus":"\n      <p>How sure are you?</p>\n      <p>Rate your confidence in your answer from 1 (pure guess) to 5 (very sure) by pressing the corresponding button.</p>\n     ","response":4,"image":"img/backpack_alternate.jpg","task":"confidence","old_or_new":"new","trial_type":"html-button-response","trial_index":36,"time_elapsed":96655,"internal_node_id":"0.0-3.0-1.16","subject_id":"607843e668136cd0bc9bee24","study_id":"607de2837874a824e2e8c6ec","session_id":"60884ffc935b682ee4b364ed"},{"rt":1104,"stimulus":"img/hourglass_alternate.jpg","response":"n","image":"img/hourglass_alternate.jpg","old_or_new":"new","task":"recognition","trial_type":"image-keyboard-response","trial_index":37,"time_elapsed":98271,"internal_node_id":"0.0-3.0-0.17","subject_id":"607843e668136cd0bc9bee24","study_id":"607de2837874a824e2e8c6ec","session_id":"60884ffc935b682ee4b364ed","correct":true},{"rt":880,"stimulus":"\n      <p>How sure are you?</p>\n      <p>Rate your confidence in your answer from 1 (pure guess) to 5 (very sure) by pressing the corresponding button.</p>\n     ","response":4,"image":"img/hourglass_alternate.jpg","task":"confidence","old_or_new":"new","trial_type":"html-button-response","trial_index":38,"time_elapsed":99151,"internal_node_id":"0.0-3.0-1.17","subject_id":"607843e668136cd0bc9bee24","study_id":"607de2837874a824e2e8c6ec","session_id":"60884ffc935b682ee4b364ed"},{"rt":1213,"stimulus":"img/glasses_alternate.jpg","response":"n","image":"img/glasses_alternate.jpg","old_or_new":"new","task":"recognition","trial_type":"image-keyboard-response","trial_index":39,"time_elapsed":100882,"internal_node_id":"0.0-3.0-0.18","subject_id":"607843e668136cd0bc9bee24","study_id":"607de2837874a824e2e8c6ec","session_id":"60884ffc935b682ee4b364ed","correct":true},{"rt":825,"stimulus":"\n      <p>How sure are you?</p>\n      <p>Rate your confidence in your answer from 1 (pure guess) to 5 (very sure) by pressing the corresponding button.</p>\n     ","response":4,"image":"img/glasses_alternate.jpg","task":"confidence","old_or_new":"new","trial_type":"html-button-response","trial_index":40,"time_elapsed":101707,"internal_node_id":"0.0-3.0-1.18","subject_id":"607843e668136cd0bc9bee24","study_id":"607de2837874a824e2e8c6ec","session_id":"60884ffc935b682ee4b364ed"},{"rt":1049,"stimulus":"img/hair_tie_alternate.jpg","response":"n","image":"img/hair_tie_alternate.jpg","old_or_new":"new","task":"recognition","trial_type":"image-keyboard-response","trial_index":41,"time_elapsed":103269,"internal_node_id":"0.0-3.0-0.19","subject_id":"607843e668136cd0bc9bee24","study_id":"607de2837874a824e2e8c6ec","session_id":"60884ffc935b682ee4b364ed","correct":true},{"rt":840,"stimulus":"\n      <p>How sure are you?</p>\n      <p>Rate your confidence in your answer from 1 (pure guess) to 5 (very sure) by pressing the corresponding button.</p>\n     ","response":4,"image":"img/hair_tie_alternate.jpg","task":"confidence","old_or_new":"new","trial_type":"html-button-response","trial_index":42,"time_elapsed":104110,"internal_node_id":"0.0-3.0-1.19","subject_id":"607843e668136cd0bc9bee24","study_id":"607de2837874a824e2e8c6ec","session_id":"60884ffc935b682ee4b364ed"},{"rt":1134,"stimulus":"img/apple.jpg","response":"y","image":"img/apple.jpg","old_or_new":"old","task":"recognition","trial_type":"image-keyboard-response","trial_index":43,"time_elapsed":105755,"internal_node_id":"0.0-3.0-0.20","subject_id":"607843e668136cd0bc9bee24","study_id":"607de2837874a824e2e8c6ec","session_id":"60884ffc935b682ee4b364ed","correct":true},{"rt":995,"stimulus":"\n      <p>How sure are you?</p>\n      <p>Rate your confidence in your answer from 1 (pure guess) to 5 (very sure) by pressing the corresponding button.</p>\n     ","response":4,"image":"img/apple.jpg","task":"confidence","old_or_new":"old","trial_type":"html-button-response","trial_index":44,"time_elapsed":106751,"internal_node_id":"0.0-3.0-1.20","subject_id":"607843e668136cd0bc9bee24","study_id":"607de2837874a824e2e8c6ec","session_id":"60884ffc935b682ee4b364ed"},{"rt":1148,"stimulus":"img/helmet_alternate.jpg","response":"n","image":"img/helmet_alternate.jpg","old_or_new":"new","task":"recognition","trial_type":"image-keyboard-response","trial_index":45,"time_elapsed":108419,"internal_node_id":"0.0-3.0-0.21","subject_id":"607843e668136cd0bc9bee24","study_id":"607de2837874a824e2e8c6ec","session_id":"60884ffc935b682ee4b364ed","correct":true},{"rt":1209,"stimulus":"\n      <p>How sure are you?</p>\n      <p>Rate your confidence in your answer from 1 (pure guess) to 5 (very sure) by pressing the corresponding button.</p>\n     ","response":4,"image":"img/helmet_alternate.jpg","task":"confidence","old_or_new":"new","trial_type":"html-button-response","trial_index":46,"time_elapsed":109633,"internal_node_id":"0.0-3.0-1.21","subject_id":"607843e668136cd0bc9bee24","study_id":"607de2837874a824e2e8c6ec","session_id":"60884ffc935b682ee4b364ed"},{"rt":8661,"stimulus":"img/calculator.jpg","response":"n","image":"img/calculator.jpg","old_or_new":"old","task":"recognition","trial_type":"image-keyboard-response","trial_index":47,"time_elapsed":118808,"internal_node_id":"0.0-3.0-0.22","subject_id":"607843e668136cd0bc9bee24","study_id":"607de2837874a824e2e8c6ec","session_id":"60884ffc935b682ee4b364ed","correct":false},{"rt":1484,"stimulus":"\n      <p>How sure are you?</p>\n      <p>Rate your confidence in your answer from 1 (pure guess) to 5 (very sure) by pressing the corresponding button.</p>\n     ","response":3,"image":"img/calculator.jpg","task":"confidence","old_or_new":"old","trial_type":"html-button-response","trial_index":48,"time_elapsed":120297,"internal_node_id":"0.0-3.0-1.22","subject_id":"607843e668136cd0bc9bee24","study_id":"607de2837874a824e2e8c6ec","session_id":"60884ffc935b682ee4b364ed"},{"rt":1367,"stimulus":"img/drum_alternate.jpg","response":"n","image":"img/drum_alternate.jpg","old_or_new":"new","task":"recognition","trial_type":"image-keyboard-response","trial_index":49,"time_elapsed":122186,"internal_node_id":"0.0-3.0-0.23","subject_id":"607843e668136cd0bc9bee24","study_id":"607de2837874a824e2e8c6ec","session_id":"60884ffc935b682ee4b364ed","correct":true},{"rt":1109,"stimulus":"\n      <p>How sure are you?</p>\n      <p>Rate your confidence in your answer from 1 (pure guess) to 5 (very sure) by pressing the corresponding button.</p>\n     ","response":4,"image":"img/drum_alternate.jpg","task":"confidence","old_or_new":"new","trial_type":"html-button-response","trial_index":50,"time_elapsed":123296,"internal_node_id":"0.0-3.0-1.23","subject_id":"607843e668136cd0bc9bee24","study_id":"607de2837874a824e2e8c6ec","session_id":"60884ffc935b682ee4b364ed"},{"rt":1063,"stimulus":"img/basket.jpg","response":"y","image":"img/basket.jpg","old_or_new":"old","task":"recognition","trial_type":"image-keyboard-response","trial_index":51,"time_elapsed":124871,"internal_node_id":"0.0-3.0-0.24","subject_id":"607843e668136cd0bc9bee24","study_id":"607de2837874a824e2e8c6ec","session_id":"60884ffc935b682ee4b364ed","correct":true},{"rt":962,"stimulus":"\n      <p>How sure are you?</p>\n      <p>Rate your confidence in your answer from 1 (pure guess) to 5 (very sure) by pressing the corresponding button.</p>\n     ","response":4,"image":"img/basket.jpg","task":"confidence","old_or_new":"old","trial_type":"html-button-response","trial_index":52,"time_elapsed":125834,"internal_node_id":"0.0-3.0-1.24","subject_id":"607843e668136cd0bc9bee24","study_id":"607de2837874a824e2e8c6ec","session_id":"60884ffc935b682ee4b364ed"},{"rt":1186,"stimulus":"img/globe.jpg","response":"y","image":"img/globe.jpg","old_or_new":"old","task":"recognition","trial_type":"image-keyboard-response","trial_index":53,"time_elapsed":127540,"internal_node_id":"0.0-3.0-0.25","subject_id":"607843e668136cd0bc9bee24","study_id":"607de2837874a824e2e8c6ec","session_id":"60884ffc935b682ee4b364ed","correct":true},{"rt":970,"stimulus":"\n      <p>How sure are you?</p>\n      <p>Rate your confidence in your answer from 1 (pure guess) to 5 (very sure) by pressing the corresponding button.</p>\n     ","response":4,"image":"img/globe.jpg","task":"confidence","old_or_new":"old","trial_type":"html-button-response","trial_index":54,"time_elapsed":128512,"internal_node_id":"0.0-3.0-1.25","subject_id":"607843e668136cd0bc9bee24","study_id":"607de2837874a824e2e8c6ec","session_id":"60884ffc935b682ee4b364ed"},{"rt":1114,"stimulus":"img/hat.jpg","response":"y","image":"img/hat.jpg","old_or_new":"old","task":"recognition","trial_type":"image-keyboard-response","trial_index":55,"time_elapsed":130146,"internal_node_id":"0.0-3.0-0.26","subject_id":"607843e668136cd0bc9bee24","study_id":"607de2837874a824e2e8c6ec","session_id":"60884ffc935b682ee4b364ed","correct":true},{"rt":849,"stimulus":"\n      <p>How sure are you?</p>\n      <p>Rate your confidence in your answer from 1 (pure guess) to 5 (very sure) by pressing the corresponding button.</p>\n     ","response":4,"image":"img/hat.jpg","task":"confidence","old_or_new":"old","trial_type":"html-button-response","trial_index":56,"time_elapsed":130997,"internal_node_id":"0.0-3.0-1.26","subject_id":"607843e668136cd0bc9bee24","study_id":"607de2837874a824e2e8c6ec","session_id":"60884ffc935b682ee4b364ed"},{"rt":6727,"stimulus":"img/hairbrush.jpg","response":"n","image":"img/hairbrush.jpg","old_or_new":"old","task":"recognition","trial_type":"image-keyboard-response","trial_index":57,"time_elapsed":138237,"internal_node_id":"0.0-3.0-0.27","subject_id":"607843e668136cd0bc9bee24","study_id":"607de2837874a824e2e8c6ec","session_id":"60884ffc935b682ee4b364ed","correct":false},{"rt":1247,"stimulus":"\n      <p>How sure are you?</p>\n      <p>Rate your confidence in your answer from 1 (pure guess) to 5 (very sure) by pressing the corresponding button.</p>\n     ","response":3,"image":"img/hairbrush.jpg","task":"confidence","old_or_new":"old","trial_type":"html-button-response","trial_index":58,"time_elapsed":139486,"internal_node_id":"0.0-3.0-1.27","subject_id":"607843e668136cd0bc9bee24","study_id":"607de2837874a824e2e8c6ec","session_id":"60884ffc935b682ee4b364ed"},{"rt":1306,"stimulus":"img/drum.jpg","response":"y","image":"img/drum.jpg","old_or_new":"old","task":"recognition","trial_type":"image-keyboard-response","trial_index":59,"time_elapsed":141304,"internal_node_id":"0.0-3.0-0.28","subject_id":"607843e668136cd0bc9bee24","study_id":"607de2837874a824e2e8c6ec","session_id":"60884ffc935b682ee4b364ed","correct":true},{"rt":936,"stimulus":"\n      <p>How sure are you?</p>\n      <p>Rate your confidence in your answer from 1 (pure guess) to 5 (very sure) by pressing the corresponding button.</p>\n     ","response":4,"image":"img/drum.jpg","task":"confidence","old_or_new":"old","trial_type":"html-button-response","trial_index":60,"time_elapsed":142241,"internal_node_id":"0.0-3.0-1.28","subject_id":"607843e668136cd0bc9bee24","study_id":"607de2837874a824e2e8c6ec","session_id":"60884ffc935b682ee4b364ed"},{"rt":1549,"stimulus":"img/bowl.jpg","response":"y","image":"img/bowl.jpg","old_or_new":"old","task":"recognition","trial_type":"image-keyboard-response","trial_index":61,"time_elapsed":144305,"internal_node_id":"0.0-3.0-0.29","subject_id":"607843e668136cd0bc9bee24","study_id":"607de2837874a824e2e8c6ec","session_id":"60884ffc935b682ee4b364ed","correct":true},{"rt":917,"stimulus":"\n      <p>How sure are you?</p>\n      <p>Rate your confidence in your answer from 1 (pure guess) to 5 (very sure) by pressing the corresponding button.</p>\n     ","response":4,"image":"img/bowl.jpg","task":"confidence","old_or_new":"old","trial_type":"html-button-response","trial_index":62,"time_elapsed":145223,"internal_node_id":"0.0-3.0-1.29","subject_id":"607843e668136cd0bc9bee24","study_id":"607de2837874a824e2e8c6ec","session_id":"60884ffc935b682ee4b364ed"},{"rt":1279,"stimulus":"img/coin.jpg","response":"y","image":"img/coin.jpg","old_or_new":"old","task":"recognition","trial_type":"image-keyboard-response","trial_index":63,"time_elapsed":147020,"internal_node_id":"0.0-3.0-0.30","subject_id":"607843e668136cd0bc9bee24","study_id":"607de2837874a824e2e8c6ec","session_id":"60884ffc935b682ee4b364ed","correct":true},{"rt":875,"stimulus":"\n      <p>How sure are you?</p>\n      <p>Rate your confidence in your answer from 1 (pure guess) to 5 (very sure) by pressing the corresponding button.</p>\n     ","response":4,"image":"img/coin.jpg","task":"confidence","old_or_new":"old","trial_type":"html-button-response","trial_index":64,"time_elapsed":147894,"internal_node_id":"0.0-3.0-1.30","subject_id":"607843e668136cd0bc9bee24","study_id":"607de2837874a824e2e8c6ec","session_id":"60884ffc935b682ee4b364ed"},{"rt":981,"stimulus":"img/hat_alternate.jpg","response":"n","image":"img/hat_alternate.jpg","old_or_new":"new","task":"recognition","trial_type":"image-keyboard-response","trial_index":65,"time_elapsed":149400,"internal_node_id":"0.0-3.0-0.31","subject_id":"607843e668136cd0bc9bee24","study_id":"607de2837874a824e2e8c6ec","session_id":"60884ffc935b682ee4b364ed","correct":true},{"rt":885,"stimulus":"\n      <p>How sure are you?</p>\n      <p>Rate your confidence in your answer from 1 (pure guess) to 5 (very sure) by pressing the corresponding button.</p>\n     ","response":4,"image":"img/hat_alternate.jpg","task":"confidence","old_or_new":"new","trial_type":"html-button-response","trial_index":66,"time_elapsed":150284,"internal_node_id":"0.0-3.0-1.31","subject_id":"607843e668136cd0bc9bee24","study_id":"607de2837874a824e2e8c6ec","session_id":"60884ffc935b682ee4b364ed"},{"rt":22202,"stimulus":"img/hairbrush_alternate.jpg","response":"y","image":"img/hairbrush_alternate.jpg","old_or_new":"new","task":"recognition","trial_type":"image-keyboard-response","trial_index":67,"time_elapsed":172993,"internal_node_id":"0.0-3.0-0.32","subject_id":"607843e668136cd0bc9bee24","study_id":"607de2837874a824e2e8c6ec","session_id":"60884ffc935b682ee4b364ed","correct":false},{"rt":1481,"stimulus":"\n      <p>How sure are you?</p>\n      <p>Rate your confidence in your answer from 1 (pure guess) to 5 (very sure) by pressing the corresponding button.</p>\n     ","response":2,"image":"img/hairbrush_alternate.jpg","task":"confidence","old_or_new":"new","trial_type":"html-button-response","trial_index":68,"time_elapsed":174479,"internal_node_id":"0.0-3.0-1.32","subject_id":"607843e668136cd0bc9bee24","study_id":"607de2837874a824e2e8c6ec","session_id":"60884ffc935b682ee4b364ed"},{"rt":1090,"stimulus":"img/leaf.jpg","response":"y","image":"img/leaf.jpg","old_or_new":"old","task":"recognition","trial_type":"image-keyboard-response","trial_index":69,"time_elapsed":176087,"internal_node_id":"0.0-3.0-0.33","subject_id":"607843e668136cd0bc9bee24","study_id":"607de2837874a824e2e8c6ec","session_id":"60884ffc935b682ee4b364ed","correct":true},{"rt":1435,"stimulus":"\n      <p>How sure are you?</p>\n      <p>Rate your confidence in your answer from 1 (pure guess) to 5 (very sure) by pressing the corresponding button.</p>\n     ","response":4,"image":"img/leaf.jpg","task":"confidence","old_or_new":"old","trial_type":"html-button-response","trial_index":70,"time_elapsed":177524,"internal_node_id":"0.0-3.0-1.33","subject_id":"607843e668136cd0bc9bee24","study_id":"607de2837874a824e2e8c6ec","session_id":"60884ffc935b682ee4b364ed"},{"rt":2076,"stimulus":"img/camera_alternate.jpg","response":"n","image":"img/camera_alternate.jpg","old_or_new":"new","task":"recognition","trial_type":"image-keyboard-response","trial_index":71,"time_elapsed":180126,"internal_node_id":"0.0-3.0-0.34","subject_id":"607843e668136cd0bc9bee24","study_id":"607de2837874a824e2e8c6ec","session_id":"60884ffc935b682ee4b364ed","correct":true},{"rt":1204,"stimulus":"\n      <p>How sure are you?</p>\n      <p>Rate your confidence in your answer from 1 (pure guess) to 5 (very sure) by pressing the corresponding button.</p>\n     ","response":4,"image":"img/camera_alternate.jpg","task":"confidence","old_or_new":"new","trial_type":"html-button-response","trial_index":72,"time_elapsed":181334,"internal_node_id":"0.0-3.0-1.34","subject_id":"607843e668136cd0bc9bee24","study_id":"607de2837874a824e2e8c6ec","session_id":"60884ffc935b682ee4b364ed"},{"rt":1824,"stimulus":"img/basket_alternate.jpg","response":"n","image":"img/basket_alternate.jpg","old_or_new":"new","task":"recognition","trial_type":"image-keyboard-response","trial_index":73,"time_elapsed":183683,"internal_node_id":"0.0-3.0-0.35","subject_id":"607843e668136cd0bc9bee24","study_id":"607de2837874a824e2e8c6ec","session_id":"60884ffc935b682ee4b364ed","correct":true},{"rt":1401,"stimulus":"\n      <p>How sure are you?</p>\n      <p>Rate your confidence in your answer from 1 (pure guess) to 5 (very sure) by pressing the corresponding button.</p>\n     ","response":4,"image":"img/basket_alternate.jpg","task":"confidence","old_or_new":"new","trial_type":"html-button-response","trial_index":74,"time_elapsed":185085,"internal_node_id":"0.0-3.0-1.35","subject_id":"607843e668136cd0bc9bee24","study_id":"607de2837874a824e2e8c6ec","session_id":"60884ffc935b682ee4b364ed"},{"rt":1567,"stimulus":"img/fan.jpg","response":"y","image":"img/fan.jpg","old_or_new":"old","task":"recognition","trial_type":"image-keyboard-response","trial_index":75,"time_elapsed":187170,"internal_node_id":"0.0-3.0-0.36","subject_id":"607843e668136cd0bc9bee24","study_id":"607de2837874a824e2e8c6ec","session_id":"60884ffc935b682ee4b364ed","correct":true},{"rt":1108,"stimulus":"\n      <p>How sure are you?</p>\n      <p>Rate your confidence in your answer from 1 (pure guess) to 5 (very sure) by pressing the corresponding button.</p>\n     ","response":4,"image":"img/fan.jpg","task":"confidence","old_or_new":"old","trial_type":"html-button-response","trial_index":76,"time_elapsed":188282,"internal_node_id":"0.0-3.0-1.36","subject_id":"607843e668136cd0bc9bee24","study_id":"607de2837874a824e2e8c6ec","session_id":"60884ffc935b682ee4b364ed"},{"rt":2727,"stimulus":"img/key_alternate.jpg","response":"n","image":"img/key_alternate.jpg","old_or_new":"new","task":"recognition","trial_type":"image-keyboard-response","trial_index":77,"time_elapsed":191529,"internal_node_id":"0.0-3.0-0.37","subject_id":"607843e668136cd0bc9bee24","study_id":"607de2837874a824e2e8c6ec","session_id":"60884ffc935b682ee4b364ed","correct":true},{"rt":1102,"stimulus":"\n      <p>How sure are you?</p>\n      <p>Rate your confidence in your answer from 1 (pure guess) to 5 (very sure) by pressing the corresponding button.</p>\n     ","response":4,"image":"img/key_alternate.jpg","task":"confidence","old_or_new":"new","trial_type":"html-button-response","trial_index":78,"time_elapsed":192632,"internal_node_id":"0.0-3.0-1.37","subject_id":"607843e668136cd0bc9bee24","study_id":"607de2837874a824e2e8c6ec","session_id":"60884ffc935b682ee4b364ed"},{"rt":1172,"stimulus":"img/glasses.jpg","response":"y","image":"img/glasses.jpg","old_or_new":"old","task":"recognition","trial_type":"image-keyboard-response","trial_index":79,"time_elapsed":194315,"internal_node_id":"0.0-3.0-0.38","subject_id":"607843e668136cd0bc9bee24","study_id":"607de2837874a824e2e8c6ec","session_id":"60884ffc935b682ee4b364ed","correct":true},{"rt":2371,"stimulus":"\n      <p>How sure are you?</p>\n      <p>Rate your confidence in your answer from 1 (pure guess) to 5 (very sure) by pressing the corresponding button.</p>\n     ","response":4,"image":"img/glasses.jpg","task":"confidence","old_or_new":"old","trial_type":"html-button-response","trial_index":80,"time_elapsed":196687,"internal_node_id":"0.0-3.0-1.38","subject_id":"607843e668136cd0bc9bee24","study_id":"607de2837874a824e2e8c6ec","session_id":"60884ffc935b682ee4b364ed"},{"rt":1132,"stimulus":"img/chair_alternate.jpg","response":"n","image":"img/chair_alternate.jpg","old_or_new":"new","task":"recognition","trial_type":"image-keyboard-response","trial_index":81,"time_elapsed":198341,"internal_node_id":"0.0-3.0-0.39","subject_id":"607843e668136cd0bc9bee24","study_id":"607de2837874a824e2e8c6ec","session_id":"60884ffc935b682ee4b364ed","correct":true},{"rt":2497,"stimulus":"\n      <p>How sure are you?</p>\n      <p>Rate your confidence in your answer from 1 (pure guess) to 5 (very sure) by pressing the corresponding button.</p>\n     ","response":4,"image":"img/chair_alternate.jpg","task":"confidence","old_or_new":"new","trial_type":"html-button-response","trial_index":82,"time_elapsed":200838,"internal_node_id":"0.0-3.0-1.39","subject_id":"607843e668136cd0bc9bee24","study_id":"607de2837874a824e2e8c6ec","session_id":"60884ffc935b682ee4b364ed"},{"rt":956,"stimulus":"img/backpack.jpg","response":"y","image":"img/backpack.jpg","old_or_new":"old","task":"recognition","trial_type":"image-keyboard-response","trial_index":83,"time_elapsed":202307,"internal_node_id":"0.0-3.0-0.40","subject_id":"607843e668136cd0bc9bee24","study_id":"607de2837874a824e2e8c6ec","session_id":"60884ffc935b682ee4b364ed","correct":true},{"rt":1342,"stimulus":"\n      <p>How sure are you?</p>\n      <p>Rate your confidence in your answer from 1 (pure guess) to 5 (very sure) by pressing the corresponding button.</p>\n     ","response":4,"image":"img/backpack.jpg","task":"confidence","old_or_new":"old","trial_type":"html-button-response","trial_index":84,"time_elapsed":203652,"internal_node_id":"0.0-3.0-1.40","subject_id":"607843e668136cd0bc9bee24","study_id":"607de2837874a824e2e8c6ec","session_id":"60884ffc935b682ee4b364ed"},{"rt":1006,"stimulus":"img/bowl_alternate.jpg","response":"n","image":"img/bowl_alternate.jpg","old_or_new":"new","task":"recognition","trial_type":"image-keyboard-response","trial_index":85,"time_elapsed":205172,"internal_node_id":"0.0-3.0-0.41","subject_id":"607843e668136cd0bc9bee24","study_id":"607de2837874a824e2e8c6ec","session_id":"60884ffc935b682ee4b364ed","correct":true},{"rt":1282,"stimulus":"\n      <p>How sure are you?</p>\n      <p>Rate your confidence in your answer from 1 (pure guess) to 5 (very sure) by pressing the corresponding button.</p>\n     ","response":4,"image":"img/bowl_alternate.jpg","task":"confidence","old_or_new":"new","trial_type":"html-button-response","trial_index":86,"time_elapsed":206455,"internal_node_id":"0.0-3.0-1.41","subject_id":"607843e668136cd0bc9bee24","study_id":"607de2837874a824e2e8c6ec","session_id":"60884ffc935b682ee4b364ed"},{"rt":1005,"stimulus":"img/coin_alternate.jpg","response":"n","image":"img/coin_alternate.jpg","old_or_new":"new","task":"recognition","trial_type":"image-keyboard-response","trial_index":87,"time_elapsed":207980,"internal_node_id":"0.0-3.0-0.42","subject_id":"607843e668136cd0bc9bee24","study_id":"607de2837874a824e2e8c6ec","session_id":"60884ffc935b682ee4b364ed","correct":true},{"rt":1183,"stimulus":"\n      <p>How sure are you?</p>\n      <p>Rate your confidence in your answer from 1 (pure guess) to 5 (very sure) by pressing the corresponding button.</p>\n     ","response":4,"image":"img/coin_alternate.jpg","task":"confidence","old_or_new":"new","trial_type":"html-button-response","trial_index":88,"time_elapsed":209165,"internal_node_id":"0.0-3.0-1.42","subject_id":"607843e668136cd0bc9bee24","study_id":"607de2837874a824e2e8c6ec","session_id":"60884ffc935b682ee4b364ed"},{"rt":2602,"stimulus":"img/calculator_alternate.jpg","response":"n","image":"img/calculator_alternate.jpg","old_or_new":"new","task":"recognition","trial_type":"image-keyboard-response","trial_index":89,"time_elapsed":212275,"internal_node_id":"0.0-3.0-0.43","subject_id":"607843e668136cd0bc9bee24","study_id":"607de2837874a824e2e8c6ec","session_id":"60884ffc935b682ee4b364ed","correct":true},{"rt":1111,"stimulus":"\n      <p>How sure are you?</p>\n      <p>Rate your confidence in your answer from 1 (pure guess) to 5 (very sure) by pressing the corresponding button.</p>\n     ","response":4,"image":"img/calculator_alternate.jpg","task":"confidence","old_or_new":"new","trial_type":"html-button-response","trial_index":90,"time_elapsed":213387,"internal_node_id":"0.0-3.0-1.43","subject_id":"607843e668136cd0bc9bee24","study_id":"607de2837874a824e2e8c6ec","session_id":"60884ffc935b682ee4b364ed"},{"rt":1671,"stimulus":"img/dryer_alternate.jpg","response":"n","image":"img/dryer_alternate.jpg","old_or_new":"new","task":"recognition","trial_type":"image-keyboard-response","trial_index":91,"time_elapsed":215577,"internal_node_id":"0.0-3.0-0.44","subject_id":"607843e668136cd0bc9bee24","study_id":"607de2837874a824e2e8c6ec","session_id":"60884ffc935b682ee4b364ed","correct":true},{"rt":1305,"stimulus":"\n      <p>How sure are you?</p>\n      <p>Rate your confidence in your answer from 1 (pure guess) to 5 (very sure) by pressing the corresponding button.</p>\n     ","response":4,"image":"img/dryer_alternate.jpg","task":"confidence","old_or_new":"new","trial_type":"html-button-response","trial_index":92,"time_elapsed":216882,"internal_node_id":"0.0-3.0-1.44","subject_id":"607843e668136cd0bc9bee24","study_id":"607de2837874a824e2e8c6ec","session_id":"60884ffc935b682ee4b364ed"},{"rt":1134,"stimulus":"img/key.jpg","response":"y","image":"img/key.jpg","old_or_new":"old","task":"recognition","trial_type":"image-keyboard-response","trial_index":93,"time_elapsed":218521,"internal_node_id":"0.0-3.0-0.45","subject_id":"607843e668136cd0bc9bee24","study_id":"607de2837874a824e2e8c6ec","session_id":"60884ffc935b682ee4b364ed","correct":true},{"rt":1298,"stimulus":"\n      <p>How sure are you?</p>\n      <p>Rate your confidence in your answer from 1 (pure guess) to 5 (very sure) by pressing the corresponding button.</p>\n     ","response":4,"image":"img/key.jpg","task":"confidence","old_or_new":"old","trial_type":"html-button-response","trial_index":94,"time_elapsed":219819,"internal_node_id":"0.0-3.0-1.45","subject_id":"607843e668136cd0bc9bee24","study_id":"607de2837874a824e2e8c6ec","session_id":"60884ffc935b682ee4b364ed"},{"rt":1000,"stimulus":"img/ladder.jpg","response":"y","image":"img/ladder.jpg","old_or_new":"old","task":"recognition","trial_type":"image-keyboard-response","trial_index":95,"time_elapsed":221344,"internal_node_id":"0.0-3.0-0.46","subject_id":"607843e668136cd0bc9bee24","study_id":"607de2837874a824e2e8c6ec","session_id":"60884ffc935b682ee4b364ed","correct":true},{"rt":1193,"stimulus":"\n      <p>How sure are you?</p>\n      <p>Rate your confidence in your answer from 1 (pure guess) to 5 (very sure) by pressing the corresponding button.</p>\n     ","response":4,"image":"img/ladder.jpg","task":"confidence","old_or_new":"old","trial_type":"html-button-response","trial_index":96,"time_elapsed":222539,"internal_node_id":"0.0-3.0-1.46","subject_id":"607843e668136cd0bc9bee24","study_id":"607de2837874a824e2e8c6ec","session_id":"60884ffc935b682ee4b364ed"},{"rt":975,"stimulus":"img/folder.jpg","response":"y","image":"img/folder.jpg","old_or_new":"old","task":"recognition","trial_type":"image-keyboard-response","trial_index":97,"time_elapsed":224037,"internal_node_id":"0.0-3.0-0.47","subject_id":"607843e668136cd0bc9bee24","study_id":"607de2837874a824e2e8c6ec","session_id":"60884ffc935b682ee4b364ed","correct":true},{"rt":1269,"stimulus":"\n      <p>How sure are you?</p>\n      <p>Rate your confidence in your answer from 1 (pure guess) to 5 (very sure) by pressing the corresponding button.</p>\n     ","response":4,"image":"img/folder.jpg","task":"confidence","old_or_new":"old","trial_type":"html-button-response","trial_index":98,"time_elapsed":225309,"internal_node_id":"0.0-3.0-1.47","subject_id":"607843e668136cd0bc9bee24","study_id":"607de2837874a824e2e8c6ec","session_id":"60884ffc935b682ee4b364ed"}]