[{"success":true,"timeout":false,"failed_images":[],"failed_audio":[],"failed_video":[],"trial_type":"preload","trial_index":0,"time_elapsed":4544,"internal_node_id":"0.0-0.0","subject_id":"5f60d657f5c08a04ee49627b","study_id":"606233c0e42b980319b6a18e","session_id":"608834d91ca012455433a36a"},{"rt":22208.624999970198,"stimulus":"\n      <div style=\"width:800px; text-align: left;\">\n        <p>Welcome to day 2 of the experiment! Thanks for coming back.</p>\n        <p>You will be presented with a series of images. Images will appear one at a time.</p>\n        <p>Each image will remain on the screen until you press either <span style=\"font-weight: bold;\">\"y\" to indicate you have seen the \n        exact same photo the day before or \"n\" to indicate you have not seen the exact same photo the day before.</span></p>\n        <p>After you answer yes (\"y\") or no (\"n\"), you will then be prompted to rate your certainty on a scale of\n        1 (pure guess) to 5 (very sure).</p>\n      </div>\n    ","response":0,"trial_type":"html-button-response","trial_index":1,"time_elapsed":26756,"internal_node_id":"0.0-1.0","subject_id":"5f60d657f5c08a04ee49627b","study_id":"606233c0e42b980319b6a18e","session_id":"608834d91ca012455433a36a"},{"success":true,"trial_type":"fullscreen","trial_index":2,"time_elapsed":30781,"internal_node_id":"0.0-2.0","subject_id":"5f60d657f5c08a04ee49627b","study_id":"606233c0e42b980319b6a18e","session_id":"608834d91ca012455433a36a"},{"rt":2681.525000021793,"stimulus":"img/plate.jpg","response":"y","image":"img/plate.jpg","old_or_new":"old","task":"recognition","trial_type":"image-keyboard-response","trial_index":3,"time_elapsed":33493,"internal_node_id":"0.0-3.0-0.0","subject_id":"5f60d657f5c08a04ee49627b","study_id":"606233c0e42b980319b6a18e","session_id":"608834d91ca012455433a36a","correct":true},{"rt":4644.235000014305,"stimulus":"\n      <p>How sure are you?</p>\n      <p>Rate your confidence in your answer from 1 (pure guess) to 5 (very sure) by pressing the corresponding button.</p>\n     ","response":4,"image":"img/plate.jpg","task":"confidence","old_or_new":"old","trial_type":"html-button-response","trial_index":4,"time_elapsed":38140,"internal_node_id":"0.0-3.0-1.0","subject_id":"5f60d657f5c08a04ee49627b","study_id":"606233c0e42b980319b6a18e","session_id":"608834d91ca012455433a36a"},{"rt":1463.285000063479,"stimulus":"img/rolling_pin.jpg","response":"y","image":"img/rolling_pin.jpg","old_or_new":"old","task":"recognition","trial_type":"image-keyboard-response","trial_index":5,"time_elapsed":40114,"internal_node_id":"0.0-3.0-0.1","subject_id":"5f60d657f5c08a04ee49627b","study_id":"606233c0e42b980319b6a18e","session_id":"608834d91ca012455433a36a","correct":true},{"rt":1031.2250000424683,"stimulus":"\n      <p>How sure are you?</p>\n      <p>Rate your confidence in your answer from 1 (pure guess) to 5 (very sure) by pressing the corresponding button.</p>\n     ","response":4,"image":"img/rolling_pin.jpg","task":"confidence","old_or_new":"old","trial_type":"html-button-response","trial_index":6,"time_elapsed":41148,"internal_node_id":"0.0-3.0-1.1","subject_id":"5f60d657f5c08a04ee49627b","study_id":"606233c0e42b980319b6a18e","session_id":"608834d91ca012455433a36a"},{"rt":1241.7800000403076,"stimulus":"img/pencil_sharpener.jpg","response":"y","image":"img/pencil_sharpener.jpg","old_or_new":"old","task":"recognition","trial_type":"image-keyboard-response","trial_index":7,"time_elapsed":42907,"internal_node_id":"0.0-3.0-0.2","subject_id":"5f60d657f5c08a04ee49627b","study_id":"606233c0e42b980319b6a18e","session_id":"608834d91ca012455433a36a","correct":true},{"rt":1008.5549999494106,"stimulus":"\n      <p>How sure are you?</p>\n      <p>Rate your confidence in your answer from 1 (pure guess) to 5 (very sure) by pressing the corresponding button.</p>\n     ","response":4,"image":"img/pencil_sharpener.jpg","task":"confidence","old_or_new":"old","trial_type":"html-button-response","trial_index":8,"time_elapsed":43917,"internal_node_id":"0.0-3.0-1.2","subject_id":"5f60d657f5c08a04ee49627b","study_id":"606233c0e42b980319b6a18e","session_id":"608834d91ca012455433a36a"},{"rt":5255.215000011958,"stimulus":"img/wheel_barrow_alternate.jpg","response":"n","image":"img/wheel_barrow_alternate.jpg","old_or_new":"new","task":"recognition","trial_type":"image-keyboard-response","trial_index":9,"time_elapsed":49686,"internal_node_id":"0.0-3.0-0.3","subject_id":"5f60d657f5c08a04ee49627b","study_id":"606233c0e42b980319b6a18e","session_id":"608834d91ca012455433a36a","correct":true},{"rt":1443.269999930635,"stimulus":"\n      <p>How sure are you?</p>\n      <p>Rate your confidence in your answer from 1 (pure guess) to 5 (very sure) by pressing the corresponding button.</p>\n     ","response":3,"image":"img/wheel_barrow_alternate.jpg","task":"confidence","old_or_new":"new","trial_type":"html-button-response","trial_index":10,"time_elapsed":51133,"internal_node_id":"0.0-3.0-1.3","subject_id":"5f60d657f5c08a04ee49627b","study_id":"606233c0e42b980319b6a18e","session_id":"608834d91ca012455433a36a"},{"rt":1304.770000046119,"stimulus":"img/spoon_alternate.jpg","response":"n","image":"img/spoon_alternate.jpg","old_or_new":"new","task":"recognition","trial_type":"image-keyboard-response","trial_index":11,"time_elapsed":52945,"internal_node_id":"0.0-3.0-0.4","subject_id":"5f60d657f5c08a04ee49627b","study_id":"606233c0e42b980319b6a18e","session_id":"608834d91ca012455433a36a","correct":true},{"rt":990.5749999452382,"stimulus":"\n      <p>How sure are you?</p>\n      <p>Rate your confidence in your answer from 1 (pure guess) to 5 (very sure) by pressing the corresponding button.</p>\n     ","response":3,"image":"img/spoon_alternate.jpg","task":"confidence","old_or_new":"new","trial_type":"html-button-response","trial_index":12,"time_elapsed":53937,"internal_node_id":"0.0-3.0-1.4","subject_id":"5f60d657f5c08a04ee49627b","study_id":"606233c0e42b980319b6a18e","session_id":"608834d91ca012455433a36a"},{"rt":1327.3050000425428,"stimulus":"img/tv_alternate.jpg","response":"y","image":"img/tv_alternate.jpg","old_or_new":"new","task":"recognition","trial_type":"image-keyboard-response","trial_index":13,"time_elapsed":55777,"internal_node_id":"0.0-3.0-0.5","subject_id":"5f60d657f5c08a04ee49627b","study_id":"606233c0e42b980319b6a18e","session_id":"608834d91ca012455433a36a","correct":false},{"rt":1215.2950000017881,"stimulus":"\n      <p>How sure are you?</p>\n      <p>Rate your confidence in your answer from 1 (pure guess) to 5 (very sure) by pressing the corresponding button.</p>\n     ","response":4,"image":"img/tv_alternate.jpg","task":"confidence","old_or_new":"new","trial_type":"html-button-response","trial_index":14,"time_elapsed":56994,"internal_node_id":"0.0-3.0-1.5","subject_id":"5f60d657f5c08a04ee49627b","study_id":"606233c0e42b980319b6a18e","session_id":"608834d91ca012455433a36a"},{"rt":1405.3350000176579,"stimulus":"img/rolling_pin_alternate.jpg","response":"n","image":"img/rolling_pin_alternate.jpg","old_or_new":"new","task":"recognition","trial_type":"image-keyboard-response","trial_index":15,"time_elapsed":58907,"internal_node_id":"0.0-3.0-0.6","subject_id":"5f60d657f5c08a04ee49627b","study_id":"606233c0e42b980319b6a18e","session_id":"608834d91ca012455433a36a","correct":true},{"rt":1286.8999999482185,"stimulus":"\n      <p>How sure are you?</p>\n      <p>Rate your confidence in your answer from 1 (pure guess) to 5 (very sure) by pressing the corresponding button.</p>\n     ","response":3,"image":"img/rolling_pin_alternate.jpg","task":"confidence","old_or_new":"new","trial_type":"html-button-response","trial_index":16,"time_elapsed":60196,"internal_node_id":"0.0-3.0-1.6","subject_id":"5f60d657f5c08a04ee49627b","study_id":"606233c0e42b980319b6a18e","session_id":"608834d91ca012455433a36a"},{"rt":1414.2500000307336,"stimulus":"img/power_cord_alternate.jpg","response":"n","image":"img/power_cord_alternate.jpg","old_or_new":"new","task":"recognition","trial_type":"image-keyboard-response","trial_index":17,"time_elapsed":62114,"internal_node_id":"0.0-3.0-0.7","subject_id":"5f60d657f5c08a04ee49627b","study_id":"606233c0e42b980319b6a18e","session_id":"608834d91ca012455433a36a","correct":true},{"rt":1086.820000084117,"stimulus":"\n      <p>How sure are you?</p>\n      <p>Rate your confidence in your answer from 1 (pure guess) to 5 (very sure) by pressing the corresponding button.</p>\n     ","response":4,"image":"img/power_cord_alternate.jpg","task":"confidence","old_or_new":"new","trial_type":"html-button-response","trial_index":18,"time_elapsed":63204,"internal_node_id":"0.0-3.0-1.7","subject_id":"5f60d657f5c08a04ee49627b","study_id":"606233c0e42b980319b6a18e","session_id":"608834d91ca012455433a36a"},{"rt":5766.100000008009,"stimulus":"img/toaster_alternate.jpg","response":"n","image":"img/toaster_alternate.jpg","old_or_new":"new","task":"recognition","trial_type":"image-keyboard-response","trial_index":19,"time_elapsed":69486,"internal_node_id":"0.0-3.0-0.8","subject_id":"5f60d657f5c08a04ee49627b","study_id":"606233c0e42b980319b6a18e","session_id":"608834d91ca012455433a36a","correct":true},{"rt":1302.2600000258535,"stimulus":"\n      <p>How sure are you?</p>\n      <p>Rate your confidence in your answer from 1 (pure guess) to 5 (very sure) by pressing the corresponding button.</p>\n     ","response":2,"image":"img/toaster_alternate.jpg","task":"confidence","old_or_new":"new","trial_type":"html-button-response","trial_index":20,"time_elapsed":70792,"internal_node_id":"0.0-3.0-1.8","subject_id":"5f60d657f5c08a04ee49627b","study_id":"606233c0e42b980319b6a18e","session_id":"608834d91ca012455433a36a"},{"rt":5681.165000074543,"stimulus":"img/plane_alternate.jpg","response":"n","image":"img/plane_alternate.jpg","old_or_new":"new","task":"recognition","trial_type":"image-keyboard-response","trial_index":21,"time_elapsed":76998,"internal_node_id":"0.0-3.0-0.9","subject_id":"5f60d657f5c08a04ee49627b","study_id":"606233c0e42b980319b6a18e","session_id":"608834d91ca012455433a36a","correct":true},{"rt":1306.6800000378862,"stimulus":"\n      <p>How sure are you?</p>\n      <p>Rate your confidence in your answer from 1 (pure guess) to 5 (very sure) by pressing the corresponding button.</p>\n     ","response":1,"image":"img/plane_alternate.jpg","task":"confidence","old_or_new":"new","trial_type":"html-button-response","trial_index":22,"time_elapsed":78307,"internal_node_id":"0.0-3.0-1.9","subject_id":"5f60d657f5c08a04ee49627b","study_id":"606233c0e42b980319b6a18e","session_id":"608834d91ca012455433a36a"},{"rt":1119.6299999719486,"stimulus":"img/watch.jpg","response":"y","image":"img/watch.jpg","old_or_new":"old","task":"recognition","trial_type":"image-keyboard-response","trial_index":23,"time_elapsed":79934,"internal_node_id":"0.0-3.0-0.10","subject_id":"5f60d657f5c08a04ee49627b","study_id":"606233c0e42b980319b6a18e","session_id":"608834d91ca012455433a36a","correct":true},{"rt":1464.0949999447912,"stimulus":"\n      <p>How sure are you?</p>\n      <p>Rate your confidence in your answer from 1 (pure guess) to 5 (very sure) by pressing the corresponding button.</p>\n     ","response":4,"image":"img/watch.jpg","task":"confidence","old_or_new":"old","trial_type":"html-button-response","trial_index":24,"time_elapsed":81401,"internal_node_id":"0.0-3.0-1.10","subject_id":"5f60d657f5c08a04ee49627b","study_id":"606233c0e42b980319b6a18e","session_id":"608834d91ca012455433a36a"},{"rt":1686.394999967888,"stimulus":"img/parfait_alternate.jpg","response":"n","image":"img/parfait_alternate.jpg","old_or_new":"new","task":"recognition","trial_type":"image-keyboard-response","trial_index":25,"time_elapsed":83601,"internal_node_id":"0.0-3.0-0.11","subject_id":"5f60d657f5c08a04ee49627b","study_id":"606233c0e42b980319b6a18e","session_id":"608834d91ca012455433a36a","correct":true},{"rt":1177.8400000184774,"stimulus":"\n      <p>How sure are you?</p>\n      <p>Rate your confidence in your answer from 1 (pure guess) to 5 (very sure) by pressing the corresponding button.</p>\n     ","response":3,"image":"img/parfait_alternate.jpg","task":"confidence","old_or_new":"new","trial_type":"html-button-response","trial_index":26,"time_elapsed":84780,"internal_node_id":"0.0-3.0-1.11","subject_id":"5f60d657f5c08a04ee49627b","study_id":"606233c0e42b980319b6a18e","session_id":"608834d91ca012455433a36a"},{"rt":1176.534999976866,"stimulus":"img/shirt_alternate.jpg","response":"n","image":"img/shirt_alternate.jpg","old_or_new":"new","task":"recognition","trial_type":"image-keyboard-response","trial_index":27,"time_elapsed":86466,"internal_node_id":"0.0-3.0-0.12","subject_id":"5f60d657f5c08a04ee49627b","study_id":"606233c0e42b980319b6a18e","session_id":"608834d91ca012455433a36a","correct":true},{"rt":1081.1199999880046,"stimulus":"\n      <p>How sure are you?</p>\n      <p>Rate your confidence in your answer from 1 (pure guess) to 5 (very sure) by pressing the corresponding button.</p>\n     ","response":4,"image":"img/shirt_alternate.jpg","task":"confidence","old_or_new":"new","trial_type":"html-button-response","trial_index":28,"time_elapsed":87549,"internal_node_id":"0.0-3.0-1.12","subject_id":"5f60d657f5c08a04ee49627b","study_id":"606233c0e42b980319b6a18e","session_id":"608834d91ca012455433a36a"},{"rt":1223.7500000046566,"stimulus":"img/sink.jpg","response":"y","image":"img/sink.jpg","old_or_new":"old","task":"recognition","trial_type":"image-keyboard-response","trial_index":29,"time_elapsed":89276,"internal_node_id":"0.0-3.0-0.13","subject_id":"5f60d657f5c08a04ee49627b","study_id":"606233c0e42b980319b6a18e","session_id":"608834d91ca012455433a36a","correct":true},{"rt":2645.295000053011,"stimulus":"\n      <p>How sure are you?</p>\n      <p>Rate your confidence in your answer from 1 (pure guess) to 5 (very sure) by pressing the corresponding button.</p>\n     ","response":4,"image":"img/sink.jpg","task":"confidence","old_or_new":"old","trial_type":"html-button-response","trial_index":30,"time_elapsed":91924,"internal_node_id":"0.0-3.0-1.13","subject_id":"5f60d657f5c08a04ee49627b","study_id":"606233c0e42b980319b6a18e","session_id":"608834d91ca012455433a36a"},{"rt":1139.2500000074506,"stimulus":"img/shoe.jpg","response":"y","image":"img/shoe.jpg","old_or_new":"old","task":"recognition","trial_type":"image-keyboard-response","trial_index":31,"time_elapsed":93580,"internal_node_id":"0.0-3.0-0.14","subject_id":"5f60d657f5c08a04ee49627b","study_id":"606233c0e42b980319b6a18e","session_id":"608834d91ca012455433a36a","correct":true},{"rt":1996.2049999739975,"stimulus":"\n      <p>How sure are you?</p>\n      <p>Rate your confidence in your answer from 1 (pure guess) to 5 (very sure) by pressing the corresponding button.</p>\n     ","response":4,"image":"img/shoe.jpg","task":"confidence","old_or_new":"old","trial_type":"html-button-response","trial_index":32,"time_elapsed":95579,"internal_node_id":"0.0-3.0-1.14","subject_id":"5f60d657f5c08a04ee49627b","study_id":"606233c0e42b980319b6a18e","session_id":"608834d91ca012455433a36a"},{"rt":1046.805000049062,"stimulus":"img/parfait.jpg","response":"y","image":"img/parfait.jpg","old_or_new":"old","task":"recognition","trial_type":"image-keyboard-response","trial_index":33,"time_elapsed":97141,"internal_node_id":"0.0-3.0-0.15","subject_id":"5f60d657f5c08a04ee49627b","study_id":"606233c0e42b980319b6a18e","session_id":"608834d91ca012455433a36a","correct":true},{"rt":2821.8849999830127,"stimulus":"\n      <p>How sure are you?</p>\n      <p>Rate your confidence in your answer from 1 (pure guess) to 5 (very sure) by pressing the corresponding button.</p>\n     ","response":4,"image":"img/parfait.jpg","task":"confidence","old_or_new":"old","trial_type":"html-button-response","trial_index":34,"time_elapsed":99966,"internal_node_id":"0.0-3.0-1.15","subject_id":"5f60d657f5c08a04ee49627b","study_id":"606233c0e42b980319b6a18e","session_id":"608834d91ca012455433a36a"},{"rt":2713.080000015907,"stimulus":"img/scissors_alternate.jpg","response":"n","image":"img/scissors_alternate.jpg","old_or_new":"new","task":"recognition","trial_type":"image-keyboard-response","trial_index":35,"time_elapsed":103187,"internal_node_id":"0.0-3.0-0.16","subject_id":"5f60d657f5c08a04ee49627b","study_id":"606233c0e42b980319b6a18e","session_id":"608834d91ca012455433a36a","correct":true},{"rt":2149.6899999910966,"stimulus":"\n      <p>How sure are you?</p>\n      <p>Rate your confidence in your answer from 1 (pure guess) to 5 (very sure) by pressing the corresponding button.</p>\n     ","response":3,"image":"img/scissors_alternate.jpg","task":"confidence","old_or_new":"new","trial_type":"html-button-response","trial_index":36,"time_elapsed":105341,"internal_node_id":"0.0-3.0-1.16","subject_id":"5f60d657f5c08a04ee49627b","study_id":"606233c0e42b980319b6a18e","session_id":"608834d91ca012455433a36a"},{"rt":1168.0799999739975,"stimulus":"img/plane.jpg","response":"y","image":"img/plane.jpg","old_or_new":"old","task":"recognition","trial_type":"image-keyboard-response","trial_index":37,"time_elapsed":107017,"internal_node_id":"0.0-3.0-0.17","subject_id":"5f60d657f5c08a04ee49627b","study_id":"606233c0e42b980319b6a18e","session_id":"608834d91ca012455433a36a","correct":true},{"rt":1234.1599999926984,"stimulus":"\n      <p>How sure are you?</p>\n      <p>Rate your confidence in your answer from 1 (pure guess) to 5 (very sure) by pressing the corresponding button.</p>\n     ","response":4,"image":"img/plane.jpg","task":"confidence","old_or_new":"old","trial_type":"html-button-response","trial_index":38,"time_elapsed":108253,"internal_node_id":"0.0-3.0-1.17","subject_id":"5f60d657f5c08a04ee49627b","study_id":"606233c0e42b980319b6a18e","session_id":"608834d91ca012455433a36a"},{"rt":3581.6600000252947,"stimulus":"img/trophy_alternate.jpg","response":"n","image":"img/trophy_alternate.jpg","old_or_new":"new","task":"recognition","trial_type":"image-keyboard-response","trial_index":39,"time_elapsed":112347,"internal_node_id":"0.0-3.0-0.18","subject_id":"5f60d657f5c08a04ee49627b","study_id":"606233c0e42b980319b6a18e","session_id":"608834d91ca012455433a36a","correct":true},{"rt":1385.93500002753,"stimulus":"\n      <p>How sure are you?</p>\n      <p>Rate your confidence in your answer from 1 (pure guess) to 5 (very sure) by pressing the corresponding button.</p>\n     ","response":0,"image":"img/trophy_alternate.jpg","task":"confidence","old_or_new":"new","trial_type":"html-button-response","trial_index":40,"time_elapsed":113735,"internal_node_id":"0.0-3.0-1.18","subject_id":"5f60d657f5c08a04ee49627b","study_id":"606233c0e42b980319b6a18e","session_id":"608834d91ca012455433a36a"},{"rt":1069.4949999451637,"stimulus":"img/pizza.jpg","response":"y","image":"img/pizza.jpg","old_or_new":"old","task":"recognition","trial_type":"image-keyboard-response","trial_index":41,"time_elapsed":115316,"internal_node_id":"0.0-3.0-0.19","subject_id":"5f60d657f5c08a04ee49627b","study_id":"606233c0e42b980319b6a18e","session_id":"608834d91ca012455433a36a","correct":true},{"rt":1509.1649999376386,"stimulus":"\n      <p>How sure are you?</p>\n      <p>Rate your confidence in your answer from 1 (pure guess) to 5 (very sure) by pressing the corresponding button.</p>\n     ","response":4,"image":"img/pizza.jpg","task":"confidence","old_or_new":"old","trial_type":"html-button-response","trial_index":42,"time_elapsed":116828,"internal_node_id":"0.0-3.0-1.19","subject_id":"5f60d657f5c08a04ee49627b","study_id":"606233c0e42b980319b6a18e","session_id":"608834d91ca012455433a36a"},{"rt":1221.55500005465,"stimulus":"img/toaster.jpg","response":"y","image":"img/toaster.jpg","old_or_new":"old","task":"recognition","trial_type":"image-keyboard-response","trial_index":43,"time_elapsed":118568,"internal_node_id":"0.0-3.0-0.20","subject_id":"5f60d657f5c08a04ee49627b","study_id":"606233c0e42b980319b6a18e","session_id":"608834d91ca012455433a36a","correct":true},{"rt":1900.0600000144914,"stimulus":"\n      <p>How sure are you?</p>\n      <p>Rate your confidence in your answer from 1 (pure guess) to 5 (very sure) by pressing the corresponding button.</p>\n     ","response":4,"image":"img/toaster.jpg","task":"confidence","old_or_new":"old","trial_type":"html-button-response","trial_index":44,"time_elapsed":120471,"internal_node_id":"0.0-3.0-1.20","subject_id":"5f60d657f5c08a04ee49627b","study_id":"606233c0e42b980319b6a18e","session_id":"608834d91ca012455433a36a"},{"rt":1055.9649999486282,"stimulus":"img/yarn.jpg","response":"y","image":"img/yarn.jpg","old_or_new":"old","task":"recognition","trial_type":"image-keyboard-response","trial_index":45,"time_elapsed":122038,"internal_node_id":"0.0-3.0-0.21","subject_id":"5f60d657f5c08a04ee49627b","study_id":"606233c0e42b980319b6a18e","session_id":"608834d91ca012455433a36a","correct":true},{"rt":961.9699999457225,"stimulus":"\n      <p>How sure are you?</p>\n      <p>Rate your confidence in your answer from 1 (pure guess) to 5 (very sure) by pressing the corresponding button.</p>\n     ","response":4,"image":"img/yarn.jpg","task":"confidence","old_or_new":"old","trial_type":"html-button-response","trial_index":46,"time_elapsed":123002,"internal_node_id":"0.0-3.0-1.21","subject_id":"5f60d657f5c08a04ee49627b","study_id":"606233c0e42b980319b6a18e","session_id":"608834d91ca012455433a36a"},{"rt":1316.759999957867,"stimulus":"img/watch_alternate.jpg","response":"n","image":"img/watch_alternate.jpg","old_or_new":"new","task":"recognition","trial_type":"image-keyboard-response","trial_index":47,"time_elapsed":124829,"internal_node_id":"0.0-3.0-0.22","subject_id":"5f60d657f5c08a04ee49627b","study_id":"606233c0e42b980319b6a18e","session_id":"608834d91ca012455433a36a","correct":true},{"rt":975.414999993518,"stimulus":"\n      <p>How sure are you?</p>\n      <p>Rate your confidence in your answer from 1 (pure guess) to 5 (very sure) by pressing the corresponding button.</p>\n     ","response":4,"image":"img/watch_alternate.jpg","task":"confidence","old_or_new":"new","trial_type":"html-button-response","trial_index":48,"time_elapsed":125808,"internal_node_id":"0.0-3.0-1.22","subject_id":"5f60d657f5c08a04ee49627b","study_id":"606233c0e42b980319b6a18e","session_id":"608834d91ca012455433a36a"},{"rt":5040.874999947846,"stimulus":"img/shovel_alternate.jpg","response":"n","image":"img/shovel_alternate.jpg","old_or_new":"new","task":"recognition","trial_type":"image-keyboard-response","trial_index":49,"time_elapsed":131358,"internal_node_id":"0.0-3.0-0.23","subject_id":"5f60d657f5c08a04ee49627b","study_id":"606233c0e42b980319b6a18e","session_id":"608834d91ca012455433a36a","correct":true},{"rt":1425.385000067763,"stimulus":"\n      <p>How sure are you?</p>\n      <p>Rate your confidence in your answer from 1 (pure guess) to 5 (very sure) by pressing the corresponding button.</p>\n     ","response":0,"image":"img/shovel_alternate.jpg","task":"confidence","old_or_new":"new","trial_type":"html-button-response","trial_index":50,"time_elapsed":132787,"internal_node_id":"0.0-3.0-1.23","subject_id":"5f60d657f5c08a04ee49627b","study_id":"606233c0e42b980319b6a18e","session_id":"608834d91ca012455433a36a"},{"rt":1056.9200000027195,"stimulus":"img/pizza_alternate.jpg","response":"n","image":"img/pizza_alternate.jpg","old_or_new":"new","task":"recognition","trial_type":"image-keyboard-response","trial_index":51,"time_elapsed":134353,"internal_node_id":"0.0-3.0-0.24","subject_id":"5f60d657f5c08a04ee49627b","study_id":"606233c0e42b980319b6a18e","session_id":"608834d91ca012455433a36a","correct":true},{"rt":1411.229999968782,"stimulus":"\n      <p>How sure are you?</p>\n      <p>Rate your confidence in your answer from 1 (pure guess) to 5 (very sure) by pressing the corresponding button.</p>\n     ","response":4,"image":"img/pizza_alternate.jpg","task":"confidence","old_or_new":"new","trial_type":"html-button-response","trial_index":52,"time_elapsed":135768,"internal_node_id":"0.0-3.0-1.24","subject_id":"5f60d657f5c08a04ee49627b","study_id":"606233c0e42b980319b6a18e","session_id":"608834d91ca012455433a36a"},{"rt":1013.8099999167025,"stimulus":"img/umbrella.jpg","response":"y","image":"img/umbrella.jpg","old_or_new":"old","task":"recognition","trial_type":"image-keyboard-response","trial_index":53,"time_elapsed":137299,"internal_node_id":"0.0-3.0-0.25","subject_id":"5f60d657f5c08a04ee49627b","study_id":"606233c0e42b980319b6a18e","session_id":"608834d91ca012455433a36a","correct":true},{"rt":1811.2099999561906,"stimulus":"\n      <p>How sure are you?</p>\n      <p>Rate your confidence in your answer from 1 (pure guess) to 5 (very sure) by pressing the corresponding button.</p>\n     ","response":4,"image":"img/umbrella.jpg","task":"confidence","old_or_new":"old","trial_type":"html-button-response","trial_index":54,"time_elapsed":139111,"internal_node_id":"0.0-3.0-1.25","subject_id":"5f60d657f5c08a04ee49627b","study_id":"606233c0e42b980319b6a18e","session_id":"608834d91ca012455433a36a"},{"rt":1072.0300000393763,"stimulus":"img/spoon.jpg","response":"y","image":"img/spoon.jpg","old_or_new":"old","task":"recognition","trial_type":"image-keyboard-response","trial_index":55,"time_elapsed":140687,"internal_node_id":"0.0-3.0-0.26","subject_id":"5f60d657f5c08a04ee49627b","study_id":"606233c0e42b980319b6a18e","session_id":"608834d91ca012455433a36a","correct":true},{"rt":1451.039999956265,"stimulus":"\n      <p>How sure are you?</p>\n      <p>Rate your confidence in your answer from 1 (pure guess) to 5 (very sure) by pressing the corresponding button.</p>\n     ","response":4,"image":"img/spoon.jpg","task":"confidence","old_or_new":"old","trial_type":"html-button-response","trial_index":56,"time_elapsed":142141,"internal_node_id":"0.0-3.0-1.26","subject_id":"5f60d657f5c08a04ee49627b","study_id":"606233c0e42b980319b6a18e","session_id":"608834d91ca012455433a36a"},{"rt":1069.469999987632,"stimulus":"img/umbrella_alternate.jpg","response":"n","image":"img/umbrella_alternate.jpg","old_or_new":"new","task":"recognition","trial_type":"image-keyboard-response","trial_index":57,"time_elapsed":143724,"internal_node_id":"0.0-3.0-0.27","subject_id":"5f60d657f5c08a04ee49627b","study_id":"606233c0e42b980319b6a18e","session_id":"608834d91ca012455433a36a","correct":true},{"rt":1150.969999958761,"stimulus":"\n      <p>How sure are you?</p>\n      <p>Rate your confidence in your answer from 1 (pure guess) to 5 (very sure) by pressing the corresponding button.</p>\n     ","response":4,"image":"img/umbrella_alternate.jpg","task":"confidence","old_or_new":"new","trial_type":"html-button-response","trial_index":58,"time_elapsed":144878,"internal_node_id":"0.0-3.0-1.27","subject_id":"5f60d657f5c08a04ee49627b","study_id":"606233c0e42b980319b6a18e","session_id":"608834d91ca012455433a36a"},{"rt":1160.0349999498576,"stimulus":"img/trophy.jpg","response":"y","image":"img/trophy.jpg","old_or_new":"old","task":"recognition","trial_type":"image-keyboard-response","trial_index":59,"time_elapsed":146545,"internal_node_id":"0.0-3.0-0.28","subject_id":"5f60d657f5c08a04ee49627b","study_id":"606233c0e42b980319b6a18e","session_id":"608834d91ca012455433a36a","correct":true},{"rt":1736.254999996163,"stimulus":"\n      <p>How sure are you?</p>\n      <p>Rate your confidence in your answer from 1 (pure guess) to 5 (very sure) by pressing the corresponding button.</p>\n     ","response":4,"image":"img/trophy.jpg","task":"confidence","old_or_new":"old","trial_type":"html-button-response","trial_index":60,"time_elapsed":148284,"internal_node_id":"0.0-3.0-1.28","subject_id":"5f60d657f5c08a04ee49627b","study_id":"606233c0e42b980319b6a18e","session_id":"608834d91ca012455433a36a"},{"rt":1144.6999999461696,"stimulus":"img/skates_alternate.jpg","response":"n","image":"img/skates_alternate.jpg","old_or_new":"new","task":"recognition","trial_type":"image-keyboard-response","trial_index":61,"time_elapsed":149944,"internal_node_id":"0.0-3.0-0.29","subject_id":"5f60d657f5c08a04ee49627b","study_id":"606233c0e42b980319b6a18e","session_id":"608834d91ca012455433a36a","correct":true},{"rt":939.4549999851733,"stimulus":"\n      <p>How sure are you?</p>\n      <p>Rate your confidence in your answer from 1 (pure guess) to 5 (very sure) by pressing the corresponding button.</p>\n     ","response":4,"image":"img/skates_alternate.jpg","task":"confidence","old_or_new":"new","trial_type":"html-button-response","trial_index":62,"time_elapsed":150887,"internal_node_id":"0.0-3.0-1.29","subject_id":"5f60d657f5c08a04ee49627b","study_id":"606233c0e42b980319b6a18e","session_id":"608834d91ca012455433a36a"},{"rt":1131.0949999606237,"stimulus":"img/sink_alternate.jpg","response":"n","image":"img/sink_alternate.jpg","old_or_new":"new","task":"recognition","trial_type":"image-keyboard-response","trial_index":63,"time_elapsed":152528,"internal_node_id":"0.0-3.0-0.30","subject_id":"5f60d657f5c08a04ee49627b","study_id":"606233c0e42b980319b6a18e","session_id":"608834d91ca012455433a36a","correct":true},{"rt":1638.4100000141189,"stimulus":"\n      <p>How sure are you?</p>\n      <p>Rate your confidence in your answer from 1 (pure guess) to 5 (very sure) by pressing the corresponding button.</p>\n     ","response":4,"image":"img/sink_alternate.jpg","task":"confidence","old_or_new":"new","trial_type":"html-button-response","trial_index":64,"time_elapsed":154169,"internal_node_id":"0.0-3.0-1.30","subject_id":"5f60d657f5c08a04ee49627b","study_id":"606233c0e42b980319b6a18e","session_id":"608834d91ca012455433a36a"},{"rt":1472.734999959357,"stimulus":"img/shovel.jpg","response":"y","image":"img/shovel.jpg","old_or_new":"old","task":"recognition","trial_type":"image-keyboard-response","trial_index":65,"time_elapsed":156159,"internal_node_id":"0.0-3.0-0.31","subject_id":"5f60d657f5c08a04ee49627b","study_id":"606233c0e42b980319b6a18e","session_id":"608834d91ca012455433a36a","correct":true},{"rt":1256.9500000681728,"stimulus":"\n      <p>How sure are you?</p>\n      <p>Rate your confidence in your answer from 1 (pure guess) to 5 (very sure) by pressing the corresponding button.</p>\n     ","response":3,"image":"img/shovel.jpg","task":"confidence","old_or_new":"old","trial_type":"html-button-response","trial_index":66,"time_elapsed":157418,"internal_node_id":"0.0-3.0-1.31","subject_id":"5f60d657f5c08a04ee49627b","study_id":"606233c0e42b980319b6a18e","session_id":"608834d91ca012455433a36a"},{"rt":1004.3550000991672,"stimulus":"img/shoe_alternate.jpg","response":"n","image":"img/shoe_alternate.jpg","old_or_new":"new","task":"recognition","trial_type":"image-keyboard-response","trial_index":67,"time_elapsed":158935,"internal_node_id":"0.0-3.0-0.32","subject_id":"5f60d657f5c08a04ee49627b","study_id":"606233c0e42b980319b6a18e","session_id":"608834d91ca012455433a36a","correct":true},{"rt":1095.644999993965,"stimulus":"\n      <p>How sure are you?</p>\n      <p>Rate your confidence in your answer from 1 (pure guess) to 5 (very sure) by pressing the corresponding button.</p>\n     ","response":4,"image":"img/shoe_alternate.jpg","task":"confidence","old_or_new":"new","trial_type":"html-button-response","trial_index":68,"time_elapsed":160034,"internal_node_id":"0.0-3.0-1.32","subject_id":"5f60d657f5c08a04ee49627b","study_id":"606233c0e42b980319b6a18e","session_id":"608834d91ca012455433a36a"},{"rt":1072.8799999924377,"stimulus":"img/tv.jpg","response":"y","image":"img/tv.jpg","old_or_new":"old","task":"recognition","trial_type":"image-keyboard-response","trial_index":69,"time_elapsed":161619,"internal_node_id":"0.0-3.0-0.33","subject_id":"5f60d657f5c08a04ee49627b","study_id":"606233c0e42b980319b6a18e","session_id":"608834d91ca012455433a36a","correct":true},{"rt":1084.0349999489263,"stimulus":"\n      <p>How sure are you?</p>\n      <p>Rate your confidence in your answer from 1 (pure guess) to 5 (very sure) by pressing the corresponding button.</p>\n     ","response":4,"image":"img/tv.jpg","task":"confidence","old_or_new":"old","trial_type":"html-button-response","trial_index":70,"time_elapsed":162705,"internal_node_id":"0.0-3.0-1.33","subject_id":"5f60d657f5c08a04ee49627b","study_id":"606233c0e42b980319b6a18e","session_id":"608834d91ca012455433a36a"},{"rt":1013.0749999079853,"stimulus":"img/wheel_barrow.jpg","response":"y","image":"img/wheel_barrow.jpg","old_or_new":"old","task":"recognition","trial_type":"image-keyboard-response","trial_index":71,"time_elapsed":164223,"internal_node_id":"0.0-3.0-0.34","subject_id":"5f60d657f5c08a04ee49627b","study_id":"606233c0e42b980319b6a18e","session_id":"608834d91ca012455433a36a","correct":true},{"rt":1057.4000000488013,"stimulus":"\n      <p>How sure are you?</p>\n      <p>Rate your confidence in your answer from 1 (pure guess) to 5 (very sure) by pressing the corresponding button.</p>\n     ","response":4,"image":"img/wheel_barrow.jpg","task":"confidence","old_or_new":"old","trial_type":"html-button-response","trial_index":72,"time_elapsed":165282,"internal_node_id":"0.0-3.0-1.34","subject_id":"5f60d657f5c08a04ee49627b","study_id":"606233c0e42b980319b6a18e","session_id":"608834d91ca012455433a36a"},{"rt":942.8499999921769,"stimulus":"img/seashell.jpg","response":"y","image":"img/seashell.jpg","old_or_new":"old","task":"recognition","trial_type":"image-keyboard-response","trial_index":73,"time_elapsed":166738,"internal_node_id":"0.0-3.0-0.35","subject_id":"5f60d657f5c08a04ee49627b","study_id":"606233c0e42b980319b6a18e","session_id":"608834d91ca012455433a36a","correct":true},{"rt":975.7449999451637,"stimulus":"\n      <p>How sure are you?</p>\n      <p>Rate your confidence in your answer from 1 (pure guess) to 5 (very sure) by pressing the corresponding button.</p>\n     ","response":4,"image":"img/seashell.jpg","task":"confidence","old_or_new":"old","trial_type":"html-button-response","trial_index":74,"time_elapsed":167715,"internal_node_id":"0.0-3.0-1.35","subject_id":"5f60d657f5c08a04ee49627b","study_id":"606233c0e42b980319b6a18e","session_id":"608834d91ca012455433a36a"},{"rt":1004.175000009127,"stimulus":"img/scissors.jpg","response":"y","image":"img/scissors.jpg","old_or_new":"old","task":"recognition","trial_type":"image-keyboard-response","trial_index":75,"time_elapsed":169244,"internal_node_id":"0.0-3.0-0.36","subject_id":"5f60d657f5c08a04ee49627b","study_id":"606233c0e42b980319b6a18e","session_id":"608834d91ca012455433a36a","correct":true},{"rt":1501.0600000387058,"stimulus":"\n      <p>How sure are you?</p>\n      <p>Rate your confidence in your answer from 1 (pure guess) to 5 (very sure) by pressing the corresponding button.</p>\n     ","response":3,"image":"img/scissors.jpg","task":"confidence","old_or_new":"old","trial_type":"html-button-response","trial_index":76,"time_elapsed":170747,"internal_node_id":"0.0-3.0-1.36","subject_id":"5f60d657f5c08a04ee49627b","study_id":"606233c0e42b980319b6a18e","session_id":"608834d91ca012455433a36a"},{"rt":1016.0699998959899,"stimulus":"img/seashell_alternate.jpg","response":"n","image":"img/seashell_alternate.jpg","old_or_new":"new","task":"recognition","trial_type":"image-keyboard-response","trial_index":77,"time_elapsed":172275,"internal_node_id":"0.0-3.0-0.37","subject_id":"5f60d657f5c08a04ee49627b","study_id":"606233c0e42b980319b6a18e","session_id":"608834d91ca012455433a36a","correct":true},{"rt":1109.3350000446662,"stimulus":"\n      <p>How sure are you?</p>\n      <p>Rate your confidence in your answer from 1 (pure guess) to 5 (very sure) by pressing the corresponding button.</p>\n     ","response":4,"image":"img/seashell_alternate.jpg","task":"confidence","old_or_new":"new","trial_type":"html-button-response","trial_index":78,"time_elapsed":173387,"internal_node_id":"0.0-3.0-1.37","subject_id":"5f60d657f5c08a04ee49627b","study_id":"606233c0e42b980319b6a18e","session_id":"608834d91ca012455433a36a"},{"rt":936.3199999788776,"stimulus":"img/yarn_alternate.jpg","response":"n","image":"img/yarn_alternate.jpg","old_or_new":"new","task":"recognition","trial_type":"image-keyboard-response","trial_index":79,"time_elapsed":174840,"internal_node_id":"0.0-3.0-0.38","subject_id":"5f60d657f5c08a04ee49627b","study_id":"606233c0e42b980319b6a18e","session_id":"608834d91ca012455433a36a","correct":true},{"rt":1144.0799999982119,"stimulus":"\n      <p>How sure are you?</p>\n      <p>Rate your confidence in your answer from 1 (pure guess) to 5 (very sure) by pressing the corresponding button.</p>\n     ","response":4,"image":"img/yarn_alternate.jpg","task":"confidence","old_or_new":"new","trial_type":"html-button-response","trial_index":80,"time_elapsed":175987,"internal_node_id":"0.0-3.0-1.38","subject_id":"5f60d657f5c08a04ee49627b","study_id":"606233c0e42b980319b6a18e","session_id":"608834d91ca012455433a36a"},{"rt":1706.0599999967963,"stimulus":"img/toothbrush_alternate.jpg","response":"n","image":"img/toothbrush_alternate.jpg","old_or_new":"new","task":"recognition","trial_type":"image-keyboard-response","trial_index":81,"time_elapsed":178200,"internal_node_id":"0.0-3.0-0.39","subject_id":"5f60d657f5c08a04ee49627b","study_id":"606233c0e42b980319b6a18e","session_id":"608834d91ca012455433a36a","correct":true},{"rt":1165.7249999698251,"stimulus":"\n      <p>How sure are you?</p>\n      <p>Rate your confidence in your answer from 1 (pure guess) to 5 (very sure) by pressing the corresponding button.</p>\n     ","response":3,"image":"img/toothbrush_alternate.jpg","task":"confidence","old_or_new":"new","trial_type":"html-button-response","trial_index":82,"time_elapsed":179368,"internal_node_id":"0.0-3.0-1.39","subject_id":"5f60d657f5c08a04ee49627b","study_id":"606233c0e42b980319b6a18e","session_id":"608834d91ca012455433a36a"},{"rt":1006.9600000279024,"stimulus":"img/shirt.jpg","response":"y","image":"img/shirt.jpg","old_or_new":"old","task":"recognition","trial_type":"image-keyboard-response","trial_index":83,"time_elapsed":180885,"internal_node_id":"0.0-3.0-0.40","subject_id":"5f60d657f5c08a04ee49627b","study_id":"606233c0e42b980319b6a18e","session_id":"608834d91ca012455433a36a","correct":true},{"rt":1145.6650000764057,"stimulus":"\n      <p>How sure are you?</p>\n      <p>Rate your confidence in your answer from 1 (pure guess) to 5 (very sure) by pressing the corresponding button.</p>\n     ","response":4,"image":"img/shirt.jpg","task":"confidence","old_or_new":"old","trial_type":"html-button-response","trial_index":84,"time_elapsed":182032,"internal_node_id":"0.0-3.0-1.40","subject_id":"5f60d657f5c08a04ee49627b","study_id":"606233c0e42b980319b6a18e","session_id":"608834d91ca012455433a36a"},{"rt":1196.5049999998882,"stimulus":"img/pencil_sharpener_alternate.jpg","response":"n","image":"img/pencil_sharpener_alternate.jpg","old_or_new":"new","task":"recognition","trial_type":"image-keyboard-response","trial_index":85,"time_elapsed":183738,"internal_node_id":"0.0-3.0-0.41","subject_id":"5f60d657f5c08a04ee49627b","study_id":"606233c0e42b980319b6a18e","session_id":"608834d91ca012455433a36a","correct":true},{"rt":1404.480000026524,"stimulus":"\n      <p>How sure are you?</p>\n      <p>Rate your confidence in your answer from 1 (pure guess) to 5 (very sure) by pressing the corresponding button.</p>\n     ","response":4,"image":"img/pencil_sharpener_alternate.jpg","task":"confidence","old_or_new":"new","trial_type":"html-button-response","trial_index":86,"time_elapsed":185146,"internal_node_id":"0.0-3.0-1.41","subject_id":"5f60d657f5c08a04ee49627b","study_id":"606233c0e42b980319b6a18e","session_id":"608834d91ca012455433a36a"},{"rt":896.1400000844151,"stimulus":"img/toothbrush.jpg","response":"y","image":"img/toothbrush.jpg","old_or_new":"old","task":"recognition","trial_type":"image-keyboard-response","trial_index":87,"time_elapsed":186550,"internal_node_id":"0.0-3.0-0.42","subject_id":"5f60d657f5c08a04ee49627b","study_id":"606233c0e42b980319b6a18e","session_id":"608834d91ca012455433a36a","correct":true},{"rt":1328.5900000482798,"stimulus":"\n      <p>How sure are you?</p>\n      <p>Rate your confidence in your answer from 1 (pure guess) to 5 (very sure) by pressing the corresponding button.</p>\n     ","response":3,"image":"img/toothbrush.jpg","task":"confidence","old_or_new":"old","trial_type":"html-button-response","trial_index":88,"time_elapsed":187882,"internal_node_id":"0.0-3.0-1.42","subject_id":"5f60d657f5c08a04ee49627b","study_id":"606233c0e42b980319b6a18e","session_id":"608834d91ca012455433a36a"},{"rt":1046.1200000718236,"stimulus":"img/plate_alternate.jpg","response":"n","image":"img/plate_alternate.jpg","old_or_new":"new","task":"recognition","trial_type":"image-keyboard-response","trial_index":89,"time_elapsed":189440,"internal_node_id":"0.0-3.0-0.43","subject_id":"5f60d657f5c08a04ee49627b","study_id":"606233c0e42b980319b6a18e","session_id":"608834d91ca012455433a36a","correct":true},{"rt":2248.3599999686703,"stimulus":"\n      <p>How sure are you?</p>\n      <p>Rate your confidence in your answer from 1 (pure guess) to 5 (very sure) by pressing the corresponding button.</p>\n     ","response":4,"image":"img/plate_alternate.jpg","task":"confidence","old_or_new":"new","trial_type":"html-button-response","trial_index":90,"time_elapsed":191690,"internal_node_id":"0.0-3.0-1.43","subject_id":"5f60d657f5c08a04ee49627b","study_id":"606233c0e42b980319b6a18e","session_id":"608834d91ca012455433a36a"},{"rt":1007.539999904111,"stimulus":"img/skates.jpg","response":"y","image":"img/skates.jpg","old_or_new":"old","task":"recognition","trial_type":"image-keyboard-response","trial_index":91,"time_elapsed":193205,"internal_node_id":"0.0-3.0-0.44","subject_id":"5f60d657f5c08a04ee49627b","study_id":"606233c0e42b980319b6a18e","session_id":"608834d91ca012455433a36a","correct":true},{"rt":1058.7999999988824,"stimulus":"\n      <p>How sure are you?</p>\n      <p>Rate your confidence in your answer from 1 (pure guess) to 5 (very sure) by pressing the corresponding button.</p>\n     ","response":4,"image":"img/skates.jpg","task":"confidence","old_or_new":"old","trial_type":"html-button-response","trial_index":92,"time_elapsed":194266,"internal_node_id":"0.0-3.0-1.44","subject_id":"5f60d657f5c08a04ee49627b","study_id":"606233c0e42b980319b6a18e","session_id":"608834d91ca012455433a36a"},{"rt":1191.1349999718368,"stimulus":"img/knife.jpg","response":"y","image":"img/knife.jpg","old_or_new":"old","task":"recognition","trial_type":"image-keyboard-response","trial_index":93,"time_elapsed":195961,"internal_node_id":"0.0-3.0-0.45","subject_id":"5f60d657f5c08a04ee49627b","study_id":"606233c0e42b980319b6a18e","session_id":"608834d91ca012455433a36a","correct":true},{"rt":1001.3299999991432,"stimulus":"\n      <p>How sure are you?</p>\n      <p>Rate your confidence in your answer from 1 (pure guess) to 5 (very sure) by pressing the corresponding button.</p>\n     ","response":4,"image":"img/knife.jpg","task":"confidence","old_or_new":"old","trial_type":"html-button-response","trial_index":94,"time_elapsed":196999,"internal_node_id":"0.0-3.0-1.45","subject_id":"5f60d657f5c08a04ee49627b","study_id":"606233c0e42b980319b6a18e","session_id":"608834d91ca012455433a36a"},{"rt":923.149999929592,"stimulus":"img/power_cord.jpg","response":"y","image":"img/power_cord.jpg","old_or_new":"old","task":"recognition","trial_type":"image-keyboard-response","trial_index":95,"time_elapsed":198443,"internal_node_id":"0.0-3.0-0.46","subject_id":"5f60d657f5c08a04ee49627b","study_id":"606233c0e42b980319b6a18e","session_id":"608834d91ca012455433a36a","correct":true},{"rt":1024.2400000570342,"stimulus":"\n      <p>How sure are you?</p>\n      <p>Rate your confidence in your answer from 1 (pure guess) to 5 (very sure) by pressing the corresponding button.</p>\n     ","response":4,"image":"img/power_cord.jpg","task":"confidence","old_or_new":"old","trial_type":"html-button-response","trial_index":96,"time_elapsed":199469,"internal_node_id":"0.0-3.0-1.46","subject_id":"5f60d657f5c08a04ee49627b","study_id":"606233c0e42b980319b6a18e","session_id":"608834d91ca012455433a36a"},{"rt":1124.5050000725314,"stimulus":"img/knife_alternate.jpg","response":"n","image":"img/knife_alternate.jpg","old_or_new":"new","task":"recognition","trial_type":"image-keyboard-response","trial_index":97,"time_elapsed":201105,"internal_node_id":"0.0-3.0-0.47","subject_id":"5f60d657f5c08a04ee49627b","study_id":"606233c0e42b980319b6a18e","session_id":"608834d91ca012455433a36a","correct":true},{"rt":1671.1799999466166,"stimulus":"\n      <p>How sure are you?</p>\n      <p>Rate your confidence in your answer from 1 (pure guess) to 5 (very sure) by pressing the corresponding button.</p>\n     ","response":4,"image":"img/knife_alternate.jpg","task":"confidence","old_or_new":"new","trial_type":"html-button-response","trial_index":98,"time_elapsed":202778,"internal_node_id":"0.0-3.0-1.47","subject_id":"5f60d657f5c08a04ee49627b","study_id":"606233c0e42b980319b6a18e","session_id":"608834d91ca012455433a36a"}]