[{"success":true,"timeout":false,"failed_images":[],"failed_audio":[],"failed_video":[],"trial_type":"preload","trial_index":0,"time_elapsed":5429,"internal_node_id":"0.0-0.0","subject_id":"60085e088155031d968e4db6","study_id":"606233c0e42b980319b6a18e","session_id":"6088353e6f51d2bf64694a4f"},{"rt":28002.079999947455,"stimulus":"\n      <div style=\"width:800px; text-align: left;\">\n        <p>Welcome to day 2 of the experiment! Thanks for coming back.</p>\n        <p>You will be presented with a series of images. Images will appear one at a time.</p>\n        <p>Each image will remain on the screen until you press either <span style=\"font-weight: bold;\">\"y\" to indicate you have seen the \n        exact same photo the day before or \"n\" to indicate you have not seen the exact same photo the day before.</span></p>\n        <p>After you answer yes (\"y\") or no (\"n\"), you will then be prompted to rate your certainty on a scale of\n        1 (pure guess) to 5 (very sure).</p>\n      </div>\n    ","response":0,"trial_type":"html-button-response","trial_index":1,"time_elapsed":33435,"internal_node_id":"0.0-1.0","subject_id":"60085e088155031d968e4db6","study_id":"606233c0e42b980319b6a18e","session_id":"6088353e6f51d2bf64694a4f"},{"success":true,"trial_type":"fullscreen","trial_index":2,"time_elapsed":37961,"internal_node_id":"0.0-2.0","subject_id":"60085e088155031d968e4db6","study_id":"606233c0e42b980319b6a18e","session_id":"6088353e6f51d2bf64694a4f"},{"rt":7133.349999960046,"stimulus":"img/tv_alternate.jpg","response":"y","image":"img/tv_alternate.jpg","old_or_new":"new","task":"recognition","trial_type":"image-keyboard-response","trial_index":3,"time_elapsed":45106,"internal_node_id":"0.0-3.0-0.0","subject_id":"60085e088155031d968e4db6","study_id":"606233c0e42b980319b6a18e","session_id":"6088353e6f51d2bf64694a4f","correct":false},{"rt":2487.634999968577,"stimulus":"\n      <p>How sure are you?</p>\n      <p>Rate your confidence in your answer from 1 (pure guess) to 5 (very sure) by pressing the corresponding button.</p>\n     ","response":2,"image":"img/tv_alternate.jpg","task":"confidence","old_or_new":"new","trial_type":"html-button-response","trial_index":4,"time_elapsed":47596,"internal_node_id":"0.0-3.0-1.0","subject_id":"60085e088155031d968e4db6","study_id":"606233c0e42b980319b6a18e","session_id":"6088353e6f51d2bf64694a4f"},{"rt":1680.3899999940768,"stimulus":"img/seashell_alternate.jpg","response":"n","image":"img/seashell_alternate.jpg","old_or_new":"new","task":"recognition","trial_type":"image-keyboard-response","trial_index":5,"time_elapsed":49781,"internal_node_id":"0.0-3.0-0.1","subject_id":"60085e088155031d968e4db6","study_id":"606233c0e42b980319b6a18e","session_id":"6088353e6f51d2bf64694a4f","correct":true},{"rt":2509.6100000082515,"stimulus":"\n      <p>How sure are you?</p>\n      <p>Rate your confidence in your answer from 1 (pure guess) to 5 (very sure) by pressing the corresponding button.</p>\n     ","response":3,"image":"img/seashell_alternate.jpg","task":"confidence","old_or_new":"new","trial_type":"html-button-response","trial_index":6,"time_elapsed":52293,"internal_node_id":"0.0-3.0-1.1","subject_id":"60085e088155031d968e4db6","study_id":"606233c0e42b980319b6a18e","session_id":"6088353e6f51d2bf64694a4f"},{"rt":2326.0299999965355,"stimulus":"img/rolling_pin.jpg","response":"y","image":"img/rolling_pin.jpg","old_or_new":"old","task":"recognition","trial_type":"image-keyboard-response","trial_index":7,"time_elapsed":55131,"internal_node_id":"0.0-3.0-0.2","subject_id":"60085e088155031d968e4db6","study_id":"606233c0e42b980319b6a18e","session_id":"6088353e6f51d2bf64694a4f","correct":true},{"rt":1693.4999999939464,"stimulus":"\n      <p>How sure are you?</p>\n      <p>Rate your confidence in your answer from 1 (pure guess) to 5 (very sure) by pressing the corresponding button.</p>\n     ","response":4,"image":"img/rolling_pin.jpg","task":"confidence","old_or_new":"old","trial_type":"html-button-response","trial_index":8,"time_elapsed":56826,"internal_node_id":"0.0-3.0-1.2","subject_id":"60085e088155031d968e4db6","study_id":"606233c0e42b980319b6a18e","session_id":"6088353e6f51d2bf64694a4f"},{"rt":1825.3999999724329,"stimulus":"img/pencil_sharpener_alternate.jpg","response":"y","image":"img/pencil_sharpener_alternate.jpg","old_or_new":"new","task":"recognition","trial_type":"image-keyboard-response","trial_index":9,"time_elapsed":59162,"internal_node_id":"0.0-3.0-0.3","subject_id":"60085e088155031d968e4db6","study_id":"606233c0e42b980319b6a18e","session_id":"6088353e6f51d2bf64694a4f","correct":false},{"rt":1369.9900000356138,"stimulus":"\n      <p>How sure are you?</p>\n      <p>Rate your confidence in your answer from 1 (pure guess) to 5 (very sure) by pressing the corresponding button.</p>\n     ","response":4,"image":"img/pencil_sharpener_alternate.jpg","task":"confidence","old_or_new":"new","trial_type":"html-button-response","trial_index":10,"time_elapsed":60533,"internal_node_id":"0.0-3.0-1.3","subject_id":"60085e088155031d968e4db6","study_id":"606233c0e42b980319b6a18e","session_id":"6088353e6f51d2bf64694a4f"},{"rt":1453.139999997802,"stimulus":"img/yarn_alternate.jpg","response":"n","image":"img/yarn_alternate.jpg","old_or_new":"new","task":"recognition","trial_type":"image-keyboard-response","trial_index":11,"time_elapsed":62491,"internal_node_id":"0.0-3.0-0.4","subject_id":"60085e088155031d968e4db6","study_id":"606233c0e42b980319b6a18e","session_id":"6088353e6f51d2bf64694a4f","correct":true},{"rt":1466.2900000112131,"stimulus":"\n      <p>How sure are you?</p>\n      <p>Rate your confidence in your answer from 1 (pure guess) to 5 (very sure) by pressing the corresponding button.</p>\n     ","response":4,"image":"img/yarn_alternate.jpg","task":"confidence","old_or_new":"new","trial_type":"html-button-response","trial_index":12,"time_elapsed":63958,"internal_node_id":"0.0-3.0-1.4","subject_id":"60085e088155031d968e4db6","study_id":"606233c0e42b980319b6a18e","session_id":"6088353e6f51d2bf64694a4f"},{"rt":2866.890000004787,"stimulus":"img/sink_alternate.jpg","response":"n","image":"img/sink_alternate.jpg","old_or_new":"new","task":"recognition","trial_type":"image-keyboard-response","trial_index":13,"time_elapsed":67333,"internal_node_id":"0.0-3.0-0.5","subject_id":"60085e088155031d968e4db6","study_id":"606233c0e42b980319b6a18e","session_id":"6088353e6f51d2bf64694a4f","correct":true},{"rt":611.5299999946728,"stimulus":"\n      <p>How sure are you?</p>\n      <p>Rate your confidence in your answer from 1 (pure guess) to 5 (very sure) by pressing the corresponding button.</p>\n     ","response":4,"image":"img/sink_alternate.jpg","task":"confidence","old_or_new":"new","trial_type":"html-button-response","trial_index":14,"time_elapsed":67947,"internal_node_id":"0.0-3.0-1.5","subject_id":"60085e088155031d968e4db6","study_id":"606233c0e42b980319b6a18e","session_id":"6088353e6f51d2bf64694a4f"},{"rt":1999.9899999820627,"stimulus":"img/toothbrush_alternate.jpg","response":"y","image":"img/toothbrush_alternate.jpg","old_or_new":"new","task":"recognition","trial_type":"image-keyboard-response","trial_index":15,"time_elapsed":70463,"internal_node_id":"0.0-3.0-0.6","subject_id":"60085e088155031d968e4db6","study_id":"606233c0e42b980319b6a18e","session_id":"6088353e6f51d2bf64694a4f","correct":false},{"rt":935.3000000119209,"stimulus":"\n      <p>How sure are you?</p>\n      <p>Rate your confidence in your answer from 1 (pure guess) to 5 (very sure) by pressing the corresponding button.</p>\n     ","response":2,"image":"img/toothbrush_alternate.jpg","task":"confidence","old_or_new":"new","trial_type":"html-button-response","trial_index":16,"time_elapsed":71399,"internal_node_id":"0.0-3.0-1.6","subject_id":"60085e088155031d968e4db6","study_id":"606233c0e42b980319b6a18e","session_id":"6088353e6f51d2bf64694a4f"},{"rt":1769.040000042878,"stimulus":"img/parfait_alternate.jpg","response":"y","image":"img/parfait_alternate.jpg","old_or_new":"new","task":"recognition","trial_type":"image-keyboard-response","trial_index":17,"time_elapsed":73680,"internal_node_id":"0.0-3.0-0.7","subject_id":"60085e088155031d968e4db6","study_id":"606233c0e42b980319b6a18e","session_id":"6088353e6f51d2bf64694a4f","correct":false},{"rt":579.4350000214763,"stimulus":"\n      <p>How sure are you?</p>\n      <p>Rate your confidence in your answer from 1 (pure guess) to 5 (very sure) by pressing the corresponding button.</p>\n     ","response":2,"image":"img/parfait_alternate.jpg","task":"confidence","old_or_new":"new","trial_type":"html-button-response","trial_index":18,"time_elapsed":74262,"internal_node_id":"0.0-3.0-1.7","subject_id":"60085e088155031d968e4db6","study_id":"606233c0e42b980319b6a18e","session_id":"6088353e6f51d2bf64694a4f"},{"rt":1343.094999960158,"stimulus":"img/shoe.jpg","response":"y","image":"img/shoe.jpg","old_or_new":"old","task":"recognition","trial_type":"image-keyboard-response","trial_index":19,"time_elapsed":76116,"internal_node_id":"0.0-3.0-0.8","subject_id":"60085e088155031d968e4db6","study_id":"606233c0e42b980319b6a18e","session_id":"6088353e6f51d2bf64694a4f","correct":true},{"rt":869.0449999994598,"stimulus":"\n      <p>How sure are you?</p>\n      <p>Rate your confidence in your answer from 1 (pure guess) to 5 (very sure) by pressing the corresponding button.</p>\n     ","response":4,"image":"img/shoe.jpg","task":"confidence","old_or_new":"old","trial_type":"html-button-response","trial_index":20,"time_elapsed":76987,"internal_node_id":"0.0-3.0-1.8","subject_id":"60085e088155031d968e4db6","study_id":"606233c0e42b980319b6a18e","session_id":"6088353e6f51d2bf64694a4f"},{"rt":691.6499999933876,"stimulus":"img/pencil_sharpener.jpg","response":"y","image":"img/pencil_sharpener.jpg","old_or_new":"old","task":"recognition","trial_type":"image-keyboard-response","trial_index":21,"time_elapsed":78187,"internal_node_id":"0.0-3.0-0.9","subject_id":"60085e088155031d968e4db6","study_id":"606233c0e42b980319b6a18e","session_id":"6088353e6f51d2bf64694a4f","correct":true},{"rt":713.9249999891035,"stimulus":"\n      <p>How sure are you?</p>\n      <p>Rate your confidence in your answer from 1 (pure guess) to 5 (very sure) by pressing the corresponding button.</p>\n     ","response":4,"image":"img/pencil_sharpener.jpg","task":"confidence","old_or_new":"old","trial_type":"html-button-response","trial_index":22,"time_elapsed":78903,"internal_node_id":"0.0-3.0-1.9","subject_id":"60085e088155031d968e4db6","study_id":"606233c0e42b980319b6a18e","session_id":"6088353e6f51d2bf64694a4f"},{"rt":1226.4600000344217,"stimulus":"img/plate.jpg","response":"y","image":"img/plate.jpg","old_or_new":"old","task":"recognition","trial_type":"image-keyboard-response","trial_index":23,"time_elapsed":80642,"internal_node_id":"0.0-3.0-0.10","subject_id":"60085e088155031d968e4db6","study_id":"606233c0e42b980319b6a18e","session_id":"6088353e6f51d2bf64694a4f","correct":true},{"rt":579.410000005737,"stimulus":"\n      <p>How sure are you?</p>\n      <p>Rate your confidence in your answer from 1 (pure guess) to 5 (very sure) by pressing the corresponding button.</p>\n     ","response":4,"image":"img/plate.jpg","task":"confidence","old_or_new":"old","trial_type":"html-button-response","trial_index":24,"time_elapsed":81223,"internal_node_id":"0.0-3.0-1.10","subject_id":"60085e088155031d968e4db6","study_id":"606233c0e42b980319b6a18e","session_id":"6088353e6f51d2bf64694a4f"},{"rt":757.1349999634549,"stimulus":"img/umbrella.jpg","response":"y","image":"img/umbrella.jpg","old_or_new":"old","task":"recognition","trial_type":"image-keyboard-response","trial_index":25,"time_elapsed":82494,"internal_node_id":"0.0-3.0-0.11","subject_id":"60085e088155031d968e4db6","study_id":"606233c0e42b980319b6a18e","session_id":"6088353e6f51d2bf64694a4f","correct":true},{"rt":514.8250000202097,"stimulus":"\n      <p>How sure are you?</p>\n      <p>Rate your confidence in your answer from 1 (pure guess) to 5 (very sure) by pressing the corresponding button.</p>\n     ","response":4,"image":"img/umbrella.jpg","task":"confidence","old_or_new":"old","trial_type":"html-button-response","trial_index":26,"time_elapsed":83010,"internal_node_id":"0.0-3.0-1.11","subject_id":"60085e088155031d968e4db6","study_id":"606233c0e42b980319b6a18e","session_id":"6088353e6f51d2bf64694a4f"},{"rt":635.4799999971874,"stimulus":"img/shirt.jpg","response":"y","image":"img/shirt.jpg","old_or_new":"old","task":"recognition","trial_type":"image-keyboard-response","trial_index":27,"time_elapsed":84161,"internal_node_id":"0.0-3.0-0.12","subject_id":"60085e088155031d968e4db6","study_id":"606233c0e42b980319b6a18e","session_id":"6088353e6f51d2bf64694a4f","correct":true},{"rt":660.2299999794923,"stimulus":"\n      <p>How sure are you?</p>\n      <p>Rate your confidence in your answer from 1 (pure guess) to 5 (very sure) by pressing the corresponding button.</p>\n     ","response":4,"image":"img/shirt.jpg","task":"confidence","old_or_new":"old","trial_type":"html-button-response","trial_index":28,"time_elapsed":84824,"internal_node_id":"0.0-3.0-1.12","subject_id":"60085e088155031d968e4db6","study_id":"606233c0e42b980319b6a18e","session_id":"6088353e6f51d2bf64694a4f"},{"rt":1349.099999992177,"stimulus":"img/rolling_pin_alternate.jpg","response":"n","image":"img/rolling_pin_alternate.jpg","old_or_new":"new","task":"recognition","trial_type":"image-keyboard-response","trial_index":29,"time_elapsed":86680,"internal_node_id":"0.0-3.0-0.13","subject_id":"60085e088155031d968e4db6","study_id":"606233c0e42b980319b6a18e","session_id":"6088353e6f51d2bf64694a4f","correct":true},{"rt":3554.5949999941513,"stimulus":"\n      <p>How sure are you?</p>\n      <p>Rate your confidence in your answer from 1 (pure guess) to 5 (very sure) by pressing the corresponding button.</p>\n     ","response":3,"image":"img/rolling_pin_alternate.jpg","task":"confidence","old_or_new":"new","trial_type":"html-button-response","trial_index":30,"time_elapsed":90236,"internal_node_id":"0.0-3.0-1.13","subject_id":"60085e088155031d968e4db6","study_id":"606233c0e42b980319b6a18e","session_id":"6088353e6f51d2bf64694a4f"},{"rt":2047.2699999809265,"stimulus":"img/skates_alternate.jpg","response":"n","image":"img/skates_alternate.jpg","old_or_new":"new","task":"recognition","trial_type":"image-keyboard-response","trial_index":31,"time_elapsed":92799,"internal_node_id":"0.0-3.0-0.14","subject_id":"60085e088155031d968e4db6","study_id":"606233c0e42b980319b6a18e","session_id":"6088353e6f51d2bf64694a4f","correct":true},{"rt":1448.8199999905191,"stimulus":"\n      <p>How sure are you?</p>\n      <p>Rate your confidence in your answer from 1 (pure guess) to 5 (very sure) by pressing the corresponding button.</p>\n     ","response":3,"image":"img/skates_alternate.jpg","task":"confidence","old_or_new":"new","trial_type":"html-button-response","trial_index":32,"time_elapsed":94250,"internal_node_id":"0.0-3.0-1.14","subject_id":"60085e088155031d968e4db6","study_id":"606233c0e42b980319b6a18e","session_id":"6088353e6f51d2bf64694a4f"},{"rt":2360.050000017509,"stimulus":"img/trophy.jpg","response":"y","image":"img/trophy.jpg","old_or_new":"old","task":"recognition","trial_type":"image-keyboard-response","trial_index":33,"time_elapsed":97117,"internal_node_id":"0.0-3.0-0.15","subject_id":"60085e088155031d968e4db6","study_id":"606233c0e42b980319b6a18e","session_id":"6088353e6f51d2bf64694a4f","correct":true},{"rt":1105.7499999878928,"stimulus":"\n      <p>How sure are you?</p>\n      <p>Rate your confidence in your answer from 1 (pure guess) to 5 (very sure) by pressing the corresponding button.</p>\n     ","response":4,"image":"img/trophy.jpg","task":"confidence","old_or_new":"old","trial_type":"html-button-response","trial_index":34,"time_elapsed":98224,"internal_node_id":"0.0-3.0-1.15","subject_id":"60085e088155031d968e4db6","study_id":"606233c0e42b980319b6a18e","session_id":"6088353e6f51d2bf64694a4f"},{"rt":2421.4999999967404,"stimulus":"img/pizza_alternate.jpg","response":"n","image":"img/pizza_alternate.jpg","old_or_new":"new","task":"recognition","trial_type":"image-keyboard-response","trial_index":35,"time_elapsed":101149,"internal_node_id":"0.0-3.0-0.16","subject_id":"60085e088155031d968e4db6","study_id":"606233c0e42b980319b6a18e","session_id":"6088353e6f51d2bf64694a4f","correct":true},{"rt":1301.404999976512,"stimulus":"\n      <p>How sure are you?</p>\n      <p>Rate your confidence in your answer from 1 (pure guess) to 5 (very sure) by pressing the corresponding button.</p>\n     ","response":2,"image":"img/pizza_alternate.jpg","task":"confidence","old_or_new":"new","trial_type":"html-button-response","trial_index":36,"time_elapsed":102452,"internal_node_id":"0.0-3.0-1.16","subject_id":"60085e088155031d968e4db6","study_id":"606233c0e42b980319b6a18e","session_id":"6088353e6f51d2bf64694a4f"},{"rt":1204.1300000273623,"stimulus":"img/shovel.jpg","response":"y","image":"img/shovel.jpg","old_or_new":"old","task":"recognition","trial_type":"image-keyboard-response","trial_index":37,"time_elapsed":104172,"internal_node_id":"0.0-3.0-0.17","subject_id":"60085e088155031d968e4db6","study_id":"606233c0e42b980319b6a18e","session_id":"6088353e6f51d2bf64694a4f","correct":true},{"rt":861.2450000364333,"stimulus":"\n      <p>How sure are you?</p>\n      <p>Rate your confidence in your answer from 1 (pure guess) to 5 (very sure) by pressing the corresponding button.</p>\n     ","response":4,"image":"img/shovel.jpg","task":"confidence","old_or_new":"old","trial_type":"html-button-response","trial_index":38,"time_elapsed":105035,"internal_node_id":"0.0-3.0-1.17","subject_id":"60085e088155031d968e4db6","study_id":"606233c0e42b980319b6a18e","session_id":"6088353e6f51d2bf64694a4f"},{"rt":958.8300000177696,"stimulus":"img/umbrella_alternate.jpg","response":"y","image":"img/umbrella_alternate.jpg","old_or_new":"new","task":"recognition","trial_type":"image-keyboard-response","trial_index":39,"time_elapsed":106503,"internal_node_id":"0.0-3.0-0.18","subject_id":"60085e088155031d968e4db6","study_id":"606233c0e42b980319b6a18e","session_id":"6088353e6f51d2bf64694a4f","correct":false},{"rt":638.7849999591708,"stimulus":"\n      <p>How sure are you?</p>\n      <p>Rate your confidence in your answer from 1 (pure guess) to 5 (very sure) by pressing the corresponding button.</p>\n     ","response":4,"image":"img/umbrella_alternate.jpg","task":"confidence","old_or_new":"new","trial_type":"html-button-response","trial_index":40,"time_elapsed":107144,"internal_node_id":"0.0-3.0-1.18","subject_id":"60085e088155031d968e4db6","study_id":"606233c0e42b980319b6a18e","session_id":"6088353e6f51d2bf64694a4f"},{"rt":957.9900000244379,"stimulus":"img/shovel_alternate.jpg","response":"y","image":"img/shovel_alternate.jpg","old_or_new":"new","task":"recognition","trial_type":"image-keyboard-response","trial_index":41,"time_elapsed":108610,"internal_node_id":"0.0-3.0-0.19","subject_id":"60085e088155031d968e4db6","study_id":"606233c0e42b980319b6a18e","session_id":"6088353e6f51d2bf64694a4f","correct":false},{"rt":1109.0899999835528,"stimulus":"\n      <p>How sure are you?</p>\n      <p>Rate your confidence in your answer from 1 (pure guess) to 5 (very sure) by pressing the corresponding button.</p>\n     ","response":4,"image":"img/shovel_alternate.jpg","task":"confidence","old_or_new":"new","trial_type":"html-button-response","trial_index":42,"time_elapsed":109720,"internal_node_id":"0.0-3.0-1.19","subject_id":"60085e088155031d968e4db6","study_id":"606233c0e42b980319b6a18e","session_id":"6088353e6f51d2bf64694a4f"},{"rt":2297.9200000409037,"stimulus":"img/toothbrush.jpg","response":"n","image":"img/toothbrush.jpg","old_or_new":"old","task":"recognition","trial_type":"image-keyboard-response","trial_index":43,"time_elapsed":112522,"internal_node_id":"0.0-3.0-0.20","subject_id":"60085e088155031d968e4db6","study_id":"606233c0e42b980319b6a18e","session_id":"6088353e6f51d2bf64694a4f","correct":false},{"rt":785.5299999937415,"stimulus":"\n      <p>How sure are you?</p>\n      <p>Rate your confidence in your answer from 1 (pure guess) to 5 (very sure) by pressing the corresponding button.</p>\n     ","response":2,"image":"img/toothbrush.jpg","task":"confidence","old_or_new":"old","trial_type":"html-button-response","trial_index":44,"time_elapsed":113310,"internal_node_id":"0.0-3.0-1.20","subject_id":"60085e088155031d968e4db6","study_id":"606233c0e42b980319b6a18e","session_id":"6088353e6f51d2bf64694a4f"},{"rt":1399.3949999567121,"stimulus":"img/skates.jpg","response":"y","image":"img/skates.jpg","old_or_new":"old","task":"recognition","trial_type":"image-keyboard-response","trial_index":45,"time_elapsed":115212,"internal_node_id":"0.0-3.0-0.21","subject_id":"60085e088155031d968e4db6","study_id":"606233c0e42b980319b6a18e","session_id":"6088353e6f51d2bf64694a4f","correct":true},{"rt":1713.1199999712408,"stimulus":"\n      <p>How sure are you?</p>\n      <p>Rate your confidence in your answer from 1 (pure guess) to 5 (very sure) by pressing the corresponding button.</p>\n     ","response":3,"image":"img/skates.jpg","task":"confidence","old_or_new":"old","trial_type":"html-button-response","trial_index":46,"time_elapsed":116927,"internal_node_id":"0.0-3.0-1.21","subject_id":"60085e088155031d968e4db6","study_id":"606233c0e42b980319b6a18e","session_id":"6088353e6f51d2bf64694a4f"},{"rt":1730.9600000153296,"stimulus":"img/power_cord.jpg","response":"y","image":"img/power_cord.jpg","old_or_new":"old","task":"recognition","trial_type":"image-keyboard-response","trial_index":47,"time_elapsed":119174,"internal_node_id":"0.0-3.0-0.22","subject_id":"60085e088155031d968e4db6","study_id":"606233c0e42b980319b6a18e","session_id":"6088353e6f51d2bf64694a4f","correct":true},{"rt":816.6249999776483,"stimulus":"\n      <p>How sure are you?</p>\n      <p>Rate your confidence in your answer from 1 (pure guess) to 5 (very sure) by pressing the corresponding button.</p>\n     ","response":4,"image":"img/power_cord.jpg","task":"confidence","old_or_new":"old","trial_type":"html-button-response","trial_index":48,"time_elapsed":119992,"internal_node_id":"0.0-3.0-1.22","subject_id":"60085e088155031d968e4db6","study_id":"606233c0e42b980319b6a18e","session_id":"6088353e6f51d2bf64694a4f"},{"rt":939.7350000217557,"stimulus":"img/power_cord_alternate.jpg","response":"y","image":"img/power_cord_alternate.jpg","old_or_new":"new","task":"recognition","trial_type":"image-keyboard-response","trial_index":49,"time_elapsed":121439,"internal_node_id":"0.0-3.0-0.23","subject_id":"60085e088155031d968e4db6","study_id":"606233c0e42b980319b6a18e","session_id":"6088353e6f51d2bf64694a4f","correct":false},{"rt":914.5050000515766,"stimulus":"\n      <p>How sure are you?</p>\n      <p>Rate your confidence in your answer from 1 (pure guess) to 5 (very sure) by pressing the corresponding button.</p>\n     ","response":3,"image":"img/power_cord_alternate.jpg","task":"confidence","old_or_new":"new","trial_type":"html-button-response","trial_index":50,"time_elapsed":122356,"internal_node_id":"0.0-3.0-1.23","subject_id":"60085e088155031d968e4db6","study_id":"606233c0e42b980319b6a18e","session_id":"6088353e6f51d2bf64694a4f"},{"rt":1915.210000006482,"stimulus":"img/plane_alternate.jpg","response":"n","image":"img/plane_alternate.jpg","old_or_new":"new","task":"recognition","trial_type":"image-keyboard-response","trial_index":51,"time_elapsed":124785,"internal_node_id":"0.0-3.0-0.24","subject_id":"60085e088155031d968e4db6","study_id":"606233c0e42b980319b6a18e","session_id":"6088353e6f51d2bf64694a4f","correct":true},{"rt":2452.240000013262,"stimulus":"\n      <p>How sure are you?</p>\n      <p>Rate your confidence in your answer from 1 (pure guess) to 5 (very sure) by pressing the corresponding button.</p>\n     ","response":2,"image":"img/plane_alternate.jpg","task":"confidence","old_or_new":"new","trial_type":"html-button-response","trial_index":52,"time_elapsed":127239,"internal_node_id":"0.0-3.0-1.24","subject_id":"60085e088155031d968e4db6","study_id":"606233c0e42b980319b6a18e","session_id":"6088353e6f51d2bf64694a4f"},{"rt":903.0650000204332,"stimulus":"img/trophy_alternate.jpg","response":"n","image":"img/trophy_alternate.jpg","old_or_new":"new","task":"recognition","trial_type":"image-keyboard-response","trial_index":53,"time_elapsed":128650,"internal_node_id":"0.0-3.0-0.25","subject_id":"60085e088155031d968e4db6","study_id":"606233c0e42b980319b6a18e","session_id":"6088353e6f51d2bf64694a4f","correct":true},{"rt":2194.2150000249967,"stimulus":"\n      <p>How sure are you?</p>\n      <p>Rate your confidence in your answer from 1 (pure guess) to 5 (very sure) by pressing the corresponding button.</p>\n     ","response":3,"image":"img/trophy_alternate.jpg","task":"confidence","old_or_new":"new","trial_type":"html-button-response","trial_index":54,"time_elapsed":130845,"internal_node_id":"0.0-3.0-1.25","subject_id":"60085e088155031d968e4db6","study_id":"606233c0e42b980319b6a18e","session_id":"6088353e6f51d2bf64694a4f"},{"rt":838.8749999576248,"stimulus":"img/plate_alternate.jpg","response":"n","image":"img/plate_alternate.jpg","old_or_new":"new","task":"recognition","trial_type":"image-keyboard-response","trial_index":55,"time_elapsed":132200,"internal_node_id":"0.0-3.0-0.26","subject_id":"60085e088155031d968e4db6","study_id":"606233c0e42b980319b6a18e","session_id":"6088353e6f51d2bf64694a4f","correct":true},{"rt":486.97999998694286,"stimulus":"\n      <p>How sure are you?</p>\n      <p>Rate your confidence in your answer from 1 (pure guess) to 5 (very sure) by pressing the corresponding button.</p>\n     ","response":3,"image":"img/plate_alternate.jpg","task":"confidence","old_or_new":"new","trial_type":"html-button-response","trial_index":56,"time_elapsed":132689,"internal_node_id":"0.0-3.0-1.26","subject_id":"60085e088155031d968e4db6","study_id":"606233c0e42b980319b6a18e","session_id":"6088353e6f51d2bf64694a4f"},{"rt":733.8050000253133,"stimulus":"img/toaster_alternate.jpg","response":"n","image":"img/toaster_alternate.jpg","old_or_new":"new","task":"recognition","trial_type":"image-keyboard-response","trial_index":57,"time_elapsed":133938,"internal_node_id":"0.0-3.0-0.27","subject_id":"60085e088155031d968e4db6","study_id":"606233c0e42b980319b6a18e","session_id":"6088353e6f51d2bf64694a4f","correct":true},{"rt":681.2200000276789,"stimulus":"\n      <p>How sure are you?</p>\n      <p>Rate your confidence in your answer from 1 (pure guess) to 5 (very sure) by pressing the corresponding button.</p>\n     ","response":3,"image":"img/toaster_alternate.jpg","task":"confidence","old_or_new":"new","trial_type":"html-button-response","trial_index":58,"time_elapsed":134621,"internal_node_id":"0.0-3.0-1.27","subject_id":"60085e088155031d968e4db6","study_id":"606233c0e42b980319b6a18e","session_id":"6088353e6f51d2bf64694a4f"},{"rt":4613.375000015367,"stimulus":"img/tv.jpg","response":"y","image":"img/tv.jpg","old_or_new":"old","task":"recognition","trial_type":"image-keyboard-response","trial_index":59,"time_elapsed":139740,"internal_node_id":"0.0-3.0-0.28","subject_id":"60085e088155031d968e4db6","study_id":"606233c0e42b980319b6a18e","session_id":"6088353e6f51d2bf64694a4f","correct":true},{"rt":936.9600000209175,"stimulus":"\n      <p>How sure are you?</p>\n      <p>Rate your confidence in your answer from 1 (pure guess) to 5 (very sure) by pressing the corresponding button.</p>\n     ","response":3,"image":"img/tv.jpg","task":"confidence","old_or_new":"old","trial_type":"html-button-response","trial_index":60,"time_elapsed":140679,"internal_node_id":"0.0-3.0-1.28","subject_id":"60085e088155031d968e4db6","study_id":"606233c0e42b980319b6a18e","session_id":"6088353e6f51d2bf64694a4f"},{"rt":781.5150000387803,"stimulus":"img/shirt_alternate.jpg","response":"n","image":"img/shirt_alternate.jpg","old_or_new":"new","task":"recognition","trial_type":"image-keyboard-response","trial_index":61,"time_elapsed":141967,"internal_node_id":"0.0-3.0-0.29","subject_id":"60085e088155031d968e4db6","study_id":"606233c0e42b980319b6a18e","session_id":"6088353e6f51d2bf64694a4f","correct":true},{"rt":609.4450000091456,"stimulus":"\n      <p>How sure are you?</p>\n      <p>Rate your confidence in your answer from 1 (pure guess) to 5 (very sure) by pressing the corresponding button.</p>\n     ","response":3,"image":"img/shirt_alternate.jpg","task":"confidence","old_or_new":"new","trial_type":"html-button-response","trial_index":62,"time_elapsed":142578,"internal_node_id":"0.0-3.0-1.29","subject_id":"60085e088155031d968e4db6","study_id":"606233c0e42b980319b6a18e","session_id":"6088353e6f51d2bf64694a4f"},{"rt":1487.250000005588,"stimulus":"img/sink.jpg","response":"y","image":"img/sink.jpg","old_or_new":"old","task":"recognition","trial_type":"image-keyboard-response","trial_index":63,"time_elapsed":144577,"internal_node_id":"0.0-3.0-0.30","subject_id":"60085e088155031d968e4db6","study_id":"606233c0e42b980319b6a18e","session_id":"6088353e6f51d2bf64694a4f","correct":true},{"rt":811.5400000242516,"stimulus":"\n      <p>How sure are you?</p>\n      <p>Rate your confidence in your answer from 1 (pure guess) to 5 (very sure) by pressing the corresponding button.</p>\n     ","response":4,"image":"img/sink.jpg","task":"confidence","old_or_new":"old","trial_type":"html-button-response","trial_index":64,"time_elapsed":145390,"internal_node_id":"0.0-3.0-1.30","subject_id":"60085e088155031d968e4db6","study_id":"606233c0e42b980319b6a18e","session_id":"6088353e6f51d2bf64694a4f"},{"rt":890.0699999649078,"stimulus":"img/wheel_barrow.jpg","response":"y","image":"img/wheel_barrow.jpg","old_or_new":"old","task":"recognition","trial_type":"image-keyboard-response","trial_index":65,"time_elapsed":146787,"internal_node_id":"0.0-3.0-0.31","subject_id":"60085e088155031d968e4db6","study_id":"606233c0e42b980319b6a18e","session_id":"6088353e6f51d2bf64694a4f","correct":true},{"rt":529.7349999891594,"stimulus":"\n      <p>How sure are you?</p>\n      <p>Rate your confidence in your answer from 1 (pure guess) to 5 (very sure) by pressing the corresponding button.</p>\n     ","response":4,"image":"img/wheel_barrow.jpg","task":"confidence","old_or_new":"old","trial_type":"html-button-response","trial_index":66,"time_elapsed":147319,"internal_node_id":"0.0-3.0-1.31","subject_id":"60085e088155031d968e4db6","study_id":"606233c0e42b980319b6a18e","session_id":"6088353e6f51d2bf64694a4f"},{"rt":2178.1849999679253,"stimulus":"img/scissors.jpg","response":"y","image":"img/scissors.jpg","old_or_new":"old","task":"recognition","trial_type":"image-keyboard-response","trial_index":67,"time_elapsed":150009,"internal_node_id":"0.0-3.0-0.32","subject_id":"60085e088155031d968e4db6","study_id":"606233c0e42b980319b6a18e","session_id":"6088353e6f51d2bf64694a4f","correct":true},{"rt":1126.8099999870174,"stimulus":"\n      <p>How sure are you?</p>\n      <p>Rate your confidence in your answer from 1 (pure guess) to 5 (very sure) by pressing the corresponding button.</p>\n     ","response":2,"image":"img/scissors.jpg","task":"confidence","old_or_new":"old","trial_type":"html-button-response","trial_index":68,"time_elapsed":151137,"internal_node_id":"0.0-3.0-1.32","subject_id":"60085e088155031d968e4db6","study_id":"606233c0e42b980319b6a18e","session_id":"6088353e6f51d2bf64694a4f"},{"rt":869.8399999993853,"stimulus":"img/plane.jpg","response":"y","image":"img/plane.jpg","old_or_new":"old","task":"recognition","trial_type":"image-keyboard-response","trial_index":69,"time_elapsed":152517,"internal_node_id":"0.0-3.0-0.33","subject_id":"60085e088155031d968e4db6","study_id":"606233c0e42b980319b6a18e","session_id":"6088353e6f51d2bf64694a4f","correct":true},{"rt":1012.5850000185892,"stimulus":"\n      <p>How sure are you?</p>\n      <p>Rate your confidence in your answer from 1 (pure guess) to 5 (very sure) by pressing the corresponding button.</p>\n     ","response":4,"image":"img/plane.jpg","task":"confidence","old_or_new":"old","trial_type":"html-button-response","trial_index":70,"time_elapsed":153536,"internal_node_id":"0.0-3.0-1.33","subject_id":"60085e088155031d968e4db6","study_id":"606233c0e42b980319b6a18e","session_id":"6088353e6f51d2bf64694a4f"},{"rt":1256.3800000352785,"stimulus":"img/watch_alternate.jpg","response":"n","image":"img/watch_alternate.jpg","old_or_new":"new","task":"recognition","trial_type":"image-keyboard-response","trial_index":71,"time_elapsed":155299,"internal_node_id":"0.0-3.0-0.34","subject_id":"60085e088155031d968e4db6","study_id":"606233c0e42b980319b6a18e","session_id":"6088353e6f51d2bf64694a4f","correct":true},{"rt":1159.3250000150874,"stimulus":"\n      <p>How sure are you?</p>\n      <p>Rate your confidence in your answer from 1 (pure guess) to 5 (very sure) by pressing the corresponding button.</p>\n     ","response":3,"image":"img/watch_alternate.jpg","task":"confidence","old_or_new":"new","trial_type":"html-button-response","trial_index":72,"time_elapsed":156460,"internal_node_id":"0.0-3.0-1.34","subject_id":"60085e088155031d968e4db6","study_id":"606233c0e42b980319b6a18e","session_id":"6088353e6f51d2bf64694a4f"},{"rt":757.8600000124425,"stimulus":"img/shoe_alternate.jpg","response":"n","image":"img/shoe_alternate.jpg","old_or_new":"new","task":"recognition","trial_type":"image-keyboard-response","trial_index":73,"time_elapsed":157733,"internal_node_id":"0.0-3.0-0.35","subject_id":"60085e088155031d968e4db6","study_id":"606233c0e42b980319b6a18e","session_id":"6088353e6f51d2bf64694a4f","correct":true},{"rt":718.8999999780208,"stimulus":"\n      <p>How sure are you?</p>\n      <p>Rate your confidence in your answer from 1 (pure guess) to 5 (very sure) by pressing the corresponding button.</p>\n     ","response":4,"image":"img/shoe_alternate.jpg","task":"confidence","old_or_new":"new","trial_type":"html-button-response","trial_index":74,"time_elapsed":158454,"internal_node_id":"0.0-3.0-1.35","subject_id":"60085e088155031d968e4db6","study_id":"606233c0e42b980319b6a18e","session_id":"6088353e6f51d2bf64694a4f"},{"rt":1012.8999999724329,"stimulus":"img/yarn.jpg","response":"y","image":"img/yarn.jpg","old_or_new":"old","task":"recognition","trial_type":"image-keyboard-response","trial_index":75,"time_elapsed":159978,"internal_node_id":"0.0-3.0-0.36","subject_id":"60085e088155031d968e4db6","study_id":"606233c0e42b980319b6a18e","session_id":"6088353e6f51d2bf64694a4f","correct":true},{"rt":1462.7050000126474,"stimulus":"\n      <p>How sure are you?</p>\n      <p>Rate your confidence in your answer from 1 (pure guess) to 5 (very sure) by pressing the corresponding button.</p>\n     ","response":2,"image":"img/yarn.jpg","task":"confidence","old_or_new":"old","trial_type":"html-button-response","trial_index":76,"time_elapsed":161443,"internal_node_id":"0.0-3.0-1.36","subject_id":"60085e088155031d968e4db6","study_id":"606233c0e42b980319b6a18e","session_id":"6088353e6f51d2bf64694a4f"},{"rt":1054.5249999850057,"stimulus":"img/knife.jpg","response":"y","image":"img/knife.jpg","old_or_new":"old","task":"recognition","trial_type":"image-keyboard-response","trial_index":77,"time_elapsed":163013,"internal_node_id":"0.0-3.0-0.37","subject_id":"60085e088155031d968e4db6","study_id":"606233c0e42b980319b6a18e","session_id":"6088353e6f51d2bf64694a4f","correct":true},{"rt":768.5100000235252,"stimulus":"\n      <p>How sure are you?</p>\n      <p>Rate your confidence in your answer from 1 (pure guess) to 5 (very sure) by pressing the corresponding button.</p>\n     ","response":4,"image":"img/knife.jpg","task":"confidence","old_or_new":"old","trial_type":"html-button-response","trial_index":78,"time_elapsed":163783,"internal_node_id":"0.0-3.0-1.37","subject_id":"60085e088155031d968e4db6","study_id":"606233c0e42b980319b6a18e","session_id":"6088353e6f51d2bf64694a4f"},{"rt":742.4950000131503,"stimulus":"img/watch.jpg","response":"y","image":"img/watch.jpg","old_or_new":"old","task":"recognition","trial_type":"image-keyboard-response","trial_index":79,"time_elapsed":165034,"internal_node_id":"0.0-3.0-0.38","subject_id":"60085e088155031d968e4db6","study_id":"606233c0e42b980319b6a18e","session_id":"6088353e6f51d2bf64694a4f","correct":true},{"rt":498.01499996101484,"stimulus":"\n      <p>How sure are you?</p>\n      <p>Rate your confidence in your answer from 1 (pure guess) to 5 (very sure) by pressing the corresponding button.</p>\n     ","response":4,"image":"img/watch.jpg","task":"confidence","old_or_new":"old","trial_type":"html-button-response","trial_index":80,"time_elapsed":165534,"internal_node_id":"0.0-3.0-1.38","subject_id":"60085e088155031d968e4db6","study_id":"606233c0e42b980319b6a18e","session_id":"6088353e6f51d2bf64694a4f"},{"rt":1460.700000054203,"stimulus":"img/scissors_alternate.jpg","response":"n","image":"img/scissors_alternate.jpg","old_or_new":"new","task":"recognition","trial_type":"image-keyboard-response","trial_index":81,"time_elapsed":167504,"internal_node_id":"0.0-3.0-0.39","subject_id":"60085e088155031d968e4db6","study_id":"606233c0e42b980319b6a18e","session_id":"6088353e6f51d2bf64694a4f","correct":true},{"rt":506.0550000052899,"stimulus":"\n      <p>How sure are you?</p>\n      <p>Rate your confidence in your answer from 1 (pure guess) to 5 (very sure) by pressing the corresponding button.</p>\n     ","response":4,"image":"img/scissors_alternate.jpg","task":"confidence","old_or_new":"new","trial_type":"html-button-response","trial_index":82,"time_elapsed":168012,"internal_node_id":"0.0-3.0-1.39","subject_id":"60085e088155031d968e4db6","study_id":"606233c0e42b980319b6a18e","session_id":"6088353e6f51d2bf64694a4f"},{"rt":2793.134999985341,"stimulus":"img/spoon.jpg","response":"n","image":"img/spoon.jpg","old_or_new":"old","task":"recognition","trial_type":"image-keyboard-response","trial_index":83,"time_elapsed":171316,"internal_node_id":"0.0-3.0-0.40","subject_id":"60085e088155031d968e4db6","study_id":"606233c0e42b980319b6a18e","session_id":"6088353e6f51d2bf64694a4f","correct":false},{"rt":949.0549999754876,"stimulus":"\n      <p>How sure are you?</p>\n      <p>Rate your confidence in your answer from 1 (pure guess) to 5 (very sure) by pressing the corresponding button.</p>\n     ","response":2,"image":"img/spoon.jpg","task":"confidence","old_or_new":"old","trial_type":"html-button-response","trial_index":84,"time_elapsed":172267,"internal_node_id":"0.0-3.0-1.40","subject_id":"60085e088155031d968e4db6","study_id":"606233c0e42b980319b6a18e","session_id":"6088353e6f51d2bf64694a4f"},{"rt":919.724999985192,"stimulus":"img/spoon_alternate.jpg","response":"n","image":"img/spoon_alternate.jpg","old_or_new":"new","task":"recognition","trial_type":"image-keyboard-response","trial_index":85,"time_elapsed":173697,"internal_node_id":"0.0-3.0-0.41","subject_id":"60085e088155031d968e4db6","study_id":"606233c0e42b980319b6a18e","session_id":"6088353e6f51d2bf64694a4f","correct":true},{"rt":1475.6150000030175,"stimulus":"\n      <p>How sure are you?</p>\n      <p>Rate your confidence in your answer from 1 (pure guess) to 5 (very sure) by pressing the corresponding button.</p>\n     ","response":4,"image":"img/spoon_alternate.jpg","task":"confidence","old_or_new":"new","trial_type":"html-button-response","trial_index":86,"time_elapsed":175174,"internal_node_id":"0.0-3.0-1.41","subject_id":"60085e088155031d968e4db6","study_id":"606233c0e42b980319b6a18e","session_id":"6088353e6f51d2bf64694a4f"},{"rt":1224.419999984093,"stimulus":"img/knife_alternate.jpg","response":"n","image":"img/knife_alternate.jpg","old_or_new":"new","task":"recognition","trial_type":"image-keyboard-response","trial_index":87,"time_elapsed":176910,"internal_node_id":"0.0-3.0-0.42","subject_id":"60085e088155031d968e4db6","study_id":"606233c0e42b980319b6a18e","session_id":"6088353e6f51d2bf64694a4f","correct":true},{"rt":736.3799999584444,"stimulus":"\n      <p>How sure are you?</p>\n      <p>Rate your confidence in your answer from 1 (pure guess) to 5 (very sure) by pressing the corresponding button.</p>\n     ","response":4,"image":"img/knife_alternate.jpg","task":"confidence","old_or_new":"new","trial_type":"html-button-response","trial_index":88,"time_elapsed":177649,"internal_node_id":"0.0-3.0-1.42","subject_id":"60085e088155031d968e4db6","study_id":"606233c0e42b980319b6a18e","session_id":"6088353e6f51d2bf64694a4f"},{"rt":1056.6650000400841,"stimulus":"img/pizza.jpg","response":"y","image":"img/pizza.jpg","old_or_new":"old","task":"recognition","trial_type":"image-keyboard-response","trial_index":89,"time_elapsed":179214,"internal_node_id":"0.0-3.0-0.43","subject_id":"60085e088155031d968e4db6","study_id":"606233c0e42b980319b6a18e","session_id":"6088353e6f51d2bf64694a4f","correct":true},{"rt":839.9000000208616,"stimulus":"\n      <p>How sure are you?</p>\n      <p>Rate your confidence in your answer from 1 (pure guess) to 5 (very sure) by pressing the corresponding button.</p>\n     ","response":3,"image":"img/pizza.jpg","task":"confidence","old_or_new":"old","trial_type":"html-button-response","trial_index":90,"time_elapsed":180055,"internal_node_id":"0.0-3.0-1.43","subject_id":"60085e088155031d968e4db6","study_id":"606233c0e42b980319b6a18e","session_id":"6088353e6f51d2bf64694a4f"},{"rt":910.2050000219606,"stimulus":"img/seashell.jpg","response":"y","image":"img/seashell.jpg","old_or_new":"old","task":"recognition","trial_type":"image-keyboard-response","trial_index":91,"time_elapsed":181477,"internal_node_id":"0.0-3.0-0.44","subject_id":"60085e088155031d968e4db6","study_id":"606233c0e42b980319b6a18e","session_id":"6088353e6f51d2bf64694a4f","correct":true},{"rt":613.8350000255741,"stimulus":"\n      <p>How sure are you?</p>\n      <p>Rate your confidence in your answer from 1 (pure guess) to 5 (very sure) by pressing the corresponding button.</p>\n     ","response":4,"image":"img/seashell.jpg","task":"confidence","old_or_new":"old","trial_type":"html-button-response","trial_index":92,"time_elapsed":182093,"internal_node_id":"0.0-3.0-1.44","subject_id":"60085e088155031d968e4db6","study_id":"606233c0e42b980319b6a18e","session_id":"6088353e6f51d2bf64694a4f"},{"rt":1501.7649999936111,"stimulus":"img/toaster.jpg","response":"y","image":"img/toaster.jpg","old_or_new":"old","task":"recognition","trial_type":"image-keyboard-response","trial_index":93,"time_elapsed":184100,"internal_node_id":"0.0-3.0-0.45","subject_id":"60085e088155031d968e4db6","study_id":"606233c0e42b980319b6a18e","session_id":"6088353e6f51d2bf64694a4f","correct":true},{"rt":1006.2899999902584,"stimulus":"\n      <p>How sure are you?</p>\n      <p>Rate your confidence in your answer from 1 (pure guess) to 5 (very sure) by pressing the corresponding button.</p>\n     ","response":2,"image":"img/toaster.jpg","task":"confidence","old_or_new":"old","trial_type":"html-button-response","trial_index":94,"time_elapsed":185108,"internal_node_id":"0.0-3.0-1.45","subject_id":"60085e088155031d968e4db6","study_id":"606233c0e42b980319b6a18e","session_id":"6088353e6f51d2bf64694a4f"},{"rt":1450.165000045672,"stimulus":"img/wheel_barrow_alternate.jpg","response":"n","image":"img/wheel_barrow_alternate.jpg","old_or_new":"new","task":"recognition","trial_type":"image-keyboard-response","trial_index":95,"time_elapsed":187074,"internal_node_id":"0.0-3.0-0.46","subject_id":"60085e088155031d968e4db6","study_id":"606233c0e42b980319b6a18e","session_id":"6088353e6f51d2bf64694a4f","correct":true},{"rt":920.0049999635667,"stimulus":"\n      <p>How sure are you?</p>\n      <p>Rate your confidence in your answer from 1 (pure guess) to 5 (very sure) by pressing the corresponding button.</p>\n     ","response":4,"image":"img/wheel_barrow_alternate.jpg","task":"confidence","old_or_new":"new","trial_type":"html-button-response","trial_index":96,"time_elapsed":187996,"internal_node_id":"0.0-3.0-1.46","subject_id":"60085e088155031d968e4db6","study_id":"606233c0e42b980319b6a18e","session_id":"6088353e6f51d2bf64694a4f"},{"rt":771.4249999844469,"stimulus":"img/parfait.jpg","response":"y","image":"img/parfait.jpg","old_or_new":"old","task":"recognition","trial_type":"image-keyboard-response","trial_index":97,"time_elapsed":189278,"internal_node_id":"0.0-3.0-0.47","subject_id":"60085e088155031d968e4db6","study_id":"606233c0e42b980319b6a18e","session_id":"6088353e6f51d2bf64694a4f","correct":true},{"rt":869.4449999602512,"stimulus":"\n      <p>How sure are you?</p>\n      <p>Rate your confidence in your answer from 1 (pure guess) to 5 (very sure) by pressing the corresponding button.</p>\n     ","response":3,"image":"img/parfait.jpg","task":"confidence","old_or_new":"old","trial_type":"html-button-response","trial_index":98,"time_elapsed":190150,"internal_node_id":"0.0-3.0-1.47","subject_id":"60085e088155031d968e4db6","study_id":"606233c0e42b980319b6a18e","session_id":"6088353e6f51d2bf64694a4f"}]