[{"success":true,"timeout":false,"failed_images":[],"failed_audio":[],"failed_video":[],"trial_type":"preload","trial_index":0,"time_elapsed":3627,"internal_node_id":"0.0-0.0","subject_id":"6017631786fe249e33497b0f","study_id":"606233c0e42b980319b6a18e","session_id":"6088348b0d0671c070d42ad7"},{"rt":38881.38500007335,"stimulus":"\n      <div style=\"width:800px; text-align: left;\">\n        <p>Welcome to day 2 of the experiment! Thanks for coming back.</p>\n        <p>You will be presented with a series of images. Images will appear one at a time.</p>\n        <p>Each image will remain on the screen until you press either <span style=\"font-weight: bold;\">\"y\" to indicate you have seen the \n        exact same photo the day before or \"n\" to indicate you have not seen the exact same photo the day before.</span></p>\n        <p>After you answer yes (\"y\") or no (\"n\"), you will then be prompted to rate your certainty on a scale of\n        1 (pure guess) to 5 (very sure).</p>\n      </div>\n    ","response":0,"trial_type":"html-button-response","trial_index":1,"time_elapsed":42510,"internal_node_id":"0.0-1.0","subject_id":"6017631786fe249e33497b0f","study_id":"606233c0e42b980319b6a18e","session_id":"6088348b0d0671c070d42ad7"},{"success":true,"trial_type":"fullscreen","trial_index":2,"time_elapsed":48849,"internal_node_id":"0.0-2.0","subject_id":"6017631786fe249e33497b0f","study_id":"606233c0e42b980319b6a18e","session_id":"6088348b0d0671c070d42ad7"},{"rt":2641.1950000328943,"stimulus":"img/spoon.jpg","response":"y","image":"img/spoon.jpg","old_or_new":"old","task":"recognition","trial_type":"image-keyboard-response","trial_index":3,"time_elapsed":51510,"internal_node_id":"0.0-3.0-0.0","subject_id":"6017631786fe249e33497b0f","study_id":"606233c0e42b980319b6a18e","session_id":"6088348b0d0671c070d42ad7","correct":true},{"rt":2865.5900000594556,"stimulus":"\n      <p>How sure are you?</p>\n      <p>Rate your confidence in your answer from 1 (pure guess) to 5 (very sure) by pressing the corresponding button.</p>\n     ","response":3,"image":"img/spoon.jpg","task":"confidence","old_or_new":"old","trial_type":"html-button-response","trial_index":4,"time_elapsed":54377,"internal_node_id":"0.0-3.0-1.0","subject_id":"6017631786fe249e33497b0f","study_id":"606233c0e42b980319b6a18e","session_id":"6088348b0d0671c070d42ad7"},{"rt":4318.749999976717,"stimulus":"img/toothbrush_alternate.jpg","response":"n","image":"img/toothbrush_alternate.jpg","old_or_new":"new","task":"recognition","trial_type":"image-keyboard-response","trial_index":5,"time_elapsed":59199,"internal_node_id":"0.0-3.0-0.1","subject_id":"6017631786fe249e33497b0f","study_id":"606233c0e42b980319b6a18e","session_id":"6088348b0d0671c070d42ad7","correct":true},{"rt":1390.6800000695512,"stimulus":"\n      <p>How sure are you?</p>\n      <p>Rate your confidence in your answer from 1 (pure guess) to 5 (very sure) by pressing the corresponding button.</p>\n     ","response":1,"image":"img/toothbrush_alternate.jpg","task":"confidence","old_or_new":"new","trial_type":"html-button-response","trial_index":6,"time_elapsed":60591,"internal_node_id":"0.0-3.0-1.1","subject_id":"6017631786fe249e33497b0f","study_id":"606233c0e42b980319b6a18e","session_id":"6088348b0d0671c070d42ad7"},{"rt":1302.6250000111759,"stimulus":"img/plate_alternate.jpg","response":"n","image":"img/plate_alternate.jpg","old_or_new":"new","task":"recognition","trial_type":"image-keyboard-response","trial_index":7,"time_elapsed":62397,"internal_node_id":"0.0-3.0-0.2","subject_id":"6017631786fe249e33497b0f","study_id":"606233c0e42b980319b6a18e","session_id":"6088348b0d0671c070d42ad7","correct":true},{"rt":1046.4149999897927,"stimulus":"\n      <p>How sure are you?</p>\n      <p>Rate your confidence in your answer from 1 (pure guess) to 5 (very sure) by pressing the corresponding button.</p>\n     ","response":3,"image":"img/plate_alternate.jpg","task":"confidence","old_or_new":"new","trial_type":"html-button-response","trial_index":8,"time_elapsed":63444,"internal_node_id":"0.0-3.0-1.2","subject_id":"6017631786fe249e33497b0f","study_id":"606233c0e42b980319b6a18e","session_id":"6088348b0d0671c070d42ad7"},{"rt":2211.544999969192,"stimulus":"img/rolling_pin_alternate.jpg","response":"y","image":"img/rolling_pin_alternate.jpg","old_or_new":"new","task":"recognition","trial_type":"image-keyboard-response","trial_index":9,"time_elapsed":66157,"internal_node_id":"0.0-3.0-0.3","subject_id":"6017631786fe249e33497b0f","study_id":"606233c0e42b980319b6a18e","session_id":"6088348b0d0671c070d42ad7","correct":false},{"rt":779.5550000155345,"stimulus":"\n      <p>How sure are you?</p>\n      <p>Rate your confidence in your answer from 1 (pure guess) to 5 (very sure) by pressing the corresponding button.</p>\n     ","response":2,"image":"img/rolling_pin_alternate.jpg","task":"confidence","old_or_new":"new","trial_type":"html-button-response","trial_index":10,"time_elapsed":66938,"internal_node_id":"0.0-3.0-1.3","subject_id":"6017631786fe249e33497b0f","study_id":"606233c0e42b980319b6a18e","session_id":"6088348b0d0671c070d42ad7"},{"rt":2019.730000058189,"stimulus":"img/tv_alternate.jpg","response":"n","image":"img/tv_alternate.jpg","old_or_new":"new","task":"recognition","trial_type":"image-keyboard-response","trial_index":11,"time_elapsed":69461,"internal_node_id":"0.0-3.0-0.4","subject_id":"6017631786fe249e33497b0f","study_id":"606233c0e42b980319b6a18e","session_id":"6088348b0d0671c070d42ad7","correct":true},{"rt":690.8050000201911,"stimulus":"\n      <p>How sure are you?</p>\n      <p>Rate your confidence in your answer from 1 (pure guess) to 5 (very sure) by pressing the corresponding button.</p>\n     ","response":1,"image":"img/tv_alternate.jpg","task":"confidence","old_or_new":"new","trial_type":"html-button-response","trial_index":12,"time_elapsed":70153,"internal_node_id":"0.0-3.0-1.4","subject_id":"6017631786fe249e33497b0f","study_id":"606233c0e42b980319b6a18e","session_id":"6088348b0d0671c070d42ad7"},{"rt":2525.0350000569597,"stimulus":"img/trophy_alternate.jpg","response":"n","image":"img/trophy_alternate.jpg","old_or_new":"new","task":"recognition","trial_type":"image-keyboard-response","trial_index":13,"time_elapsed":73180,"internal_node_id":"0.0-3.0-0.5","subject_id":"6017631786fe249e33497b0f","study_id":"606233c0e42b980319b6a18e","session_id":"6088348b0d0671c070d42ad7","correct":true},{"rt":1432.3699999367818,"stimulus":"\n      <p>How sure are you?</p>\n      <p>Rate your confidence in your answer from 1 (pure guess) to 5 (very sure) by pressing the corresponding button.</p>\n     ","response":4,"image":"img/trophy_alternate.jpg","task":"confidence","old_or_new":"new","trial_type":"html-button-response","trial_index":14,"time_elapsed":74614,"internal_node_id":"0.0-3.0-1.5","subject_id":"6017631786fe249e33497b0f","study_id":"606233c0e42b980319b6a18e","session_id":"6088348b0d0671c070d42ad7"},{"rt":2160.0850000977516,"stimulus":"img/knife_alternate.jpg","response":"y","image":"img/knife_alternate.jpg","old_or_new":"new","task":"recognition","trial_type":"image-keyboard-response","trial_index":15,"time_elapsed":77277,"internal_node_id":"0.0-3.0-0.6","subject_id":"6017631786fe249e33497b0f","study_id":"606233c0e42b980319b6a18e","session_id":"6088348b0d0671c070d42ad7","correct":false},{"rt":1455.7199999690056,"stimulus":"\n      <p>How sure are you?</p>\n      <p>Rate your confidence in your answer from 1 (pure guess) to 5 (very sure) by pressing the corresponding button.</p>\n     ","response":4,"image":"img/knife_alternate.jpg","task":"confidence","old_or_new":"new","trial_type":"html-button-response","trial_index":16,"time_elapsed":78734,"internal_node_id":"0.0-3.0-1.6","subject_id":"6017631786fe249e33497b0f","study_id":"606233c0e42b980319b6a18e","session_id":"6088348b0d0671c070d42ad7"},{"rt":4033.159999991767,"stimulus":"img/parfait.jpg","response":"y","image":"img/parfait.jpg","old_or_new":"old","task":"recognition","trial_type":"image-keyboard-response","trial_index":17,"time_elapsed":83270,"internal_node_id":"0.0-3.0-0.7","subject_id":"6017631786fe249e33497b0f","study_id":"606233c0e42b980319b6a18e","session_id":"6088348b0d0671c070d42ad7","correct":true},{"rt":1298.4899999573827,"stimulus":"\n      <p>How sure are you?</p>\n      <p>Rate your confidence in your answer from 1 (pure guess) to 5 (very sure) by pressing the corresponding button.</p>\n     ","response":2,"image":"img/parfait.jpg","task":"confidence","old_or_new":"old","trial_type":"html-button-response","trial_index":18,"time_elapsed":84570,"internal_node_id":"0.0-3.0-1.7","subject_id":"6017631786fe249e33497b0f","study_id":"606233c0e42b980319b6a18e","session_id":"6088348b0d0671c070d42ad7"},{"rt":1711.974999983795,"stimulus":"img/rolling_pin.jpg","response":"y","image":"img/rolling_pin.jpg","old_or_new":"old","task":"recognition","trial_type":"image-keyboard-response","trial_index":19,"time_elapsed":86784,"internal_node_id":"0.0-3.0-0.8","subject_id":"6017631786fe249e33497b0f","study_id":"606233c0e42b980319b6a18e","session_id":"6088348b0d0671c070d42ad7","correct":true},{"rt":777.585000032559,"stimulus":"\n      <p>How sure are you?</p>\n      <p>Rate your confidence in your answer from 1 (pure guess) to 5 (very sure) by pressing the corresponding button.</p>\n     ","response":4,"image":"img/rolling_pin.jpg","task":"confidence","old_or_new":"old","trial_type":"html-button-response","trial_index":20,"time_elapsed":87562,"internal_node_id":"0.0-3.0-1.8","subject_id":"6017631786fe249e33497b0f","study_id":"606233c0e42b980319b6a18e","session_id":"6088348b0d0671c070d42ad7"},{"rt":648.769999970682,"stimulus":"img/shovel.jpg","response":"y","image":"img/shovel.jpg","old_or_new":"old","task":"recognition","trial_type":"image-keyboard-response","trial_index":21,"time_elapsed":88713,"internal_node_id":"0.0-3.0-0.9","subject_id":"6017631786fe249e33497b0f","study_id":"606233c0e42b980319b6a18e","session_id":"6088348b0d0671c070d42ad7","correct":true},{"rt":696.0399999516085,"stimulus":"\n      <p>How sure are you?</p>\n      <p>Rate your confidence in your answer from 1 (pure guess) to 5 (very sure) by pressing the corresponding button.</p>\n     ","response":4,"image":"img/shovel.jpg","task":"confidence","old_or_new":"old","trial_type":"html-button-response","trial_index":22,"time_elapsed":89410,"internal_node_id":"0.0-3.0-1.9","subject_id":"6017631786fe249e33497b0f","study_id":"606233c0e42b980319b6a18e","session_id":"6088348b0d0671c070d42ad7"},{"rt":1079.619999974966,"stimulus":"img/power_cord.jpg","response":"y","image":"img/power_cord.jpg","old_or_new":"old","task":"recognition","trial_type":"image-keyboard-response","trial_index":23,"time_elapsed":90992,"internal_node_id":"0.0-3.0-0.10","subject_id":"6017631786fe249e33497b0f","study_id":"606233c0e42b980319b6a18e","session_id":"6088348b0d0671c070d42ad7","correct":true},{"rt":405.6150000542402,"stimulus":"\n      <p>How sure are you?</p>\n      <p>Rate your confidence in your answer from 1 (pure guess) to 5 (very sure) by pressing the corresponding button.</p>\n     ","response":4,"image":"img/power_cord.jpg","task":"confidence","old_or_new":"old","trial_type":"html-button-response","trial_index":24,"time_elapsed":91399,"internal_node_id":"0.0-3.0-1.10","subject_id":"6017631786fe249e33497b0f","study_id":"606233c0e42b980319b6a18e","session_id":"6088348b0d0671c070d42ad7"},{"rt":3445.0599999399856,"stimulus":"img/knife.jpg","response":"n","image":"img/knife.jpg","old_or_new":"old","task":"recognition","trial_type":"image-keyboard-response","trial_index":25,"time_elapsed":95347,"internal_node_id":"0.0-3.0-0.11","subject_id":"6017631786fe249e33497b0f","study_id":"606233c0e42b980319b6a18e","session_id":"6088348b0d0671c070d42ad7","correct":false},{"rt":1174.9300000956282,"stimulus":"\n      <p>How sure are you?</p>\n      <p>Rate your confidence in your answer from 1 (pure guess) to 5 (very sure) by pressing the corresponding button.</p>\n     ","response":1,"image":"img/knife.jpg","task":"confidence","old_or_new":"old","trial_type":"html-button-response","trial_index":26,"time_elapsed":96523,"internal_node_id":"0.0-3.0-1.11","subject_id":"6017631786fe249e33497b0f","study_id":"606233c0e42b980319b6a18e","session_id":"6088348b0d0671c070d42ad7"},{"rt":1741.9950000476092,"stimulus":"img/plane.jpg","response":"y","image":"img/plane.jpg","old_or_new":"old","task":"recognition","trial_type":"image-keyboard-response","trial_index":27,"time_elapsed":98766,"internal_node_id":"0.0-3.0-0.12","subject_id":"6017631786fe249e33497b0f","study_id":"606233c0e42b980319b6a18e","session_id":"6088348b0d0671c070d42ad7","correct":true},{"rt":999.8700000578538,"stimulus":"\n      <p>How sure are you?</p>\n      <p>Rate your confidence in your answer from 1 (pure guess) to 5 (very sure) by pressing the corresponding button.</p>\n     ","response":2,"image":"img/plane.jpg","task":"confidence","old_or_new":"old","trial_type":"html-button-response","trial_index":28,"time_elapsed":99767,"internal_node_id":"0.0-3.0-1.12","subject_id":"6017631786fe249e33497b0f","study_id":"606233c0e42b980319b6a18e","session_id":"6088348b0d0671c070d42ad7"},{"rt":843.4849999612197,"stimulus":"img/toaster.jpg","response":"y","image":"img/toaster.jpg","old_or_new":"old","task":"recognition","trial_type":"image-keyboard-response","trial_index":29,"time_elapsed":101112,"internal_node_id":"0.0-3.0-0.13","subject_id":"6017631786fe249e33497b0f","study_id":"606233c0e42b980319b6a18e","session_id":"6088348b0d0671c070d42ad7","correct":true},{"rt":560.6550000375137,"stimulus":"\n      <p>How sure are you?</p>\n      <p>Rate your confidence in your answer from 1 (pure guess) to 5 (very sure) by pressing the corresponding button.</p>\n     ","response":3,"image":"img/toaster.jpg","task":"confidence","old_or_new":"old","trial_type":"html-button-response","trial_index":30,"time_elapsed":101674,"internal_node_id":"0.0-3.0-1.13","subject_id":"6017631786fe249e33497b0f","study_id":"606233c0e42b980319b6a18e","session_id":"6088348b0d0671c070d42ad7"},{"rt":715.254999930039,"stimulus":"img/wheel_barrow.jpg","response":"y","image":"img/wheel_barrow.jpg","old_or_new":"old","task":"recognition","trial_type":"image-keyboard-response","trial_index":31,"time_elapsed":102891,"internal_node_id":"0.0-3.0-0.14","subject_id":"6017631786fe249e33497b0f","study_id":"606233c0e42b980319b6a18e","session_id":"6088348b0d0671c070d42ad7","correct":true},{"rt":649.4849999435246,"stimulus":"\n      <p>How sure are you?</p>\n      <p>Rate your confidence in your answer from 1 (pure guess) to 5 (very sure) by pressing the corresponding button.</p>\n     ","response":4,"image":"img/wheel_barrow.jpg","task":"confidence","old_or_new":"old","trial_type":"html-button-response","trial_index":32,"time_elapsed":103541,"internal_node_id":"0.0-3.0-1.14","subject_id":"6017631786fe249e33497b0f","study_id":"606233c0e42b980319b6a18e","session_id":"6088348b0d0671c070d42ad7"},{"rt":958.5650000954047,"stimulus":"img/skates.jpg","response":"y","image":"img/skates.jpg","old_or_new":"old","task":"recognition","trial_type":"image-keyboard-response","trial_index":33,"time_elapsed":105004,"internal_node_id":"0.0-3.0-0.15","subject_id":"6017631786fe249e33497b0f","study_id":"606233c0e42b980319b6a18e","session_id":"6088348b0d0671c070d42ad7","correct":true},{"rt":945.6800000043586,"stimulus":"\n      <p>How sure are you?</p>\n      <p>Rate your confidence in your answer from 1 (pure guess) to 5 (very sure) by pressing the corresponding button.</p>\n     ","response":4,"image":"img/skates.jpg","task":"confidence","old_or_new":"old","trial_type":"html-button-response","trial_index":34,"time_elapsed":105951,"internal_node_id":"0.0-3.0-1.15","subject_id":"6017631786fe249e33497b0f","study_id":"606233c0e42b980319b6a18e","session_id":"6088348b0d0671c070d42ad7"},{"rt":626.4250000240281,"stimulus":"img/seashell.jpg","response":"y","image":"img/seashell.jpg","old_or_new":"old","task":"recognition","trial_type":"image-keyboard-response","trial_index":35,"time_elapsed":107079,"internal_node_id":"0.0-3.0-0.16","subject_id":"6017631786fe249e33497b0f","study_id":"606233c0e42b980319b6a18e","session_id":"6088348b0d0671c070d42ad7","correct":true},{"rt":506.6749999532476,"stimulus":"\n      <p>How sure are you?</p>\n      <p>Rate your confidence in your answer from 1 (pure guess) to 5 (very sure) by pressing the corresponding button.</p>\n     ","response":4,"image":"img/seashell.jpg","task":"confidence","old_or_new":"old","trial_type":"html-button-response","trial_index":36,"time_elapsed":107587,"internal_node_id":"0.0-3.0-1.16","subject_id":"6017631786fe249e33497b0f","study_id":"606233c0e42b980319b6a18e","session_id":"6088348b0d0671c070d42ad7"},{"rt":1271.959999925457,"stimulus":"img/shirt.jpg","response":"y","image":"img/shirt.jpg","old_or_new":"old","task":"recognition","trial_type":"image-keyboard-response","trial_index":37,"time_elapsed":109362,"internal_node_id":"0.0-3.0-0.17","subject_id":"6017631786fe249e33497b0f","study_id":"606233c0e42b980319b6a18e","session_id":"6088348b0d0671c070d42ad7","correct":true},{"rt":1357.9349999781698,"stimulus":"\n      <p>How sure are you?</p>\n      <p>Rate your confidence in your answer from 1 (pure guess) to 5 (very sure) by pressing the corresponding button.</p>\n     ","response":3,"image":"img/shirt.jpg","task":"confidence","old_or_new":"old","trial_type":"html-button-response","trial_index":38,"time_elapsed":110721,"internal_node_id":"0.0-3.0-1.17","subject_id":"6017631786fe249e33497b0f","study_id":"606233c0e42b980319b6a18e","session_id":"6088348b0d0671c070d42ad7"},{"rt":1035.0950000574812,"stimulus":"img/toothbrush.jpg","response":"y","image":"img/toothbrush.jpg","old_or_new":"old","task":"recognition","trial_type":"image-keyboard-response","trial_index":39,"time_elapsed":112257,"internal_node_id":"0.0-3.0-0.18","subject_id":"6017631786fe249e33497b0f","study_id":"606233c0e42b980319b6a18e","session_id":"6088348b0d0671c070d42ad7","correct":true},{"rt":621.0750000318512,"stimulus":"\n      <p>How sure are you?</p>\n      <p>Rate your confidence in your answer from 1 (pure guess) to 5 (very sure) by pressing the corresponding button.</p>\n     ","response":4,"image":"img/toothbrush.jpg","task":"confidence","old_or_new":"old","trial_type":"html-button-response","trial_index":40,"time_elapsed":112880,"internal_node_id":"0.0-3.0-1.18","subject_id":"6017631786fe249e33497b0f","study_id":"606233c0e42b980319b6a18e","session_id":"6088348b0d0671c070d42ad7"},{"rt":2204.2099999962375,"stimulus":"img/parfait_alternate.jpg","response":"n","image":"img/parfait_alternate.jpg","old_or_new":"new","task":"recognition","trial_type":"image-keyboard-response","trial_index":41,"time_elapsed":115586,"internal_node_id":"0.0-3.0-0.19","subject_id":"6017631786fe249e33497b0f","study_id":"606233c0e42b980319b6a18e","session_id":"6088348b0d0671c070d42ad7","correct":true},{"rt":1611.44999996759,"stimulus":"\n      <p>How sure are you?</p>\n      <p>Rate your confidence in your answer from 1 (pure guess) to 5 (very sure) by pressing the corresponding button.</p>\n     ","response":2,"image":"img/parfait_alternate.jpg","task":"confidence","old_or_new":"new","trial_type":"html-button-response","trial_index":42,"time_elapsed":117198,"internal_node_id":"0.0-3.0-1.19","subject_id":"6017631786fe249e33497b0f","study_id":"606233c0e42b980319b6a18e","session_id":"6088348b0d0671c070d42ad7"},{"rt":730.4599999915808,"stimulus":"img/pencil_sharpener.jpg","response":"y","image":"img/pencil_sharpener.jpg","old_or_new":"old","task":"recognition","trial_type":"image-keyboard-response","trial_index":43,"time_elapsed":118433,"internal_node_id":"0.0-3.0-0.20","subject_id":"6017631786fe249e33497b0f","study_id":"606233c0e42b980319b6a18e","session_id":"6088348b0d0671c070d42ad7","correct":true},{"rt":757.6050000498071,"stimulus":"\n      <p>How sure are you?</p>\n      <p>Rate your confidence in your answer from 1 (pure guess) to 5 (very sure) by pressing the corresponding button.</p>\n     ","response":4,"image":"img/pencil_sharpener.jpg","task":"confidence","old_or_new":"old","trial_type":"html-button-response","trial_index":44,"time_elapsed":119191,"internal_node_id":"0.0-3.0-1.20","subject_id":"6017631786fe249e33497b0f","study_id":"606233c0e42b980319b6a18e","session_id":"6088348b0d0671c070d42ad7"},{"rt":2288.7799999443814,"stimulus":"img/sink_alternate.jpg","response":"n","image":"img/sink_alternate.jpg","old_or_new":"new","task":"recognition","trial_type":"image-keyboard-response","trial_index":45,"time_elapsed":121993,"internal_node_id":"0.0-3.0-0.21","subject_id":"6017631786fe249e33497b0f","study_id":"606233c0e42b980319b6a18e","session_id":"6088348b0d0671c070d42ad7","correct":true},{"rt":1646.8999999342486,"stimulus":"\n      <p>How sure are you?</p>\n      <p>Rate your confidence in your answer from 1 (pure guess) to 5 (very sure) by pressing the corresponding button.</p>\n     ","response":3,"image":"img/sink_alternate.jpg","task":"confidence","old_or_new":"new","trial_type":"html-button-response","trial_index":46,"time_elapsed":123641,"internal_node_id":"0.0-3.0-1.21","subject_id":"6017631786fe249e33497b0f","study_id":"606233c0e42b980319b6a18e","session_id":"6088348b0d0671c070d42ad7"},{"rt":788.9950000680983,"stimulus":"img/tv.jpg","response":"y","image":"img/tv.jpg","old_or_new":"old","task":"recognition","trial_type":"image-keyboard-response","trial_index":47,"time_elapsed":124933,"internal_node_id":"0.0-3.0-0.22","subject_id":"6017631786fe249e33497b0f","study_id":"606233c0e42b980319b6a18e","session_id":"6088348b0d0671c070d42ad7","correct":true},{"rt":758.2499999552965,"stimulus":"\n      <p>How sure are you?</p>\n      <p>Rate your confidence in your answer from 1 (pure guess) to 5 (very sure) by pressing the corresponding button.</p>\n     ","response":4,"image":"img/tv.jpg","task":"confidence","old_or_new":"old","trial_type":"html-button-response","trial_index":48,"time_elapsed":125692,"internal_node_id":"0.0-3.0-1.22","subject_id":"6017631786fe249e33497b0f","study_id":"606233c0e42b980319b6a18e","session_id":"6088348b0d0671c070d42ad7"},{"rt":813.4850000496954,"stimulus":"img/wheel_barrow_alternate.jpg","response":"y","image":"img/wheel_barrow_alternate.jpg","old_or_new":"new","task":"recognition","trial_type":"image-keyboard-response","trial_index":49,"time_elapsed":127007,"internal_node_id":"0.0-3.0-0.23","subject_id":"6017631786fe249e33497b0f","study_id":"606233c0e42b980319b6a18e","session_id":"6088348b0d0671c070d42ad7","correct":false},{"rt":8591.234999941662,"stimulus":"\n      <p>How sure are you?</p>\n      <p>Rate your confidence in your answer from 1 (pure guess) to 5 (very sure) by pressing the corresponding button.</p>\n     ","response":1,"image":"img/wheel_barrow_alternate.jpg","task":"confidence","old_or_new":"new","trial_type":"html-button-response","trial_index":50,"time_elapsed":135599,"internal_node_id":"0.0-3.0-1.23","subject_id":"6017631786fe249e33497b0f","study_id":"606233c0e42b980319b6a18e","session_id":"6088348b0d0671c070d42ad7"},{"rt":2436.0800000140443,"stimulus":"img/skates_alternate.jpg","response":"n","image":"img/skates_alternate.jpg","old_or_new":"new","task":"recognition","trial_type":"image-keyboard-response","trial_index":51,"time_elapsed":138538,"internal_node_id":"0.0-3.0-0.24","subject_id":"6017631786fe249e33497b0f","study_id":"606233c0e42b980319b6a18e","session_id":"6088348b0d0671c070d42ad7","correct":true},{"rt":1693.0350000038743,"stimulus":"\n      <p>How sure are you?</p>\n      <p>Rate your confidence in your answer from 1 (pure guess) to 5 (very sure) by pressing the corresponding button.</p>\n     ","response":4,"image":"img/skates_alternate.jpg","task":"confidence","old_or_new":"new","trial_type":"html-button-response","trial_index":52,"time_elapsed":140232,"internal_node_id":"0.0-3.0-1.24","subject_id":"6017631786fe249e33497b0f","study_id":"606233c0e42b980319b6a18e","session_id":"6088348b0d0671c070d42ad7"},{"rt":1624.3950000498444,"stimulus":"img/yarn.jpg","response":"y","image":"img/yarn.jpg","old_or_new":"old","task":"recognition","trial_type":"image-keyboard-response","trial_index":53,"time_elapsed":142360,"internal_node_id":"0.0-3.0-0.25","subject_id":"6017631786fe249e33497b0f","study_id":"606233c0e42b980319b6a18e","session_id":"6088348b0d0671c070d42ad7","correct":true},{"rt":703.1600000336766,"stimulus":"\n      <p>How sure are you?</p>\n      <p>Rate your confidence in your answer from 1 (pure guess) to 5 (very sure) by pressing the corresponding button.</p>\n     ","response":4,"image":"img/yarn.jpg","task":"confidence","old_or_new":"old","trial_type":"html-button-response","trial_index":54,"time_elapsed":143065,"internal_node_id":"0.0-3.0-1.25","subject_id":"6017631786fe249e33497b0f","study_id":"606233c0e42b980319b6a18e","session_id":"6088348b0d0671c070d42ad7"},{"rt":2459.7300000023097,"stimulus":"img/shoe.jpg","response":"n","image":"img/shoe.jpg","old_or_new":"old","task":"recognition","trial_type":"image-keyboard-response","trial_index":55,"time_elapsed":146026,"internal_node_id":"0.0-3.0-0.26","subject_id":"6017631786fe249e33497b0f","study_id":"606233c0e42b980319b6a18e","session_id":"6088348b0d0671c070d42ad7","correct":false},{"rt":1759.6250000642613,"stimulus":"\n      <p>How sure are you?</p>\n      <p>Rate your confidence in your answer from 1 (pure guess) to 5 (very sure) by pressing the corresponding button.</p>\n     ","response":2,"image":"img/shoe.jpg","task":"confidence","old_or_new":"old","trial_type":"html-button-response","trial_index":56,"time_elapsed":147787,"internal_node_id":"0.0-3.0-1.26","subject_id":"6017631786fe249e33497b0f","study_id":"606233c0e42b980319b6a18e","session_id":"6088348b0d0671c070d42ad7"},{"rt":1979.285000008531,"stimulus":"img/shoe_alternate.jpg","response":"n","image":"img/shoe_alternate.jpg","old_or_new":"new","task":"recognition","trial_type":"image-keyboard-response","trial_index":57,"time_elapsed":150269,"internal_node_id":"0.0-3.0-0.27","subject_id":"6017631786fe249e33497b0f","study_id":"606233c0e42b980319b6a18e","session_id":"6088348b0d0671c070d42ad7","correct":true},{"rt":2724.159999983385,"stimulus":"\n      <p>How sure are you?</p>\n      <p>Rate your confidence in your answer from 1 (pure guess) to 5 (very sure) by pressing the corresponding button.</p>\n     ","response":4,"image":"img/shoe_alternate.jpg","task":"confidence","old_or_new":"new","trial_type":"html-button-response","trial_index":58,"time_elapsed":152995,"internal_node_id":"0.0-3.0-1.27","subject_id":"6017631786fe249e33497b0f","study_id":"606233c0e42b980319b6a18e","session_id":"6088348b0d0671c070d42ad7"},{"rt":1133.3550000563264,"stimulus":"img/pizza.jpg","response":"y","image":"img/pizza.jpg","old_or_new":"old","task":"recognition","trial_type":"image-keyboard-response","trial_index":59,"time_elapsed":154630,"internal_node_id":"0.0-3.0-0.28","subject_id":"6017631786fe249e33497b0f","study_id":"606233c0e42b980319b6a18e","session_id":"6088348b0d0671c070d42ad7","correct":true},{"rt":2203.800000017509,"stimulus":"\n      <p>How sure are you?</p>\n      <p>Rate your confidence in your answer from 1 (pure guess) to 5 (very sure) by pressing the corresponding button.</p>\n     ","response":4,"image":"img/pizza.jpg","task":"confidence","old_or_new":"old","trial_type":"html-button-response","trial_index":60,"time_elapsed":156835,"internal_node_id":"0.0-3.0-1.28","subject_id":"6017631786fe249e33497b0f","study_id":"606233c0e42b980319b6a18e","session_id":"6088348b0d0671c070d42ad7"},{"rt":913.6399999260902,"stimulus":"img/pizza_alternate.jpg","response":"n","image":"img/pizza_alternate.jpg","old_or_new":"new","task":"recognition","trial_type":"image-keyboard-response","trial_index":61,"time_elapsed":158252,"internal_node_id":"0.0-3.0-0.29","subject_id":"6017631786fe249e33497b0f","study_id":"606233c0e42b980319b6a18e","session_id":"6088348b0d0671c070d42ad7","correct":true},{"rt":1523.6250000307336,"stimulus":"\n      <p>How sure are you?</p>\n      <p>Rate your confidence in your answer from 1 (pure guess) to 5 (very sure) by pressing the corresponding button.</p>\n     ","response":4,"image":"img/pizza_alternate.jpg","task":"confidence","old_or_new":"new","trial_type":"html-button-response","trial_index":62,"time_elapsed":159776,"internal_node_id":"0.0-3.0-1.29","subject_id":"6017631786fe249e33497b0f","study_id":"606233c0e42b980319b6a18e","session_id":"6088348b0d0671c070d42ad7"},{"rt":3039.199999999255,"stimulus":"img/trophy.jpg","response":"y","image":"img/trophy.jpg","old_or_new":"old","task":"recognition","trial_type":"image-keyboard-response","trial_index":63,"time_elapsed":163319,"internal_node_id":"0.0-3.0-0.30","subject_id":"6017631786fe249e33497b0f","study_id":"606233c0e42b980319b6a18e","session_id":"6088348b0d0671c070d42ad7","correct":true},{"rt":1959.3299999833107,"stimulus":"\n      <p>How sure are you?</p>\n      <p>Rate your confidence in your answer from 1 (pure guess) to 5 (very sure) by pressing the corresponding button.</p>\n     ","response":1,"image":"img/trophy.jpg","task":"confidence","old_or_new":"old","trial_type":"html-button-response","trial_index":64,"time_elapsed":165280,"internal_node_id":"0.0-3.0-1.30","subject_id":"6017631786fe249e33497b0f","study_id":"606233c0e42b980319b6a18e","session_id":"6088348b0d0671c070d42ad7"},{"rt":5700.240000034682,"stimulus":"img/toaster_alternate.jpg","response":"n","image":"img/toaster_alternate.jpg","old_or_new":"new","task":"recognition","trial_type":"image-keyboard-response","trial_index":65,"time_elapsed":171482,"internal_node_id":"0.0-3.0-0.31","subject_id":"6017631786fe249e33497b0f","study_id":"606233c0e42b980319b6a18e","session_id":"6088348b0d0671c070d42ad7","correct":true},{"rt":761.5000000223517,"stimulus":"\n      <p>How sure are you?</p>\n      <p>Rate your confidence in your answer from 1 (pure guess) to 5 (very sure) by pressing the corresponding button.</p>\n     ","response":0,"image":"img/toaster_alternate.jpg","task":"confidence","old_or_new":"new","trial_type":"html-button-response","trial_index":66,"time_elapsed":172244,"internal_node_id":"0.0-3.0-1.31","subject_id":"6017631786fe249e33497b0f","study_id":"606233c0e42b980319b6a18e","session_id":"6088348b0d0671c070d42ad7"},{"rt":2989.479999989271,"stimulus":"img/shovel_alternate.jpg","response":"n","image":"img/shovel_alternate.jpg","old_or_new":"new","task":"recognition","trial_type":"image-keyboard-response","trial_index":67,"time_elapsed":175735,"internal_node_id":"0.0-3.0-0.32","subject_id":"6017631786fe249e33497b0f","study_id":"606233c0e42b980319b6a18e","session_id":"6088348b0d0671c070d42ad7","correct":true},{"rt":775.5950000137091,"stimulus":"\n      <p>How sure are you?</p>\n      <p>Rate your confidence in your answer from 1 (pure guess) to 5 (very sure) by pressing the corresponding button.</p>\n     ","response":4,"image":"img/shovel_alternate.jpg","task":"confidence","old_or_new":"new","trial_type":"html-button-response","trial_index":68,"time_elapsed":176512,"internal_node_id":"0.0-3.0-1.32","subject_id":"6017631786fe249e33497b0f","study_id":"606233c0e42b980319b6a18e","session_id":"6088348b0d0671c070d42ad7"},{"rt":1351.6550000058487,"stimulus":"img/plane_alternate.jpg","response":"n","image":"img/plane_alternate.jpg","old_or_new":"new","task":"recognition","trial_type":"image-keyboard-response","trial_index":69,"time_elapsed":178367,"internal_node_id":"0.0-3.0-0.33","subject_id":"6017631786fe249e33497b0f","study_id":"606233c0e42b980319b6a18e","session_id":"6088348b0d0671c070d42ad7","correct":true},{"rt":484.04499993193895,"stimulus":"\n      <p>How sure are you?</p>\n      <p>Rate your confidence in your answer from 1 (pure guess) to 5 (very sure) by pressing the corresponding button.</p>\n     ","response":4,"image":"img/plane_alternate.jpg","task":"confidence","old_or_new":"new","trial_type":"html-button-response","trial_index":70,"time_elapsed":178852,"internal_node_id":"0.0-3.0-1.33","subject_id":"6017631786fe249e33497b0f","study_id":"606233c0e42b980319b6a18e","session_id":"6088348b0d0671c070d42ad7"},{"rt":1194.0300000132993,"stimulus":"img/watch.jpg","response":"y","image":"img/watch.jpg","old_or_new":"old","task":"recognition","trial_type":"image-keyboard-response","trial_index":71,"time_elapsed":180548,"internal_node_id":"0.0-3.0-0.34","subject_id":"6017631786fe249e33497b0f","study_id":"606233c0e42b980319b6a18e","session_id":"6088348b0d0671c070d42ad7","correct":true},{"rt":735.4350000387058,"stimulus":"\n      <p>How sure are you?</p>\n      <p>Rate your confidence in your answer from 1 (pure guess) to 5 (very sure) by pressing the corresponding button.</p>\n     ","response":4,"image":"img/watch.jpg","task":"confidence","old_or_new":"old","trial_type":"html-button-response","trial_index":72,"time_elapsed":181284,"internal_node_id":"0.0-3.0-1.34","subject_id":"6017631786fe249e33497b0f","study_id":"606233c0e42b980319b6a18e","session_id":"6088348b0d0671c070d42ad7"},{"rt":1344.3549999501556,"stimulus":"img/pencil_sharpener_alternate.jpg","response":"n","image":"img/pencil_sharpener_alternate.jpg","old_or_new":"new","task":"recognition","trial_type":"image-keyboard-response","trial_index":73,"time_elapsed":183131,"internal_node_id":"0.0-3.0-0.35","subject_id":"6017631786fe249e33497b0f","study_id":"606233c0e42b980319b6a18e","session_id":"6088348b0d0671c070d42ad7","correct":true},{"rt":1005.1750000566244,"stimulus":"\n      <p>How sure are you?</p>\n      <p>Rate your confidence in your answer from 1 (pure guess) to 5 (very sure) by pressing the corresponding button.</p>\n     ","response":3,"image":"img/pencil_sharpener_alternate.jpg","task":"confidence","old_or_new":"new","trial_type":"html-button-response","trial_index":74,"time_elapsed":184137,"internal_node_id":"0.0-3.0-1.35","subject_id":"6017631786fe249e33497b0f","study_id":"606233c0e42b980319b6a18e","session_id":"6088348b0d0671c070d42ad7"},{"rt":1435.440000030212,"stimulus":"img/spoon_alternate.jpg","response":"n","image":"img/spoon_alternate.jpg","old_or_new":"new","task":"recognition","trial_type":"image-keyboard-response","trial_index":75,"time_elapsed":186074,"internal_node_id":"0.0-3.0-0.36","subject_id":"6017631786fe249e33497b0f","study_id":"606233c0e42b980319b6a18e","session_id":"6088348b0d0671c070d42ad7","correct":true},{"rt":521.1399999679998,"stimulus":"\n      <p>How sure are you?</p>\n      <p>Rate your confidence in your answer from 1 (pure guess) to 5 (very sure) by pressing the corresponding button.</p>\n     ","response":4,"image":"img/spoon_alternate.jpg","task":"confidence","old_or_new":"new","trial_type":"html-button-response","trial_index":76,"time_elapsed":186596,"internal_node_id":"0.0-3.0-1.36","subject_id":"6017631786fe249e33497b0f","study_id":"606233c0e42b980319b6a18e","session_id":"6088348b0d0671c070d42ad7"},{"rt":846.6949999565259,"stimulus":"img/watch_alternate.jpg","response":"n","image":"img/watch_alternate.jpg","old_or_new":"new","task":"recognition","trial_type":"image-keyboard-response","trial_index":77,"time_elapsed":187946,"internal_node_id":"0.0-3.0-0.37","subject_id":"6017631786fe249e33497b0f","study_id":"606233c0e42b980319b6a18e","session_id":"6088348b0d0671c070d42ad7","correct":true},{"rt":590.0499999988824,"stimulus":"\n      <p>How sure are you?</p>\n      <p>Rate your confidence in your answer from 1 (pure guess) to 5 (very sure) by pressing the corresponding button.</p>\n     ","response":4,"image":"img/watch_alternate.jpg","task":"confidence","old_or_new":"new","trial_type":"html-button-response","trial_index":78,"time_elapsed":188537,"internal_node_id":"0.0-3.0-1.37","subject_id":"6017631786fe249e33497b0f","study_id":"606233c0e42b980319b6a18e","session_id":"6088348b0d0671c070d42ad7"},{"rt":3228.0599999940023,"stimulus":"img/plate.jpg","response":"y","image":"img/plate.jpg","old_or_new":"old","task":"recognition","trial_type":"image-keyboard-response","trial_index":79,"time_elapsed":192272,"internal_node_id":"0.0-3.0-0.38","subject_id":"6017631786fe249e33497b0f","study_id":"606233c0e42b980319b6a18e","session_id":"6088348b0d0671c070d42ad7","correct":true},{"rt":2017.0250000664964,"stimulus":"\n      <p>How sure are you?</p>\n      <p>Rate your confidence in your answer from 1 (pure guess) to 5 (very sure) by pressing the corresponding button.</p>\n     ","response":3,"image":"img/plate.jpg","task":"confidence","old_or_new":"old","trial_type":"html-button-response","trial_index":80,"time_elapsed":194291,"internal_node_id":"0.0-3.0-1.38","subject_id":"6017631786fe249e33497b0f","study_id":"606233c0e42b980319b6a18e","session_id":"6088348b0d0671c070d42ad7"},{"rt":1051.3999999966472,"stimulus":"img/yarn_alternate.jpg","response":"n","image":"img/yarn_alternate.jpg","old_or_new":"new","task":"recognition","trial_type":"image-keyboard-response","trial_index":81,"time_elapsed":195845,"internal_node_id":"0.0-3.0-0.39","subject_id":"6017631786fe249e33497b0f","study_id":"606233c0e42b980319b6a18e","session_id":"6088348b0d0671c070d42ad7","correct":true},{"rt":1248.810000019148,"stimulus":"\n      <p>How sure are you?</p>\n      <p>Rate your confidence in your answer from 1 (pure guess) to 5 (very sure) by pressing the corresponding button.</p>\n     ","response":4,"image":"img/yarn_alternate.jpg","task":"confidence","old_or_new":"new","trial_type":"html-button-response","trial_index":82,"time_elapsed":197095,"internal_node_id":"0.0-3.0-1.39","subject_id":"6017631786fe249e33497b0f","study_id":"606233c0e42b980319b6a18e","session_id":"6088348b0d0671c070d42ad7"},{"rt":845.0700000394136,"stimulus":"img/sink.jpg","response":"n","image":"img/sink.jpg","old_or_new":"old","task":"recognition","trial_type":"image-keyboard-response","trial_index":83,"time_elapsed":198443,"internal_node_id":"0.0-3.0-0.40","subject_id":"6017631786fe249e33497b0f","study_id":"606233c0e42b980319b6a18e","session_id":"6088348b0d0671c070d42ad7","correct":false},{"rt":631.374999997206,"stimulus":"\n      <p>How sure are you?</p>\n      <p>Rate your confidence in your answer from 1 (pure guess) to 5 (very sure) by pressing the corresponding button.</p>\n     ","response":4,"image":"img/sink.jpg","task":"confidence","old_or_new":"old","trial_type":"html-button-response","trial_index":84,"time_elapsed":199075,"internal_node_id":"0.0-3.0-1.40","subject_id":"6017631786fe249e33497b0f","study_id":"606233c0e42b980319b6a18e","session_id":"6088348b0d0671c070d42ad7"},{"rt":3264.795000082813,"stimulus":"img/seashell_alternate.jpg","response":"n","image":"img/seashell_alternate.jpg","old_or_new":"new","task":"recognition","trial_type":"image-keyboard-response","trial_index":85,"time_elapsed":202843,"internal_node_id":"0.0-3.0-0.41","subject_id":"6017631786fe249e33497b0f","study_id":"606233c0e42b980319b6a18e","session_id":"6088348b0d0671c070d42ad7","correct":true},{"rt":1439.49000001885,"stimulus":"\n      <p>How sure are you?</p>\n      <p>Rate your confidence in your answer from 1 (pure guess) to 5 (very sure) by pressing the corresponding button.</p>\n     ","response":4,"image":"img/seashell_alternate.jpg","task":"confidence","old_or_new":"new","trial_type":"html-button-response","trial_index":86,"time_elapsed":204285,"internal_node_id":"0.0-3.0-1.41","subject_id":"6017631786fe249e33497b0f","study_id":"606233c0e42b980319b6a18e","session_id":"6088348b0d0671c070d42ad7"},{"rt":1033.3649999229237,"stimulus":"img/scissors_alternate.jpg","response":"n","image":"img/scissors_alternate.jpg","old_or_new":"new","task":"recognition","trial_type":"image-keyboard-response","trial_index":87,"time_elapsed":205821,"internal_node_id":"0.0-3.0-0.42","subject_id":"6017631786fe249e33497b0f","study_id":"606233c0e42b980319b6a18e","session_id":"6088348b0d0671c070d42ad7","correct":true},{"rt":894.8649999219924,"stimulus":"\n      <p>How sure are you?</p>\n      <p>Rate your confidence in your answer from 1 (pure guess) to 5 (very sure) by pressing the corresponding button.</p>\n     ","response":4,"image":"img/scissors_alternate.jpg","task":"confidence","old_or_new":"new","trial_type":"html-button-response","trial_index":88,"time_elapsed":206717,"internal_node_id":"0.0-3.0-1.42","subject_id":"6017631786fe249e33497b0f","study_id":"606233c0e42b980319b6a18e","session_id":"6088348b0d0671c070d42ad7"},{"rt":1729.8050000099465,"stimulus":"img/umbrella.jpg","response":"y","image":"img/umbrella.jpg","old_or_new":"old","task":"recognition","trial_type":"image-keyboard-response","trial_index":89,"time_elapsed":208949,"internal_node_id":"0.0-3.0-0.43","subject_id":"6017631786fe249e33497b0f","study_id":"606233c0e42b980319b6a18e","session_id":"6088348b0d0671c070d42ad7","correct":true},{"rt":646.4149999665096,"stimulus":"\n      <p>How sure are you?</p>\n      <p>Rate your confidence in your answer from 1 (pure guess) to 5 (very sure) by pressing the corresponding button.</p>\n     ","response":4,"image":"img/umbrella.jpg","task":"confidence","old_or_new":"old","trial_type":"html-button-response","trial_index":90,"time_elapsed":209597,"internal_node_id":"0.0-3.0-1.43","subject_id":"6017631786fe249e33497b0f","study_id":"606233c0e42b980319b6a18e","session_id":"6088348b0d0671c070d42ad7"},{"rt":2350.384999997914,"stimulus":"img/umbrella_alternate.jpg","response":"n","image":"img/umbrella_alternate.jpg","old_or_new":"new","task":"recognition","trial_type":"image-keyboard-response","trial_index":91,"time_elapsed":212449,"internal_node_id":"0.0-3.0-0.44","subject_id":"6017631786fe249e33497b0f","study_id":"606233c0e42b980319b6a18e","session_id":"6088348b0d0671c070d42ad7","correct":true},{"rt":1011.0050000948831,"stimulus":"\n      <p>How sure are you?</p>\n      <p>Rate your confidence in your answer from 1 (pure guess) to 5 (very sure) by pressing the corresponding button.</p>\n     ","response":2,"image":"img/umbrella_alternate.jpg","task":"confidence","old_or_new":"new","trial_type":"html-button-response","trial_index":92,"time_elapsed":213462,"internal_node_id":"0.0-3.0-1.44","subject_id":"6017631786fe249e33497b0f","study_id":"606233c0e42b980319b6a18e","session_id":"6088348b0d0671c070d42ad7"},{"rt":1301.4400000683963,"stimulus":"img/scissors.jpg","response":"n","image":"img/scissors.jpg","old_or_new":"old","task":"recognition","trial_type":"image-keyboard-response","trial_index":93,"time_elapsed":215266,"internal_node_id":"0.0-3.0-0.45","subject_id":"6017631786fe249e33497b0f","study_id":"606233c0e42b980319b6a18e","session_id":"6088348b0d0671c070d42ad7","correct":false},{"rt":1216.9749999884516,"stimulus":"\n      <p>How sure are you?</p>\n      <p>Rate your confidence in your answer from 1 (pure guess) to 5 (very sure) by pressing the corresponding button.</p>\n     ","response":2,"image":"img/scissors.jpg","task":"confidence","old_or_new":"old","trial_type":"html-button-response","trial_index":94,"time_elapsed":216485,"internal_node_id":"0.0-3.0-1.45","subject_id":"6017631786fe249e33497b0f","study_id":"606233c0e42b980319b6a18e","session_id":"6088348b0d0671c070d42ad7"},{"rt":925.4899999359623,"stimulus":"img/power_cord_alternate.jpg","response":"n","image":"img/power_cord_alternate.jpg","old_or_new":"new","task":"recognition","trial_type":"image-keyboard-response","trial_index":95,"time_elapsed":217913,"internal_node_id":"0.0-3.0-0.46","subject_id":"6017631786fe249e33497b0f","study_id":"606233c0e42b980319b6a18e","session_id":"6088348b0d0671c070d42ad7","correct":true},{"rt":2477.655000053346,"stimulus":"\n      <p>How sure are you?</p>\n      <p>Rate your confidence in your answer from 1 (pure guess) to 5 (very sure) by pressing the corresponding button.</p>\n     ","response":3,"image":"img/power_cord_alternate.jpg","task":"confidence","old_or_new":"new","trial_type":"html-button-response","trial_index":96,"time_elapsed":220391,"internal_node_id":"0.0-3.0-1.46","subject_id":"6017631786fe249e33497b0f","study_id":"606233c0e42b980319b6a18e","session_id":"6088348b0d0671c070d42ad7"},{"rt":862.4650000128895,"stimulus":"img/shirt_alternate.jpg","response":"n","image":"img/shirt_alternate.jpg","old_or_new":"new","task":"recognition","trial_type":"image-keyboard-response","trial_index":97,"time_elapsed":221757,"internal_node_id":"0.0-3.0-0.47","subject_id":"6017631786fe249e33497b0f","study_id":"606233c0e42b980319b6a18e","session_id":"6088348b0d0671c070d42ad7","correct":true},{"rt":1361.7400000803173,"stimulus":"\n      <p>How sure are you?</p>\n      <p>Rate your confidence in your answer from 1 (pure guess) to 5 (very sure) by pressing the corresponding button.</p>\n     ","response":4,"image":"img/shirt_alternate.jpg","task":"confidence","old_or_new":"new","trial_type":"html-button-response","trial_index":98,"time_elapsed":223120,"internal_node_id":"0.0-3.0-1.47","subject_id":"6017631786fe249e33497b0f","study_id":"606233c0e42b980319b6a18e","session_id":"6088348b0d0671c070d42ad7"}]