[{"success":true,"timeout":false,"failed_images":[],"failed_audio":[],"failed_video":[],"trial_type":"preload","trial_index":0,"time_elapsed":8088,"internal_node_id":"0.0-0.0","subject_id":"59da7e94416c900001ea5b52","study_id":"606233c0e42b980319b6a18e","session_id":"608834f466de15e4ae96c739"},{"rt":87288.02999993786,"stimulus":"\n      <div style=\"width:800px; text-align: left;\">\n        <p>Welcome to day 2 of the experiment! Thanks for coming back.</p>\n        <p>You will be presented with a series of images. Images will appear one at a time.</p>\n        <p>Each image will remain on the screen until you press either <span style=\"font-weight: bold;\">\"y\" to indicate you have seen the \n        exact same photo the day before or \"n\" to indicate you have not seen the exact same photo the day before.</span></p>\n        <p>After you answer yes (\"y\") or no (\"n\"), you will then be prompted to rate your certainty on a scale of\n        1 (pure guess) to 5 (very sure).</p>\n      </div>\n    ","response":0,"trial_type":"html-button-response","trial_index":1,"time_elapsed":95377,"internal_node_id":"0.0-1.0","subject_id":"59da7e94416c900001ea5b52","study_id":"606233c0e42b980319b6a18e","session_id":"608834f466de15e4ae96c739"},{"success":true,"trial_type":"fullscreen","trial_index":2,"time_elapsed":99643,"internal_node_id":"0.0-2.0","subject_id":"59da7e94416c900001ea5b52","study_id":"606233c0e42b980319b6a18e","session_id":"608834f466de15e4ae96c739"},{"rt":3016.4249999215826,"stimulus":"img/toothbrush_alternate.jpg","response":"n","image":"img/toothbrush_alternate.jpg","old_or_new":"new","task":"recognition","trial_type":"image-keyboard-response","trial_index":3,"time_elapsed":102672,"internal_node_id":"0.0-3.0-0.0","subject_id":"59da7e94416c900001ea5b52","study_id":"606233c0e42b980319b6a18e","session_id":"608834f466de15e4ae96c739","correct":true},{"rt":4007.7549999114126,"stimulus":"\n      <p>How sure are you?</p>\n      <p>Rate your confidence in your answer from 1 (pure guess) to 5 (very sure) by pressing the corresponding button.</p>\n     ","response":3,"image":"img/toothbrush_alternate.jpg","task":"confidence","old_or_new":"new","trial_type":"html-button-response","trial_index":4,"time_elapsed":106681,"internal_node_id":"0.0-3.0-1.0","subject_id":"59da7e94416c900001ea5b52","study_id":"606233c0e42b980319b6a18e","session_id":"608834f466de15e4ae96c739"},{"rt":3889.519999967888,"stimulus":"img/parfait_alternate.jpg","response":"n","image":"img/parfait_alternate.jpg","old_or_new":"new","task":"recognition","trial_type":"image-keyboard-response","trial_index":5,"time_elapsed":111073,"internal_node_id":"0.0-3.0-0.1","subject_id":"59da7e94416c900001ea5b52","study_id":"606233c0e42b980319b6a18e","session_id":"608834f466de15e4ae96c739","correct":true},{"rt":1806.7000000737607,"stimulus":"\n      <p>How sure are you?</p>\n      <p>Rate your confidence in your answer from 1 (pure guess) to 5 (very sure) by pressing the corresponding button.</p>\n     ","response":2,"image":"img/parfait_alternate.jpg","task":"confidence","old_or_new":"new","trial_type":"html-button-response","trial_index":6,"time_elapsed":112881,"internal_node_id":"0.0-3.0-1.1","subject_id":"59da7e94416c900001ea5b52","study_id":"606233c0e42b980319b6a18e","session_id":"608834f466de15e4ae96c739"},{"rt":1871.8400000361726,"stimulus":"img/watch.jpg","response":"n","image":"img/watch.jpg","old_or_new":"old","task":"recognition","trial_type":"image-keyboard-response","trial_index":7,"time_elapsed":115255,"internal_node_id":"0.0-3.0-0.2","subject_id":"59da7e94416c900001ea5b52","study_id":"606233c0e42b980319b6a18e","session_id":"608834f466de15e4ae96c739","correct":false},{"rt":1425.3999999491498,"stimulus":"\n      <p>How sure are you?</p>\n      <p>Rate your confidence in your answer from 1 (pure guess) to 5 (very sure) by pressing the corresponding button.</p>\n     ","response":1,"image":"img/watch.jpg","task":"confidence","old_or_new":"old","trial_type":"html-button-response","trial_index":8,"time_elapsed":116681,"internal_node_id":"0.0-3.0-1.2","subject_id":"59da7e94416c900001ea5b52","study_id":"606233c0e42b980319b6a18e","session_id":"608834f466de15e4ae96c739"},{"rt":1850.2999999327585,"stimulus":"img/power_cord.jpg","response":"y","image":"img/power_cord.jpg","old_or_new":"old","task":"recognition","trial_type":"image-keyboard-response","trial_index":9,"time_elapsed":119047,"internal_node_id":"0.0-3.0-0.3","subject_id":"59da7e94416c900001ea5b52","study_id":"606233c0e42b980319b6a18e","session_id":"608834f466de15e4ae96c739","correct":true},{"rt":1585.9499999787658,"stimulus":"\n      <p>How sure are you?</p>\n      <p>Rate your confidence in your answer from 1 (pure guess) to 5 (very sure) by pressing the corresponding button.</p>\n     ","response":3,"image":"img/power_cord.jpg","task":"confidence","old_or_new":"old","trial_type":"html-button-response","trial_index":10,"time_elapsed":120634,"internal_node_id":"0.0-3.0-1.3","subject_id":"59da7e94416c900001ea5b52","study_id":"606233c0e42b980319b6a18e","session_id":"608834f466de15e4ae96c739"},{"rt":1476.7749999882653,"stimulus":"img/rolling_pin_alternate.jpg","response":"n","image":"img/rolling_pin_alternate.jpg","old_or_new":"new","task":"recognition","trial_type":"image-keyboard-response","trial_index":11,"time_elapsed":122622,"internal_node_id":"0.0-3.0-0.4","subject_id":"59da7e94416c900001ea5b52","study_id":"606233c0e42b980319b6a18e","session_id":"608834f466de15e4ae96c739","correct":true},{"rt":1626.7349999397993,"stimulus":"\n      <p>How sure are you?</p>\n      <p>Rate your confidence in your answer from 1 (pure guess) to 5 (very sure) by pressing the corresponding button.</p>\n     ","response":2,"image":"img/rolling_pin_alternate.jpg","task":"confidence","old_or_new":"new","trial_type":"html-button-response","trial_index":12,"time_elapsed":124249,"internal_node_id":"0.0-3.0-1.4","subject_id":"59da7e94416c900001ea5b52","study_id":"606233c0e42b980319b6a18e","session_id":"608834f466de15e4ae96c739"},{"rt":2796.695000026375,"stimulus":"img/yarn.jpg","response":"y","image":"img/yarn.jpg","old_or_new":"old","task":"recognition","trial_type":"image-keyboard-response","trial_index":13,"time_elapsed":127564,"internal_node_id":"0.0-3.0-0.5","subject_id":"59da7e94416c900001ea5b52","study_id":"606233c0e42b980319b6a18e","session_id":"608834f466de15e4ae96c739","correct":true},{"rt":1964.7199999308214,"stimulus":"\n      <p>How sure are you?</p>\n      <p>Rate your confidence in your answer from 1 (pure guess) to 5 (very sure) by pressing the corresponding button.</p>\n     ","response":3,"image":"img/yarn.jpg","task":"confidence","old_or_new":"old","trial_type":"html-button-response","trial_index":14,"time_elapsed":129529,"internal_node_id":"0.0-3.0-1.5","subject_id":"59da7e94416c900001ea5b52","study_id":"606233c0e42b980319b6a18e","session_id":"608834f466de15e4ae96c739"},{"rt":1604.6950001036748,"stimulus":"img/plate_alternate.jpg","response":"n","image":"img/plate_alternate.jpg","old_or_new":"new","task":"recognition","trial_type":"image-keyboard-response","trial_index":15,"time_elapsed":131635,"internal_node_id":"0.0-3.0-0.6","subject_id":"59da7e94416c900001ea5b52","study_id":"606233c0e42b980319b6a18e","session_id":"608834f466de15e4ae96c739","correct":true},{"rt":1356.7650000331923,"stimulus":"\n      <p>How sure are you?</p>\n      <p>Rate your confidence in your answer from 1 (pure guess) to 5 (very sure) by pressing the corresponding button.</p>\n     ","response":2,"image":"img/plate_alternate.jpg","task":"confidence","old_or_new":"new","trial_type":"html-button-response","trial_index":16,"time_elapsed":132993,"internal_node_id":"0.0-3.0-1.6","subject_id":"59da7e94416c900001ea5b52","study_id":"606233c0e42b980319b6a18e","session_id":"608834f466de15e4ae96c739"},{"rt":2294.80000003241,"stimulus":"img/shovel.jpg","response":"y","image":"img/shovel.jpg","old_or_new":"old","task":"recognition","trial_type":"image-keyboard-response","trial_index":17,"time_elapsed":135789,"internal_node_id":"0.0-3.0-0.7","subject_id":"59da7e94416c900001ea5b52","study_id":"606233c0e42b980319b6a18e","session_id":"608834f466de15e4ae96c739","correct":true},{"rt":1891.1650000372902,"stimulus":"\n      <p>How sure are you?</p>\n      <p>Rate your confidence in your answer from 1 (pure guess) to 5 (very sure) by pressing the corresponding button.</p>\n     ","response":1,"image":"img/shovel.jpg","task":"confidence","old_or_new":"old","trial_type":"html-button-response","trial_index":18,"time_elapsed":137681,"internal_node_id":"0.0-3.0-1.7","subject_id":"59da7e94416c900001ea5b52","study_id":"606233c0e42b980319b6a18e","session_id":"608834f466de15e4ae96c739"},{"rt":5528.385000070557,"stimulus":"img/pencil_sharpener_alternate.jpg","response":"n","image":"img/pencil_sharpener_alternate.jpg","old_or_new":"new","task":"recognition","trial_type":"image-keyboard-response","trial_index":19,"time_elapsed":143711,"internal_node_id":"0.0-3.0-0.8","subject_id":"59da7e94416c900001ea5b52","study_id":"606233c0e42b980319b6a18e","session_id":"608834f466de15e4ae96c739","correct":true},{"rt":1321.5899999486282,"stimulus":"\n      <p>How sure are you?</p>\n      <p>Rate your confidence in your answer from 1 (pure guess) to 5 (very sure) by pressing the corresponding button.</p>\n     ","response":1,"image":"img/pencil_sharpener_alternate.jpg","task":"confidence","old_or_new":"new","trial_type":"html-button-response","trial_index":20,"time_elapsed":145033,"internal_node_id":"0.0-3.0-1.8","subject_id":"59da7e94416c900001ea5b52","study_id":"606233c0e42b980319b6a18e","session_id":"608834f466de15e4ae96c739"},{"rt":1439.810000010766,"stimulus":"img/trophy.jpg","response":"y","image":"img/trophy.jpg","old_or_new":"old","task":"recognition","trial_type":"image-keyboard-response","trial_index":21,"time_elapsed":146975,"internal_node_id":"0.0-3.0-0.9","subject_id":"59da7e94416c900001ea5b52","study_id":"606233c0e42b980319b6a18e","session_id":"608834f466de15e4ae96c739","correct":true},{"rt":1481.2950000632554,"stimulus":"\n      <p>How sure are you?</p>\n      <p>Rate your confidence in your answer from 1 (pure guess) to 5 (very sure) by pressing the corresponding button.</p>\n     ","response":3,"image":"img/trophy.jpg","task":"confidence","old_or_new":"old","trial_type":"html-button-response","trial_index":22,"time_elapsed":148457,"internal_node_id":"0.0-3.0-1.9","subject_id":"59da7e94416c900001ea5b52","study_id":"606233c0e42b980319b6a18e","session_id":"608834f466de15e4ae96c739"},{"rt":1495.8600000245497,"stimulus":"img/shirt_alternate.jpg","response":"n","image":"img/shirt_alternate.jpg","old_or_new":"new","task":"recognition","trial_type":"image-keyboard-response","trial_index":23,"time_elapsed":150467,"internal_node_id":"0.0-3.0-0.10","subject_id":"59da7e94416c900001ea5b52","study_id":"606233c0e42b980319b6a18e","session_id":"608834f466de15e4ae96c739","correct":true},{"rt":1357.6200000243261,"stimulus":"\n      <p>How sure are you?</p>\n      <p>Rate your confidence in your answer from 1 (pure guess) to 5 (very sure) by pressing the corresponding button.</p>\n     ","response":3,"image":"img/shirt_alternate.jpg","task":"confidence","old_or_new":"new","trial_type":"html-button-response","trial_index":24,"time_elapsed":151825,"internal_node_id":"0.0-3.0-1.10","subject_id":"59da7e94416c900001ea5b52","study_id":"606233c0e42b980319b6a18e","session_id":"608834f466de15e4ae96c739"},{"rt":1637.1700000017881,"stimulus":"img/plate.jpg","response":"y","image":"img/plate.jpg","old_or_new":"old","task":"recognition","trial_type":"image-keyboard-response","trial_index":25,"time_elapsed":153983,"internal_node_id":"0.0-3.0-0.11","subject_id":"59da7e94416c900001ea5b52","study_id":"606233c0e42b980319b6a18e","session_id":"608834f466de15e4ae96c739","correct":true},{"rt":1744.7549999924377,"stimulus":"\n      <p>How sure are you?</p>\n      <p>Rate your confidence in your answer from 1 (pure guess) to 5 (very sure) by pressing the corresponding button.</p>\n     ","response":1,"image":"img/plate.jpg","task":"confidence","old_or_new":"old","trial_type":"html-button-response","trial_index":26,"time_elapsed":155729,"internal_node_id":"0.0-3.0-1.11","subject_id":"59da7e94416c900001ea5b52","study_id":"606233c0e42b980319b6a18e","session_id":"608834f466de15e4ae96c739"},{"rt":1695.9100000094622,"stimulus":"img/wheel_barrow_alternate.jpg","response":"y","image":"img/wheel_barrow_alternate.jpg","old_or_new":"new","task":"recognition","trial_type":"image-keyboard-response","trial_index":27,"time_elapsed":157933,"internal_node_id":"0.0-3.0-0.12","subject_id":"59da7e94416c900001ea5b52","study_id":"606233c0e42b980319b6a18e","session_id":"608834f466de15e4ae96c739","correct":false},{"rt":1418.9550000010058,"stimulus":"\n      <p>How sure are you?</p>\n      <p>Rate your confidence in your answer from 1 (pure guess) to 5 (very sure) by pressing the corresponding button.</p>\n     ","response":1,"image":"img/wheel_barrow_alternate.jpg","task":"confidence","old_or_new":"new","trial_type":"html-button-response","trial_index":28,"time_elapsed":159353,"internal_node_id":"0.0-3.0-1.12","subject_id":"59da7e94416c900001ea5b52","study_id":"606233c0e42b980319b6a18e","session_id":"608834f466de15e4ae96c739"},{"rt":1341.649999958463,"stimulus":"img/yarn_alternate.jpg","response":"n","image":"img/yarn_alternate.jpg","old_or_new":"new","task":"recognition","trial_type":"image-keyboard-response","trial_index":29,"time_elapsed":161197,"internal_node_id":"0.0-3.0-0.13","subject_id":"59da7e94416c900001ea5b52","study_id":"606233c0e42b980319b6a18e","session_id":"608834f466de15e4ae96c739","correct":true},{"rt":1387.2899999842048,"stimulus":"\n      <p>How sure are you?</p>\n      <p>Rate your confidence in your answer from 1 (pure guess) to 5 (very sure) by pressing the corresponding button.</p>\n     ","response":3,"image":"img/yarn_alternate.jpg","task":"confidence","old_or_new":"new","trial_type":"html-button-response","trial_index":30,"time_elapsed":162585,"internal_node_id":"0.0-3.0-1.13","subject_id":"59da7e94416c900001ea5b52","study_id":"606233c0e42b980319b6a18e","session_id":"608834f466de15e4ae96c739"},{"rt":2523.6499999882653,"stimulus":"img/pizza_alternate.jpg","response":"n","image":"img/pizza_alternate.jpg","old_or_new":"new","task":"recognition","trial_type":"image-keyboard-response","trial_index":31,"time_elapsed":165619,"internal_node_id":"0.0-3.0-0.14","subject_id":"59da7e94416c900001ea5b52","study_id":"606233c0e42b980319b6a18e","session_id":"608834f466de15e4ae96c739","correct":true},{"rt":1348.4649999300018,"stimulus":"\n      <p>How sure are you?</p>\n      <p>Rate your confidence in your answer from 1 (pure guess) to 5 (very sure) by pressing the corresponding button.</p>\n     ","response":1,"image":"img/pizza_alternate.jpg","task":"confidence","old_or_new":"new","trial_type":"html-button-response","trial_index":32,"time_elapsed":166969,"internal_node_id":"0.0-3.0-1.14","subject_id":"59da7e94416c900001ea5b52","study_id":"606233c0e42b980319b6a18e","session_id":"608834f466de15e4ae96c739"},{"rt":1506.3000000081956,"stimulus":"img/pencil_sharpener.jpg","response":"y","image":"img/pencil_sharpener.jpg","old_or_new":"old","task":"recognition","trial_type":"image-keyboard-response","trial_index":33,"time_elapsed":168986,"internal_node_id":"0.0-3.0-0.15","subject_id":"59da7e94416c900001ea5b52","study_id":"606233c0e42b980319b6a18e","session_id":"608834f466de15e4ae96c739","correct":true},{"rt":1493.6450000386685,"stimulus":"\n      <p>How sure are you?</p>\n      <p>Rate your confidence in your answer from 1 (pure guess) to 5 (very sure) by pressing the corresponding button.</p>\n     ","response":3,"image":"img/pencil_sharpener.jpg","task":"confidence","old_or_new":"old","trial_type":"html-button-response","trial_index":34,"time_elapsed":170481,"internal_node_id":"0.0-3.0-1.15","subject_id":"59da7e94416c900001ea5b52","study_id":"606233c0e42b980319b6a18e","session_id":"608834f466de15e4ae96c739"},{"rt":1862.1099999872968,"stimulus":"img/spoon_alternate.jpg","response":"n","image":"img/spoon_alternate.jpg","old_or_new":"new","task":"recognition","trial_type":"image-keyboard-response","trial_index":35,"time_elapsed":172848,"internal_node_id":"0.0-3.0-0.16","subject_id":"59da7e94416c900001ea5b52","study_id":"606233c0e42b980319b6a18e","session_id":"608834f466de15e4ae96c739","correct":true},{"rt":1935.7450000243261,"stimulus":"\n      <p>How sure are you?</p>\n      <p>Rate your confidence in your answer from 1 (pure guess) to 5 (very sure) by pressing the corresponding button.</p>\n     ","response":1,"image":"img/spoon_alternate.jpg","task":"confidence","old_or_new":"new","trial_type":"html-button-response","trial_index":36,"time_elapsed":174785,"internal_node_id":"0.0-3.0-1.16","subject_id":"59da7e94416c900001ea5b52","study_id":"606233c0e42b980319b6a18e","session_id":"608834f466de15e4ae96c739"},{"rt":3615.7299999613315,"stimulus":"img/tv_alternate.jpg","response":"n","image":"img/tv_alternate.jpg","old_or_new":"new","task":"recognition","trial_type":"image-keyboard-response","trial_index":37,"time_elapsed":178904,"internal_node_id":"0.0-3.0-0.17","subject_id":"59da7e94416c900001ea5b52","study_id":"606233c0e42b980319b6a18e","session_id":"608834f466de15e4ae96c739","correct":true},{"rt":1279.6249999664724,"stimulus":"\n      <p>How sure are you?</p>\n      <p>Rate your confidence in your answer from 1 (pure guess) to 5 (very sure) by pressing the corresponding button.</p>\n     ","response":0,"image":"img/tv_alternate.jpg","task":"confidence","old_or_new":"new","trial_type":"html-button-response","trial_index":38,"time_elapsed":180185,"internal_node_id":"0.0-3.0-1.17","subject_id":"59da7e94416c900001ea5b52","study_id":"606233c0e42b980319b6a18e","session_id":"608834f466de15e4ae96c739"},{"rt":1365.8699999796227,"stimulus":"img/seashell.jpg","response":"y","image":"img/seashell.jpg","old_or_new":"old","task":"recognition","trial_type":"image-keyboard-response","trial_index":39,"time_elapsed":182072,"internal_node_id":"0.0-3.0-0.18","subject_id":"59da7e94416c900001ea5b52","study_id":"606233c0e42b980319b6a18e","session_id":"608834f466de15e4ae96c739","correct":true},{"rt":1223.935000016354,"stimulus":"\n      <p>How sure are you?</p>\n      <p>Rate your confidence in your answer from 1 (pure guess) to 5 (very sure) by pressing the corresponding button.</p>\n     ","response":4,"image":"img/seashell.jpg","task":"confidence","old_or_new":"old","trial_type":"html-button-response","trial_index":40,"time_elapsed":183297,"internal_node_id":"0.0-3.0-1.18","subject_id":"59da7e94416c900001ea5b52","study_id":"606233c0e42b980319b6a18e","session_id":"608834f466de15e4ae96c739"},{"rt":4649.5799999684095,"stimulus":"img/umbrella_alternate.jpg","response":"y","image":"img/umbrella_alternate.jpg","old_or_new":"new","task":"recognition","trial_type":"image-keyboard-response","trial_index":41,"time_elapsed":188460,"internal_node_id":"0.0-3.0-0.19","subject_id":"59da7e94416c900001ea5b52","study_id":"606233c0e42b980319b6a18e","session_id":"608834f466de15e4ae96c739","correct":false},{"rt":1275.389999966137,"stimulus":"\n      <p>How sure are you?</p>\n      <p>Rate your confidence in your answer from 1 (pure guess) to 5 (very sure) by pressing the corresponding button.</p>\n     ","response":1,"image":"img/umbrella_alternate.jpg","task":"confidence","old_or_new":"new","trial_type":"html-button-response","trial_index":42,"time_elapsed":189737,"internal_node_id":"0.0-3.0-1.19","subject_id":"59da7e94416c900001ea5b52","study_id":"606233c0e42b980319b6a18e","session_id":"608834f466de15e4ae96c739"},{"rt":1525.789999985136,"stimulus":"img/toaster.jpg","response":"y","image":"img/toaster.jpg","old_or_new":"old","task":"recognition","trial_type":"image-keyboard-response","trial_index":43,"time_elapsed":191773,"internal_node_id":"0.0-3.0-0.20","subject_id":"59da7e94416c900001ea5b52","study_id":"606233c0e42b980319b6a18e","session_id":"608834f466de15e4ae96c739","correct":true},{"rt":1282.439999980852,"stimulus":"\n      <p>How sure are you?</p>\n      <p>Rate your confidence in your answer from 1 (pure guess) to 5 (very sure) by pressing the corresponding button.</p>\n     ","response":1,"image":"img/toaster.jpg","task":"confidence","old_or_new":"old","trial_type":"html-button-response","trial_index":44,"time_elapsed":193057,"internal_node_id":"0.0-3.0-1.20","subject_id":"59da7e94416c900001ea5b52","study_id":"606233c0e42b980319b6a18e","session_id":"608834f466de15e4ae96c739"},{"rt":1665.595000027679,"stimulus":"img/plane.jpg","response":"y","image":"img/plane.jpg","old_or_new":"old","task":"recognition","trial_type":"image-keyboard-response","trial_index":45,"time_elapsed":195236,"internal_node_id":"0.0-3.0-0.21","subject_id":"59da7e94416c900001ea5b52","study_id":"606233c0e42b980319b6a18e","session_id":"608834f466de15e4ae96c739","correct":true},{"rt":1244.440000038594,"stimulus":"\n      <p>How sure are you?</p>\n      <p>Rate your confidence in your answer from 1 (pure guess) to 5 (very sure) by pressing the corresponding button.</p>\n     ","response":0,"image":"img/plane.jpg","task":"confidence","old_or_new":"old","trial_type":"html-button-response","trial_index":46,"time_elapsed":196481,"internal_node_id":"0.0-3.0-1.21","subject_id":"59da7e94416c900001ea5b52","study_id":"606233c0e42b980319b6a18e","session_id":"608834f466de15e4ae96c739"},{"rt":3330.2050000056624,"stimulus":"img/sink.jpg","response":"y","image":"img/sink.jpg","old_or_new":"old","task":"recognition","trial_type":"image-keyboard-response","trial_index":47,"time_elapsed":200313,"internal_node_id":"0.0-3.0-0.22","subject_id":"59da7e94416c900001ea5b52","study_id":"606233c0e42b980319b6a18e","session_id":"608834f466de15e4ae96c739","correct":true},{"rt":1175.1200000289828,"stimulus":"\n      <p>How sure are you?</p>\n      <p>Rate your confidence in your answer from 1 (pure guess) to 5 (very sure) by pressing the corresponding button.</p>\n     ","response":1,"image":"img/sink.jpg","task":"confidence","old_or_new":"old","trial_type":"html-button-response","trial_index":48,"time_elapsed":201489,"internal_node_id":"0.0-3.0-1.22","subject_id":"59da7e94416c900001ea5b52","study_id":"606233c0e42b980319b6a18e","session_id":"608834f466de15e4ae96c739"},{"rt":2901.8799999030307,"stimulus":"img/parfait.jpg","response":"y","image":"img/parfait.jpg","old_or_new":"old","task":"recognition","trial_type":"image-keyboard-response","trial_index":49,"time_elapsed":204908,"internal_node_id":"0.0-3.0-0.23","subject_id":"59da7e94416c900001ea5b52","study_id":"606233c0e42b980319b6a18e","session_id":"608834f466de15e4ae96c739","correct":true},{"rt":1731.910000089556,"stimulus":"\n      <p>How sure are you?</p>\n      <p>Rate your confidence in your answer from 1 (pure guess) to 5 (very sure) by pressing the corresponding button.</p>\n     ","response":2,"image":"img/parfait.jpg","task":"confidence","old_or_new":"old","trial_type":"html-button-response","trial_index":50,"time_elapsed":206641,"internal_node_id":"0.0-3.0-1.23","subject_id":"59da7e94416c900001ea5b52","study_id":"606233c0e42b980319b6a18e","session_id":"608834f466de15e4ae96c739"},{"rt":1289.655000087805,"stimulus":"img/shoe_alternate.jpg","response":"n","image":"img/shoe_alternate.jpg","old_or_new":"new","task":"recognition","trial_type":"image-keyboard-response","trial_index":51,"time_elapsed":208441,"internal_node_id":"0.0-3.0-0.24","subject_id":"59da7e94416c900001ea5b52","study_id":"606233c0e42b980319b6a18e","session_id":"608834f466de15e4ae96c739","correct":true},{"rt":1254.9150000559166,"stimulus":"\n      <p>How sure are you?</p>\n      <p>Rate your confidence in your answer from 1 (pure guess) to 5 (very sure) by pressing the corresponding button.</p>\n     ","response":1,"image":"img/shoe_alternate.jpg","task":"confidence","old_or_new":"new","trial_type":"html-button-response","trial_index":52,"time_elapsed":209697,"internal_node_id":"0.0-3.0-1.24","subject_id":"59da7e94416c900001ea5b52","study_id":"606233c0e42b980319b6a18e","session_id":"608834f466de15e4ae96c739"},{"rt":1967.6400000462309,"stimulus":"img/skates_alternate.jpg","response":"n","image":"img/skates_alternate.jpg","old_or_new":"new","task":"recognition","trial_type":"image-keyboard-response","trial_index":53,"time_elapsed":212169,"internal_node_id":"0.0-3.0-0.25","subject_id":"59da7e94416c900001ea5b52","study_id":"606233c0e42b980319b6a18e","session_id":"608834f466de15e4ae96c739","correct":true},{"rt":1151.2249999213964,"stimulus":"\n      <p>How sure are you?</p>\n      <p>Rate your confidence in your answer from 1 (pure guess) to 5 (very sure) by pressing the corresponding button.</p>\n     ","response":1,"image":"img/skates_alternate.jpg","task":"confidence","old_or_new":"new","trial_type":"html-button-response","trial_index":54,"time_elapsed":213321,"internal_node_id":"0.0-3.0-1.25","subject_id":"59da7e94416c900001ea5b52","study_id":"606233c0e42b980319b6a18e","session_id":"608834f466de15e4ae96c739"},{"rt":4750.770000042394,"stimulus":"img/shirt.jpg","response":"y","image":"img/shirt.jpg","old_or_new":"old","task":"recognition","trial_type":"image-keyboard-response","trial_index":55,"time_elapsed":218584,"internal_node_id":"0.0-3.0-0.26","subject_id":"59da7e94416c900001ea5b52","study_id":"606233c0e42b980319b6a18e","session_id":"608834f466de15e4ae96c739","correct":true},{"rt":1312.4700000043958,"stimulus":"\n      <p>How sure are you?</p>\n      <p>Rate your confidence in your answer from 1 (pure guess) to 5 (very sure) by pressing the corresponding button.</p>\n     ","response":2,"image":"img/shirt.jpg","task":"confidence","old_or_new":"old","trial_type":"html-button-response","trial_index":56,"time_elapsed":219897,"internal_node_id":"0.0-3.0-1.26","subject_id":"59da7e94416c900001ea5b52","study_id":"606233c0e42b980319b6a18e","session_id":"608834f466de15e4ae96c739"},{"rt":1218.2200000388548,"stimulus":"img/shovel_alternate.jpg","response":"y","image":"img/shovel_alternate.jpg","old_or_new":"new","task":"recognition","trial_type":"image-keyboard-response","trial_index":57,"time_elapsed":221632,"internal_node_id":"0.0-3.0-0.27","subject_id":"59da7e94416c900001ea5b52","study_id":"606233c0e42b980319b6a18e","session_id":"608834f466de15e4ae96c739","correct":false},{"rt":1272.179999970831,"stimulus":"\n      <p>How sure are you?</p>\n      <p>Rate your confidence in your answer from 1 (pure guess) to 5 (very sure) by pressing the corresponding button.</p>\n     ","response":1,"image":"img/shovel_alternate.jpg","task":"confidence","old_or_new":"new","trial_type":"html-button-response","trial_index":58,"time_elapsed":222905,"internal_node_id":"0.0-3.0-1.27","subject_id":"59da7e94416c900001ea5b52","study_id":"606233c0e42b980319b6a18e","session_id":"608834f466de15e4ae96c739"},{"rt":1104.1849999455735,"stimulus":"img/trophy_alternate.jpg","response":"n","image":"img/trophy_alternate.jpg","old_or_new":"new","task":"recognition","trial_type":"image-keyboard-response","trial_index":59,"time_elapsed":224522,"internal_node_id":"0.0-3.0-0.28","subject_id":"59da7e94416c900001ea5b52","study_id":"606233c0e42b980319b6a18e","session_id":"608834f466de15e4ae96c739","correct":true},{"rt":1766.0600000526756,"stimulus":"\n      <p>How sure are you?</p>\n      <p>Rate your confidence in your answer from 1 (pure guess) to 5 (very sure) by pressing the corresponding button.</p>\n     ","response":3,"image":"img/trophy_alternate.jpg","task":"confidence","old_or_new":"new","trial_type":"html-button-response","trial_index":60,"time_elapsed":226289,"internal_node_id":"0.0-3.0-1.28","subject_id":"59da7e94416c900001ea5b52","study_id":"606233c0e42b980319b6a18e","session_id":"608834f466de15e4ae96c739"},{"rt":1879.6500000171363,"stimulus":"img/knife.jpg","response":"y","image":"img/knife.jpg","old_or_new":"old","task":"recognition","trial_type":"image-keyboard-response","trial_index":61,"time_elapsed":228673,"internal_node_id":"0.0-3.0-0.29","subject_id":"59da7e94416c900001ea5b52","study_id":"606233c0e42b980319b6a18e","session_id":"608834f466de15e4ae96c739","correct":true},{"rt":1231.290000025183,"stimulus":"\n      <p>How sure are you?</p>\n      <p>Rate your confidence in your answer from 1 (pure guess) to 5 (very sure) by pressing the corresponding button.</p>\n     ","response":4,"image":"img/knife.jpg","task":"confidence","old_or_new":"old","trial_type":"html-button-response","trial_index":62,"time_elapsed":229905,"internal_node_id":"0.0-3.0-1.29","subject_id":"59da7e94416c900001ea5b52","study_id":"606233c0e42b980319b6a18e","session_id":"608834f466de15e4ae96c739"},{"rt":1389.0250000404194,"stimulus":"img/sink_alternate.jpg","response":"n","image":"img/sink_alternate.jpg","old_or_new":"new","task":"recognition","trial_type":"image-keyboard-response","trial_index":63,"time_elapsed":231796,"internal_node_id":"0.0-3.0-0.30","subject_id":"59da7e94416c900001ea5b52","study_id":"606233c0e42b980319b6a18e","session_id":"608834f466de15e4ae96c739","correct":true},{"rt":3612.1600000187755,"stimulus":"\n      <p>How sure are you?</p>\n      <p>Rate your confidence in your answer from 1 (pure guess) to 5 (very sure) by pressing the corresponding button.</p>\n     ","response":2,"image":"img/sink_alternate.jpg","task":"confidence","old_or_new":"new","trial_type":"html-button-response","trial_index":64,"time_elapsed":235409,"internal_node_id":"0.0-3.0-1.30","subject_id":"59da7e94416c900001ea5b52","study_id":"606233c0e42b980319b6a18e","session_id":"608834f466de15e4ae96c739"},{"rt":2062.8149999538437,"stimulus":"img/scissors.jpg","response":"y","image":"img/scissors.jpg","old_or_new":"old","task":"recognition","trial_type":"image-keyboard-response","trial_index":65,"time_elapsed":237977,"internal_node_id":"0.0-3.0-0.31","subject_id":"59da7e94416c900001ea5b52","study_id":"606233c0e42b980319b6a18e","session_id":"608834f466de15e4ae96c739","correct":true},{"rt":1167.2399999806657,"stimulus":"\n      <p>How sure are you?</p>\n      <p>Rate your confidence in your answer from 1 (pure guess) to 5 (very sure) by pressing the corresponding button.</p>\n     ","response":1,"image":"img/scissors.jpg","task":"confidence","old_or_new":"old","trial_type":"html-button-response","trial_index":66,"time_elapsed":239145,"internal_node_id":"0.0-3.0-1.31","subject_id":"59da7e94416c900001ea5b52","study_id":"606233c0e42b980319b6a18e","session_id":"608834f466de15e4ae96c739"},{"rt":1526.5300000319257,"stimulus":"img/tv.jpg","response":"y","image":"img/tv.jpg","old_or_new":"old","task":"recognition","trial_type":"image-keyboard-response","trial_index":67,"time_elapsed":241184,"internal_node_id":"0.0-3.0-0.32","subject_id":"59da7e94416c900001ea5b52","study_id":"606233c0e42b980319b6a18e","session_id":"608834f466de15e4ae96c739","correct":true},{"rt":1256.4049999928102,"stimulus":"\n      <p>How sure are you?</p>\n      <p>Rate your confidence in your answer from 1 (pure guess) to 5 (very sure) by pressing the corresponding button.</p>\n     ","response":2,"image":"img/tv.jpg","task":"confidence","old_or_new":"old","trial_type":"html-button-response","trial_index":68,"time_elapsed":242441,"internal_node_id":"0.0-3.0-1.32","subject_id":"59da7e94416c900001ea5b52","study_id":"606233c0e42b980319b6a18e","session_id":"608834f466de15e4ae96c739"},{"rt":1483.879999956116,"stimulus":"img/wheel_barrow.jpg","response":"y","image":"img/wheel_barrow.jpg","old_or_new":"old","task":"recognition","trial_type":"image-keyboard-response","trial_index":69,"time_elapsed":244437,"internal_node_id":"0.0-3.0-0.33","subject_id":"59da7e94416c900001ea5b52","study_id":"606233c0e42b980319b6a18e","session_id":"608834f466de15e4ae96c739","correct":true},{"rt":1458.6750000016764,"stimulus":"\n      <p>How sure are you?</p>\n      <p>Rate your confidence in your answer from 1 (pure guess) to 5 (very sure) by pressing the corresponding button.</p>\n     ","response":2,"image":"img/wheel_barrow.jpg","task":"confidence","old_or_new":"old","trial_type":"html-button-response","trial_index":70,"time_elapsed":245896,"internal_node_id":"0.0-3.0-1.33","subject_id":"59da7e94416c900001ea5b52","study_id":"606233c0e42b980319b6a18e","session_id":"608834f466de15e4ae96c739"},{"rt":1125.2249999670312,"stimulus":"img/watch_alternate.jpg","response":"n","image":"img/watch_alternate.jpg","old_or_new":"new","task":"recognition","trial_type":"image-keyboard-response","trial_index":71,"time_elapsed":247531,"internal_node_id":"0.0-3.0-0.34","subject_id":"59da7e94416c900001ea5b52","study_id":"606233c0e42b980319b6a18e","session_id":"608834f466de15e4ae96c739","correct":true},{"rt":1172.9050000431016,"stimulus":"\n      <p>How sure are you?</p>\n      <p>Rate your confidence in your answer from 1 (pure guess) to 5 (very sure) by pressing the corresponding button.</p>\n     ","response":2,"image":"img/watch_alternate.jpg","task":"confidence","old_or_new":"new","trial_type":"html-button-response","trial_index":72,"time_elapsed":248705,"internal_node_id":"0.0-3.0-1.34","subject_id":"59da7e94416c900001ea5b52","study_id":"606233c0e42b980319b6a18e","session_id":"608834f466de15e4ae96c739"},{"rt":1291.9900000561029,"stimulus":"img/plane_alternate.jpg","response":"n","image":"img/plane_alternate.jpg","old_or_new":"new","task":"recognition","trial_type":"image-keyboard-response","trial_index":73,"time_elapsed":250496,"internal_node_id":"0.0-3.0-0.35","subject_id":"59da7e94416c900001ea5b52","study_id":"606233c0e42b980319b6a18e","session_id":"608834f466de15e4ae96c739","correct":true},{"rt":1203.3700000029057,"stimulus":"\n      <p>How sure are you?</p>\n      <p>Rate your confidence in your answer from 1 (pure guess) to 5 (very sure) by pressing the corresponding button.</p>\n     ","response":2,"image":"img/plane_alternate.jpg","task":"confidence","old_or_new":"new","trial_type":"html-button-response","trial_index":74,"time_elapsed":251700,"internal_node_id":"0.0-3.0-1.35","subject_id":"59da7e94416c900001ea5b52","study_id":"606233c0e42b980319b6a18e","session_id":"608834f466de15e4ae96c739"},{"rt":1787.4050000682473,"stimulus":"img/knife_alternate.jpg","response":"n","image":"img/knife_alternate.jpg","old_or_new":"new","task":"recognition","trial_type":"image-keyboard-response","trial_index":75,"time_elapsed":253989,"internal_node_id":"0.0-3.0-0.36","subject_id":"59da7e94416c900001ea5b52","study_id":"606233c0e42b980319b6a18e","session_id":"608834f466de15e4ae96c739","correct":true},{"rt":1221.940000075847,"stimulus":"\n      <p>How sure are you?</p>\n      <p>Rate your confidence in your answer from 1 (pure guess) to 5 (very sure) by pressing the corresponding button.</p>\n     ","response":1,"image":"img/knife_alternate.jpg","task":"confidence","old_or_new":"new","trial_type":"html-button-response","trial_index":76,"time_elapsed":255212,"internal_node_id":"0.0-3.0-1.36","subject_id":"59da7e94416c900001ea5b52","study_id":"606233c0e42b980319b6a18e","session_id":"608834f466de15e4ae96c739"},{"rt":3206.0349999228492,"stimulus":"img/toaster_alternate.jpg","response":"y","image":"img/toaster_alternate.jpg","old_or_new":"new","task":"recognition","trial_type":"image-keyboard-response","trial_index":77,"time_elapsed":258933,"internal_node_id":"0.0-3.0-0.37","subject_id":"59da7e94416c900001ea5b52","study_id":"606233c0e42b980319b6a18e","session_id":"608834f466de15e4ae96c739","correct":false},{"rt":1038.0799999693409,"stimulus":"\n      <p>How sure are you?</p>\n      <p>Rate your confidence in your answer from 1 (pure guess) to 5 (very sure) by pressing the corresponding button.</p>\n     ","response":1,"image":"img/toaster_alternate.jpg","task":"confidence","old_or_new":"new","trial_type":"html-button-response","trial_index":78,"time_elapsed":259972,"internal_node_id":"0.0-3.0-1.37","subject_id":"59da7e94416c900001ea5b52","study_id":"606233c0e42b980319b6a18e","session_id":"608834f466de15e4ae96c739"},{"rt":1370.699999970384,"stimulus":"img/skates.jpg","response":"y","image":"img/skates.jpg","old_or_new":"old","task":"recognition","trial_type":"image-keyboard-response","trial_index":79,"time_elapsed":261851,"internal_node_id":"0.0-3.0-0.38","subject_id":"59da7e94416c900001ea5b52","study_id":"606233c0e42b980319b6a18e","session_id":"608834f466de15e4ae96c739","correct":true},{"rt":1159.4800000311807,"stimulus":"\n      <p>How sure are you?</p>\n      <p>Rate your confidence in your answer from 1 (pure guess) to 5 (very sure) by pressing the corresponding button.</p>\n     ","response":3,"image":"img/skates.jpg","task":"confidence","old_or_new":"old","trial_type":"html-button-response","trial_index":80,"time_elapsed":263012,"internal_node_id":"0.0-3.0-1.38","subject_id":"59da7e94416c900001ea5b52","study_id":"606233c0e42b980319b6a18e","session_id":"608834f466de15e4ae96c739"},{"rt":2757.1149999275804,"stimulus":"img/shoe.jpg","response":"n","image":"img/shoe.jpg","old_or_new":"old","task":"recognition","trial_type":"image-keyboard-response","trial_index":81,"time_elapsed":266288,"internal_node_id":"0.0-3.0-0.39","subject_id":"59da7e94416c900001ea5b52","study_id":"606233c0e42b980319b6a18e","session_id":"608834f466de15e4ae96c739","correct":false},{"rt":882.5100000249222,"stimulus":"\n      <p>How sure are you?</p>\n      <p>Rate your confidence in your answer from 1 (pure guess) to 5 (very sure) by pressing the corresponding button.</p>\n     ","response":1,"image":"img/shoe.jpg","task":"confidence","old_or_new":"old","trial_type":"html-button-response","trial_index":82,"time_elapsed":267172,"internal_node_id":"0.0-3.0-1.39","subject_id":"59da7e94416c900001ea5b52","study_id":"606233c0e42b980319b6a18e","session_id":"608834f466de15e4ae96c739"},{"rt":1851.7350000329316,"stimulus":"img/pizza.jpg","response":"y","image":"img/pizza.jpg","old_or_new":"old","task":"recognition","trial_type":"image-keyboard-response","trial_index":83,"time_elapsed":269529,"internal_node_id":"0.0-3.0-0.40","subject_id":"59da7e94416c900001ea5b52","study_id":"606233c0e42b980319b6a18e","session_id":"608834f466de15e4ae96c739","correct":true},{"rt":801.8900000024587,"stimulus":"\n      <p>How sure are you?</p>\n      <p>Rate your confidence in your answer from 1 (pure guess) to 5 (very sure) by pressing the corresponding button.</p>\n     ","response":3,"image":"img/pizza.jpg","task":"confidence","old_or_new":"old","trial_type":"html-button-response","trial_index":84,"time_elapsed":270332,"internal_node_id":"0.0-3.0-1.40","subject_id":"59da7e94416c900001ea5b52","study_id":"606233c0e42b980319b6a18e","session_id":"608834f466de15e4ae96c739"},{"rt":1407.4949999339879,"stimulus":"img/seashell_alternate.jpg","response":"n","image":"img/seashell_alternate.jpg","old_or_new":"new","task":"recognition","trial_type":"image-keyboard-response","trial_index":85,"time_elapsed":272252,"internal_node_id":"0.0-3.0-0.41","subject_id":"59da7e94416c900001ea5b52","study_id":"606233c0e42b980319b6a18e","session_id":"608834f466de15e4ae96c739","correct":true},{"rt":822.7249999763444,"stimulus":"\n      <p>How sure are you?</p>\n      <p>Rate your confidence in your answer from 1 (pure guess) to 5 (very sure) by pressing the corresponding button.</p>\n     ","response":3,"image":"img/seashell_alternate.jpg","task":"confidence","old_or_new":"new","trial_type":"html-button-response","trial_index":86,"time_elapsed":273076,"internal_node_id":"0.0-3.0-1.41","subject_id":"59da7e94416c900001ea5b52","study_id":"606233c0e42b980319b6a18e","session_id":"608834f466de15e4ae96c739"},{"rt":1520.5099999438971,"stimulus":"img/toothbrush.jpg","response":"n","image":"img/toothbrush.jpg","old_or_new":"old","task":"recognition","trial_type":"image-keyboard-response","trial_index":87,"time_elapsed":275102,"internal_node_id":"0.0-3.0-0.42","subject_id":"59da7e94416c900001ea5b52","study_id":"606233c0e42b980319b6a18e","session_id":"608834f466de15e4ae96c739","correct":false},{"rt":733.5699999239296,"stimulus":"\n      <p>How sure are you?</p>\n      <p>Rate your confidence in your answer from 1 (pure guess) to 5 (very sure) by pressing the corresponding button.</p>\n     ","response":1,"image":"img/toothbrush.jpg","task":"confidence","old_or_new":"old","trial_type":"html-button-response","trial_index":88,"time_elapsed":275836,"internal_node_id":"0.0-3.0-1.42","subject_id":"59da7e94416c900001ea5b52","study_id":"606233c0e42b980319b6a18e","session_id":"608834f466de15e4ae96c739"},{"rt":1708.0099999438971,"stimulus":"img/power_cord_alternate.jpg","response":"n","image":"img/power_cord_alternate.jpg","old_or_new":"new","task":"recognition","trial_type":"image-keyboard-response","trial_index":89,"time_elapsed":278059,"internal_node_id":"0.0-3.0-0.43","subject_id":"59da7e94416c900001ea5b52","study_id":"606233c0e42b980319b6a18e","session_id":"608834f466de15e4ae96c739","correct":true},{"rt":1327.7300000190735,"stimulus":"\n      <p>How sure are you?</p>\n      <p>Rate your confidence in your answer from 1 (pure guess) to 5 (very sure) by pressing the corresponding button.</p>\n     ","response":1,"image":"img/power_cord_alternate.jpg","task":"confidence","old_or_new":"new","trial_type":"html-button-response","trial_index":90,"time_elapsed":279388,"internal_node_id":"0.0-3.0-1.43","subject_id":"59da7e94416c900001ea5b52","study_id":"606233c0e42b980319b6a18e","session_id":"608834f466de15e4ae96c739"},{"rt":1621.2900000391528,"stimulus":"img/scissors_alternate.jpg","response":"n","image":"img/scissors_alternate.jpg","old_or_new":"new","task":"recognition","trial_type":"image-keyboard-response","trial_index":91,"time_elapsed":281516,"internal_node_id":"0.0-3.0-0.44","subject_id":"59da7e94416c900001ea5b52","study_id":"606233c0e42b980319b6a18e","session_id":"608834f466de15e4ae96c739","correct":true},{"rt":2879.2849999153987,"stimulus":"\n      <p>How sure are you?</p>\n      <p>Rate your confidence in your answer from 1 (pure guess) to 5 (very sure) by pressing the corresponding button.</p>\n     ","response":2,"image":"img/scissors_alternate.jpg","task":"confidence","old_or_new":"new","trial_type":"html-button-response","trial_index":92,"time_elapsed":284396,"internal_node_id":"0.0-3.0-1.44","subject_id":"59da7e94416c900001ea5b52","study_id":"606233c0e42b980319b6a18e","session_id":"608834f466de15e4ae96c739"},{"rt":2231.5350000280887,"stimulus":"img/rolling_pin.jpg","response":"y","image":"img/rolling_pin.jpg","old_or_new":"old","task":"recognition","trial_type":"image-keyboard-response","trial_index":93,"time_elapsed":287138,"internal_node_id":"0.0-3.0-0.45","subject_id":"59da7e94416c900001ea5b52","study_id":"606233c0e42b980319b6a18e","session_id":"608834f466de15e4ae96c739","correct":true},{"rt":1053.3900000154972,"stimulus":"\n      <p>How sure are you?</p>\n      <p>Rate your confidence in your answer from 1 (pure guess) to 5 (very sure) by pressing the corresponding button.</p>\n     ","response":1,"image":"img/rolling_pin.jpg","task":"confidence","old_or_new":"old","trial_type":"html-button-response","trial_index":94,"time_elapsed":288196,"internal_node_id":"0.0-3.0-1.45","subject_id":"59da7e94416c900001ea5b52","study_id":"606233c0e42b980319b6a18e","session_id":"608834f466de15e4ae96c739"},{"rt":1318.0699999211356,"stimulus":"img/umbrella.jpg","response":"n","image":"img/umbrella.jpg","old_or_new":"old","task":"recognition","trial_type":"image-keyboard-response","trial_index":95,"time_elapsed":290017,"internal_node_id":"0.0-3.0-0.46","subject_id":"59da7e94416c900001ea5b52","study_id":"606233c0e42b980319b6a18e","session_id":"608834f466de15e4ae96c739","correct":false},{"rt":994.1799999214709,"stimulus":"\n      <p>How sure are you?</p>\n      <p>Rate your confidence in your answer from 1 (pure guess) to 5 (very sure) by pressing the corresponding button.</p>\n     ","response":1,"image":"img/umbrella.jpg","task":"confidence","old_or_new":"old","trial_type":"html-button-response","trial_index":96,"time_elapsed":291012,"internal_node_id":"0.0-3.0-1.46","subject_id":"59da7e94416c900001ea5b52","study_id":"606233c0e42b980319b6a18e","session_id":"608834f466de15e4ae96c739"},{"rt":2487.88999998942,"stimulus":"img/spoon.jpg","response":"y","image":"img/spoon.jpg","old_or_new":"old","task":"recognition","trial_type":"image-keyboard-response","trial_index":97,"time_elapsed":294009,"internal_node_id":"0.0-3.0-0.47","subject_id":"59da7e94416c900001ea5b52","study_id":"606233c0e42b980319b6a18e","session_id":"608834f466de15e4ae96c739","correct":true},{"rt":929.5549999224022,"stimulus":"\n      <p>How sure are you?</p>\n      <p>Rate your confidence in your answer from 1 (pure guess) to 5 (very sure) by pressing the corresponding button.</p>\n     ","response":3,"image":"img/spoon.jpg","task":"confidence","old_or_new":"old","trial_type":"html-button-response","trial_index":98,"time_elapsed":294940,"internal_node_id":"0.0-3.0-1.47","subject_id":"59da7e94416c900001ea5b52","study_id":"606233c0e42b980319b6a18e","session_id":"608834f466de15e4ae96c739"}]