[{"success":true,"timeout":false,"failed_images":[],"failed_audio":[],"failed_video":[],"trial_type":"preload","trial_index":0,"time_elapsed":4610,"internal_node_id":"0.0-0.0","subject_id":"5e860bb370750d21693ed668","study_id":"607de2837874a824e2e8c6ec","session_id":"608850048ee835af36070167"},{"rt":395058.50500000094,"stimulus":"\n      <div style=\"width:800px; text-align: left;\">\n        <p>Welcome to day 2 of the experiment! Thanks for coming back.</p>\n        <p>You will be presented with a series of images. Images will appear one at a time.</p>\n        <p>Each image will remain on the screen until you press either <span style=\"font-weight: bold;\">\"y\" to indicate you have seen the \n        exact same photo the day before or \"n\" to indicate you have not seen the exact same photo the day before.</span></p>\n        <p>After you answer yes (\"y\") or no (\"n\"), you will then be prompted to rate your certainty on a scale of\n        1 (pure guess) to 5 (very sure).</p>\n      </div>\n    ","response":0,"trial_type":"html-button-response","trial_index":1,"time_elapsed":399670,"internal_node_id":"0.0-1.0","subject_id":"5e860bb370750d21693ed668","study_id":"607de2837874a824e2e8c6ec","session_id":"608850048ee835af36070167"},{"success":true,"trial_type":"fullscreen","trial_index":2,"time_elapsed":402387,"internal_node_id":"0.0-2.0","subject_id":"5e860bb370750d21693ed668","study_id":"607de2837874a824e2e8c6ec","session_id":"608850048ee835af36070167"},{"rt":11873.680000000575,"stimulus":"img/camera.jpg","response":"y","image":"img/camera.jpg","old_or_new":"old","task":"recognition","trial_type":"image-keyboard-response","trial_index":3,"time_elapsed":414267,"internal_node_id":"0.0-3.0-0.0","subject_id":"5e860bb370750d21693ed668","study_id":"607de2837874a824e2e8c6ec","session_id":"608850048ee835af36070167","correct":true},{"rt":2424.2449999983073,"stimulus":"\n      <p>How sure are you?</p>\n      <p>Rate your confidence in your answer from 1 (pure guess) to 5 (very sure) by pressing the corresponding button.</p>\n     ","response":3,"image":"img/camera.jpg","task":"confidence","old_or_new":"old","trial_type":"html-button-response","trial_index":4,"time_elapsed":416692,"internal_node_id":"0.0-3.0-1.0","subject_id":"5e860bb370750d21693ed668","study_id":"607de2837874a824e2e8c6ec","session_id":"608850048ee835af36070167"},{"rt":3521.8349999995553,"stimulus":"img/dryer_alternate.jpg","response":"y","image":"img/dryer_alternate.jpg","old_or_new":"new","task":"recognition","trial_type":"image-keyboard-response","trial_index":5,"time_elapsed":420720,"internal_node_id":"0.0-3.0-0.1","subject_id":"5e860bb370750d21693ed668","study_id":"607de2837874a824e2e8c6ec","session_id":"608850048ee835af36070167","correct":false},{"rt":1478.9449999989592,"stimulus":"\n      <p>How sure are you?</p>\n      <p>Rate your confidence in your answer from 1 (pure guess) to 5 (very sure) by pressing the corresponding button.</p>\n     ","response":2,"image":"img/dryer_alternate.jpg","task":"confidence","old_or_new":"new","trial_type":"html-button-response","trial_index":6,"time_elapsed":422200,"internal_node_id":"0.0-3.0-1.1","subject_id":"5e860bb370750d21693ed668","study_id":"607de2837874a824e2e8c6ec","session_id":"608850048ee835af36070167"},{"rt":1382.050000000163,"stimulus":"img/globe.jpg","response":"y","image":"img/globe.jpg","old_or_new":"old","task":"recognition","trial_type":"image-keyboard-response","trial_index":7,"time_elapsed":424085,"internal_node_id":"0.0-3.0-0.2","subject_id":"5e860bb370750d21693ed668","study_id":"607de2837874a824e2e8c6ec","session_id":"608850048ee835af36070167","correct":true},{"rt":759.2949999998091,"stimulus":"\n      <p>How sure are you?</p>\n      <p>Rate your confidence in your answer from 1 (pure guess) to 5 (very sure) by pressing the corresponding button.</p>\n     ","response":4,"image":"img/globe.jpg","task":"confidence","old_or_new":"old","trial_type":"html-button-response","trial_index":8,"time_elapsed":424846,"internal_node_id":"0.0-3.0-1.2","subject_id":"5e860bb370750d21693ed668","study_id":"607de2837874a824e2e8c6ec","session_id":"608850048ee835af36070167"},{"rt":2318.315000000468,"stimulus":"img/chair.jpg","response":"n","image":"img/chair.jpg","old_or_new":"old","task":"recognition","trial_type":"image-keyboard-response","trial_index":9,"time_elapsed":427672,"internal_node_id":"0.0-3.0-0.3","subject_id":"5e860bb370750d21693ed668","study_id":"607de2837874a824e2e8c6ec","session_id":"608850048ee835af36070167","correct":false},{"rt":620.0649999991874,"stimulus":"\n      <p>How sure are you?</p>\n      <p>Rate your confidence in your answer from 1 (pure guess) to 5 (very sure) by pressing the corresponding button.</p>\n     ","response":3,"image":"img/chair.jpg","task":"confidence","old_or_new":"old","trial_type":"html-button-response","trial_index":10,"time_elapsed":428293,"internal_node_id":"0.0-3.0-1.3","subject_id":"5e860bb370750d21693ed668","study_id":"607de2837874a824e2e8c6ec","session_id":"608850048ee835af36070167"},{"rt":1695.4000000005472,"stimulus":"img/hourglass_alternate.jpg","response":"y","image":"img/hourglass_alternate.jpg","old_or_new":"new","task":"recognition","trial_type":"image-keyboard-response","trial_index":11,"time_elapsed":430504,"internal_node_id":"0.0-3.0-0.4","subject_id":"5e860bb370750d21693ed668","study_id":"607de2837874a824e2e8c6ec","session_id":"608850048ee835af36070167","correct":false},{"rt":607.3299999989104,"stimulus":"\n      <p>How sure are you?</p>\n      <p>Rate your confidence in your answer from 1 (pure guess) to 5 (very sure) by pressing the corresponding button.</p>\n     ","response":3,"image":"img/hourglass_alternate.jpg","task":"confidence","old_or_new":"new","trial_type":"html-button-response","trial_index":12,"time_elapsed":431113,"internal_node_id":"0.0-3.0-1.4","subject_id":"5e860bb370750d21693ed668","study_id":"607de2837874a824e2e8c6ec","session_id":"608850048ee835af36070167"},{"rt":2719.2649999996647,"stimulus":"img/apple_alternate.jpg","response":"n","image":"img/apple_alternate.jpg","old_or_new":"new","task":"recognition","trial_type":"image-keyboard-response","trial_index":13,"time_elapsed":434342,"internal_node_id":"0.0-3.0-0.5","subject_id":"5e860bb370750d21693ed668","study_id":"607de2837874a824e2e8c6ec","session_id":"608850048ee835af36070167","correct":true},{"rt":1671.78000000061,"stimulus":"\n      <p>How sure are you?</p>\n      <p>Rate your confidence in your answer from 1 (pure guess) to 5 (very sure) by pressing the corresponding button.</p>\n     ","response":3,"image":"img/apple_alternate.jpg","task":"confidence","old_or_new":"new","trial_type":"html-button-response","trial_index":14,"time_elapsed":436014,"internal_node_id":"0.0-3.0-1.5","subject_id":"5e860bb370750d21693ed668","study_id":"607de2837874a824e2e8c6ec","session_id":"608850048ee835af36070167"},{"rt":1196.2399999974878,"stimulus":"img/camera_alternate.jpg","response":"n","image":"img/camera_alternate.jpg","old_or_new":"new","task":"recognition","trial_type":"image-keyboard-response","trial_index":15,"time_elapsed":437719,"internal_node_id":"0.0-3.0-0.6","subject_id":"5e860bb370750d21693ed668","study_id":"607de2837874a824e2e8c6ec","session_id":"608850048ee835af36070167","correct":true},{"rt":569.294999997539,"stimulus":"\n      <p>How sure are you?</p>\n      <p>Rate your confidence in your answer from 1 (pure guess) to 5 (very sure) by pressing the corresponding button.</p>\n     ","response":4,"image":"img/camera_alternate.jpg","task":"confidence","old_or_new":"new","trial_type":"html-button-response","trial_index":16,"time_elapsed":438289,"internal_node_id":"0.0-3.0-1.6","subject_id":"5e860bb370750d21693ed668","study_id":"607de2837874a824e2e8c6ec","session_id":"608850048ee835af36070167"},{"rt":1947.8850000014063,"stimulus":"img/grapes.jpg","response":"y","image":"img/grapes.jpg","old_or_new":"old","task":"recognition","trial_type":"image-keyboard-response","trial_index":17,"time_elapsed":440743,"internal_node_id":"0.0-3.0-0.7","subject_id":"5e860bb370750d21693ed668","study_id":"607de2837874a824e2e8c6ec","session_id":"608850048ee835af36070167","correct":true},{"rt":788.700000000943,"stimulus":"\n      <p>How sure are you?</p>\n      <p>Rate your confidence in your answer from 1 (pure guess) to 5 (very sure) by pressing the corresponding button.</p>\n     ","response":3,"image":"img/grapes.jpg","task":"confidence","old_or_new":"old","trial_type":"html-button-response","trial_index":18,"time_elapsed":441533,"internal_node_id":"0.0-3.0-1.7","subject_id":"5e860bb370750d21693ed668","study_id":"607de2837874a824e2e8c6ec","session_id":"608850048ee835af36070167"},{"rt":1358.360000001965,"stimulus":"img/calculator_alternate.jpg","response":"n","image":"img/calculator_alternate.jpg","old_or_new":"new","task":"recognition","trial_type":"image-keyboard-response","trial_index":19,"time_elapsed":443396,"internal_node_id":"0.0-3.0-0.8","subject_id":"5e860bb370750d21693ed668","study_id":"607de2837874a824e2e8c6ec","session_id":"608850048ee835af36070167","correct":true},{"rt":574.2499999979045,"stimulus":"\n      <p>How sure are you?</p>\n      <p>Rate your confidence in your answer from 1 (pure guess) to 5 (very sure) by pressing the corresponding button.</p>\n     ","response":2,"image":"img/calculator_alternate.jpg","task":"confidence","old_or_new":"new","trial_type":"html-button-response","trial_index":20,"time_elapsed":443971,"internal_node_id":"0.0-3.0-1.8","subject_id":"5e860bb370750d21693ed668","study_id":"607de2837874a824e2e8c6ec","session_id":"608850048ee835af36070167"},{"rt":1172.0950000017183,"stimulus":"img/leaf_alternate.jpg","response":"n","image":"img/leaf_alternate.jpg","old_or_new":"new","task":"recognition","trial_type":"image-keyboard-response","trial_index":21,"time_elapsed":445651,"internal_node_id":"0.0-3.0-0.9","subject_id":"5e860bb370750d21693ed668","study_id":"607de2837874a824e2e8c6ec","session_id":"608850048ee835af36070167","correct":true},{"rt":535.3700000014505,"stimulus":"\n      <p>How sure are you?</p>\n      <p>Rate your confidence in your answer from 1 (pure guess) to 5 (very sure) by pressing the corresponding button.</p>\n     ","response":4,"image":"img/leaf_alternate.jpg","task":"confidence","old_or_new":"new","trial_type":"html-button-response","trial_index":22,"time_elapsed":446187,"internal_node_id":"0.0-3.0-1.9","subject_id":"5e860bb370750d21693ed668","study_id":"607de2837874a824e2e8c6ec","session_id":"608850048ee835af36070167"},{"rt":1323.3250000011758,"stimulus":"img/lightbulb_alternate.jpg","response":"n","image":"img/lightbulb_alternate.jpg","old_or_new":"new","task":"recognition","trial_type":"image-keyboard-response","trial_index":23,"time_elapsed":448023,"internal_node_id":"0.0-3.0-0.10","subject_id":"5e860bb370750d21693ed668","study_id":"607de2837874a824e2e8c6ec","session_id":"608850048ee835af36070167","correct":true},{"rt":748.3699999975506,"stimulus":"\n      <p>How sure are you?</p>\n      <p>Rate your confidence in your answer from 1 (pure guess) to 5 (very sure) by pressing the corresponding button.</p>\n     ","response":4,"image":"img/lightbulb_alternate.jpg","task":"confidence","old_or_new":"new","trial_type":"html-button-response","trial_index":24,"time_elapsed":448772,"internal_node_id":"0.0-3.0-1.10","subject_id":"5e860bb370750d21693ed668","study_id":"607de2837874a824e2e8c6ec","session_id":"608850048ee835af36070167"},{"rt":828.0400000003283,"stimulus":"img/folder_alternate.jpg","response":"n","image":"img/folder_alternate.jpg","old_or_new":"new","task":"recognition","trial_type":"image-keyboard-response","trial_index":25,"time_elapsed":450107,"internal_node_id":"0.0-3.0-0.11","subject_id":"5e860bb370750d21693ed668","study_id":"607de2837874a824e2e8c6ec","session_id":"608850048ee835af36070167","correct":true},{"rt":751.3399999989197,"stimulus":"\n      <p>How sure are you?</p>\n      <p>Rate your confidence in your answer from 1 (pure guess) to 5 (very sure) by pressing the corresponding button.</p>\n     ","response":3,"image":"img/folder_alternate.jpg","task":"confidence","old_or_new":"new","trial_type":"html-button-response","trial_index":26,"time_elapsed":450859,"internal_node_id":"0.0-3.0-1.11","subject_id":"5e860bb370750d21693ed668","study_id":"607de2837874a824e2e8c6ec","session_id":"608850048ee835af36070167"},{"rt":732.7000000004773,"stimulus":"img/ladder.jpg","response":"n","image":"img/ladder.jpg","old_or_new":"old","task":"recognition","trial_type":"image-keyboard-response","trial_index":27,"time_elapsed":452105,"internal_node_id":"0.0-3.0-0.12","subject_id":"5e860bb370750d21693ed668","study_id":"607de2837874a824e2e8c6ec","session_id":"608850048ee835af36070167","correct":false},{"rt":3145.6150000012713,"stimulus":"\n      <p>How sure are you?</p>\n      <p>Rate your confidence in your answer from 1 (pure guess) to 5 (very sure) by pressing the corresponding button.</p>\n     ","response":0,"image":"img/ladder.jpg","task":"confidence","old_or_new":"old","trial_type":"html-button-response","trial_index":28,"time_elapsed":455251,"internal_node_id":"0.0-3.0-1.12","subject_id":"5e860bb370750d21693ed668","study_id":"607de2837874a824e2e8c6ec","session_id":"608850048ee835af36070167"},{"rt":2036.5899999996764,"stimulus":"img/hat.jpg","response":"y","image":"img/hat.jpg","old_or_new":"old","task":"recognition","trial_type":"image-keyboard-response","trial_index":29,"time_elapsed":457796,"internal_node_id":"0.0-3.0-0.13","subject_id":"5e860bb370750d21693ed668","study_id":"607de2837874a824e2e8c6ec","session_id":"608850048ee835af36070167","correct":true},{"rt":815.0449999993434,"stimulus":"\n      <p>How sure are you?</p>\n      <p>Rate your confidence in your answer from 1 (pure guess) to 5 (very sure) by pressing the corresponding button.</p>\n     ","response":3,"image":"img/hat.jpg","task":"confidence","old_or_new":"old","trial_type":"html-button-response","trial_index":30,"time_elapsed":458612,"internal_node_id":"0.0-3.0-1.13","subject_id":"5e860bb370750d21693ed668","study_id":"607de2837874a824e2e8c6ec","session_id":"608850048ee835af36070167"},{"rt":919.1900000005262,"stimulus":"img/drum_alternate.jpg","response":"n","image":"img/drum_alternate.jpg","old_or_new":"new","task":"recognition","trial_type":"image-keyboard-response","trial_index":31,"time_elapsed":460047,"internal_node_id":"0.0-3.0-0.14","subject_id":"5e860bb370750d21693ed668","study_id":"607de2837874a824e2e8c6ec","session_id":"608850048ee835af36070167","correct":true},{"rt":467.3100000000559,"stimulus":"\n      <p>How sure are you?</p>\n      <p>Rate your confidence in your answer from 1 (pure guess) to 5 (very sure) by pressing the corresponding button.</p>\n     ","response":4,"image":"img/drum_alternate.jpg","task":"confidence","old_or_new":"new","trial_type":"html-button-response","trial_index":32,"time_elapsed":460515,"internal_node_id":"0.0-3.0-1.14","subject_id":"5e860bb370750d21693ed668","study_id":"607de2837874a824e2e8c6ec","session_id":"608850048ee835af36070167"},{"rt":1484.6200000029057,"stimulus":"img/basket_alternate.jpg","response":"n","image":"img/basket_alternate.jpg","old_or_new":"new","task":"recognition","trial_type":"image-keyboard-response","trial_index":33,"time_elapsed":462502,"internal_node_id":"0.0-3.0-0.15","subject_id":"5e860bb370750d21693ed668","study_id":"607de2837874a824e2e8c6ec","session_id":"608850048ee835af36070167","correct":true},{"rt":659.4350000013947,"stimulus":"\n      <p>How sure are you?</p>\n      <p>Rate your confidence in your answer from 1 (pure guess) to 5 (very sure) by pressing the corresponding button.</p>\n     ","response":3,"image":"img/basket_alternate.jpg","task":"confidence","old_or_new":"new","trial_type":"html-button-response","trial_index":34,"time_elapsed":463162,"internal_node_id":"0.0-3.0-1.15","subject_id":"5e860bb370750d21693ed668","study_id":"607de2837874a824e2e8c6ec","session_id":"608850048ee835af36070167"},{"rt":1590.8399999971152,"stimulus":"img/folder.jpg","response":"y","image":"img/folder.jpg","old_or_new":"old","task":"recognition","trial_type":"image-keyboard-response","trial_index":35,"time_elapsed":465261,"internal_node_id":"0.0-3.0-0.16","subject_id":"5e860bb370750d21693ed668","study_id":"607de2837874a824e2e8c6ec","session_id":"608850048ee835af36070167","correct":true},{"rt":580.4499999976251,"stimulus":"\n      <p>How sure are you?</p>\n      <p>Rate your confidence in your answer from 1 (pure guess) to 5 (very sure) by pressing the corresponding button.</p>\n     ","response":3,"image":"img/folder.jpg","task":"confidence","old_or_new":"old","trial_type":"html-button-response","trial_index":36,"time_elapsed":465842,"internal_node_id":"0.0-3.0-1.16","subject_id":"5e860bb370750d21693ed668","study_id":"607de2837874a824e2e8c6ec","session_id":"608850048ee835af36070167"},{"rt":2612.4400000008172,"stimulus":"img/calculator.jpg","response":"y","image":"img/calculator.jpg","old_or_new":"old","task":"recognition","trial_type":"image-keyboard-response","trial_index":37,"time_elapsed":468970,"internal_node_id":"0.0-3.0-0.17","subject_id":"5e860bb370750d21693ed668","study_id":"607de2837874a824e2e8c6ec","session_id":"608850048ee835af36070167","correct":true},{"rt":466.4299999967334,"stimulus":"\n      <p>How sure are you?</p>\n      <p>Rate your confidence in your answer from 1 (pure guess) to 5 (very sure) by pressing the corresponding button.</p>\n     ","response":3,"image":"img/calculator.jpg","task":"confidence","old_or_new":"old","trial_type":"html-button-response","trial_index":38,"time_elapsed":469437,"internal_node_id":"0.0-3.0-1.17","subject_id":"5e860bb370750d21693ed668","study_id":"607de2837874a824e2e8c6ec","session_id":"608850048ee835af36070167"},{"rt":814.7349999999278,"stimulus":"img/glasses_alternate.jpg","response":"n","image":"img/glasses_alternate.jpg","old_or_new":"new","task":"recognition","trial_type":"image-keyboard-response","trial_index":39,"time_elapsed":470756,"internal_node_id":"0.0-3.0-0.18","subject_id":"5e860bb370750d21693ed668","study_id":"607de2837874a824e2e8c6ec","session_id":"608850048ee835af36070167","correct":true},{"rt":435.84499999997206,"stimulus":"\n      <p>How sure are you?</p>\n      <p>Rate your confidence in your answer from 1 (pure guess) to 5 (very sure) by pressing the corresponding button.</p>\n     ","response":3,"image":"img/glasses_alternate.jpg","task":"confidence","old_or_new":"new","trial_type":"html-button-response","trial_index":40,"time_elapsed":471193,"internal_node_id":"0.0-3.0-1.18","subject_id":"5e860bb370750d21693ed668","study_id":"607de2837874a824e2e8c6ec","session_id":"608850048ee835af36070167"},{"rt":1058.8600000009756,"stimulus":"img/hat_alternate.jpg","response":"n","image":"img/hat_alternate.jpg","old_or_new":"new","task":"recognition","trial_type":"image-keyboard-response","trial_index":41,"time_elapsed":472756,"internal_node_id":"0.0-3.0-0.19","subject_id":"5e860bb370750d21693ed668","study_id":"607de2837874a824e2e8c6ec","session_id":"608850048ee835af36070167","correct":true},{"rt":387.0099999985541,"stimulus":"\n      <p>How sure are you?</p>\n      <p>Rate your confidence in your answer from 1 (pure guess) to 5 (very sure) by pressing the corresponding button.</p>\n     ","response":3,"image":"img/hat_alternate.jpg","task":"confidence","old_or_new":"new","trial_type":"html-button-response","trial_index":42,"time_elapsed":473144,"internal_node_id":"0.0-3.0-1.19","subject_id":"5e860bb370750d21693ed668","study_id":"607de2837874a824e2e8c6ec","session_id":"608850048ee835af36070167"},{"rt":2769.0699999984354,"stimulus":"img/key.jpg","response":"y","image":"img/key.jpg","old_or_new":"old","task":"recognition","trial_type":"image-keyboard-response","trial_index":43,"time_elapsed":476422,"internal_node_id":"0.0-3.0-0.20","subject_id":"5e860bb370750d21693ed668","study_id":"607de2837874a824e2e8c6ec","session_id":"608850048ee835af36070167","correct":true},{"rt":582.3450000025332,"stimulus":"\n      <p>How sure are you?</p>\n      <p>Rate your confidence in your answer from 1 (pure guess) to 5 (very sure) by pressing the corresponding button.</p>\n     ","response":4,"image":"img/key.jpg","task":"confidence","old_or_new":"old","trial_type":"html-button-response","trial_index":44,"time_elapsed":477005,"internal_node_id":"0.0-3.0-1.20","subject_id":"5e860bb370750d21693ed668","study_id":"607de2837874a824e2e8c6ec","session_id":"608850048ee835af36070167"},{"rt":807.3650000005728,"stimulus":"img/hourglass.jpg","response":"y","image":"img/hourglass.jpg","old_or_new":"old","task":"recognition","trial_type":"image-keyboard-response","trial_index":45,"time_elapsed":478327,"internal_node_id":"0.0-3.0-0.21","subject_id":"5e860bb370750d21693ed668","study_id":"607de2837874a824e2e8c6ec","session_id":"608850048ee835af36070167","correct":true},{"rt":396.3000000003376,"stimulus":"\n      <p>How sure are you?</p>\n      <p>Rate your confidence in your answer from 1 (pure guess) to 5 (very sure) by pressing the corresponding button.</p>\n     ","response":4,"image":"img/hourglass.jpg","task":"confidence","old_or_new":"old","trial_type":"html-button-response","trial_index":46,"time_elapsed":478724,"internal_node_id":"0.0-3.0-1.21","subject_id":"5e860bb370750d21693ed668","study_id":"607de2837874a824e2e8c6ec","session_id":"608850048ee835af36070167"},{"rt":739.414999999979,"stimulus":"img/backpack_alternate.jpg","response":"n","image":"img/backpack_alternate.jpg","old_or_new":"new","task":"recognition","trial_type":"image-keyboard-response","trial_index":47,"time_elapsed":479964,"internal_node_id":"0.0-3.0-0.22","subject_id":"5e860bb370750d21693ed668","study_id":"607de2837874a824e2e8c6ec","session_id":"608850048ee835af36070167","correct":true},{"rt":554.9249999967869,"stimulus":"\n      <p>How sure are you?</p>\n      <p>Rate your confidence in your answer from 1 (pure guess) to 5 (very sure) by pressing the corresponding button.</p>\n     ","response":3,"image":"img/backpack_alternate.jpg","task":"confidence","old_or_new":"new","trial_type":"html-button-response","trial_index":48,"time_elapsed":480521,"internal_node_id":"0.0-3.0-1.22","subject_id":"5e860bb370750d21693ed668","study_id":"607de2837874a824e2e8c6ec","session_id":"608850048ee835af36070167"},{"rt":1359.3199999995995,"stimulus":"img/ladder_alternate.jpg","response":"n","image":"img/ladder_alternate.jpg","old_or_new":"new","task":"recognition","trial_type":"image-keyboard-response","trial_index":49,"time_elapsed":482396,"internal_node_id":"0.0-3.0-0.23","subject_id":"5e860bb370750d21693ed668","study_id":"607de2837874a824e2e8c6ec","session_id":"608850048ee835af36070167","correct":true},{"rt":519.3499999986379,"stimulus":"\n      <p>How sure are you?</p>\n      <p>Rate your confidence in your answer from 1 (pure guess) to 5 (very sure) by pressing the corresponding button.</p>\n     ","response":3,"image":"img/ladder_alternate.jpg","task":"confidence","old_or_new":"new","trial_type":"html-button-response","trial_index":50,"time_elapsed":482916,"internal_node_id":"0.0-3.0-1.23","subject_id":"5e860bb370750d21693ed668","study_id":"607de2837874a824e2e8c6ec","session_id":"608850048ee835af36070167"},{"rt":1088.080000001355,"stimulus":"img/globe_alternate.jpg","response":"n","image":"img/globe_alternate.jpg","old_or_new":"new","task":"recognition","trial_type":"image-keyboard-response","trial_index":51,"time_elapsed":484513,"internal_node_id":"0.0-3.0-0.24","subject_id":"5e860bb370750d21693ed668","study_id":"607de2837874a824e2e8c6ec","session_id":"608850048ee835af36070167","correct":true},{"rt":444.2349999989965,"stimulus":"\n      <p>How sure are you?</p>\n      <p>Rate your confidence in your answer from 1 (pure guess) to 5 (very sure) by pressing the corresponding button.</p>\n     ","response":3,"image":"img/globe_alternate.jpg","task":"confidence","old_or_new":"new","trial_type":"html-button-response","trial_index":52,"time_elapsed":484958,"internal_node_id":"0.0-3.0-1.24","subject_id":"5e860bb370750d21693ed668","study_id":"607de2837874a824e2e8c6ec","session_id":"608850048ee835af36070167"},{"rt":780.6899999995949,"stimulus":"img/key_alternate.jpg","response":"n","image":"img/key_alternate.jpg","old_or_new":"new","task":"recognition","trial_type":"image-keyboard-response","trial_index":53,"time_elapsed":486253,"internal_node_id":"0.0-3.0-0.25","subject_id":"5e860bb370750d21693ed668","study_id":"607de2837874a824e2e8c6ec","session_id":"608850048ee835af36070167","correct":true},{"rt":656.4199999993434,"stimulus":"\n      <p>How sure are you?</p>\n      <p>Rate your confidence in your answer from 1 (pure guess) to 5 (very sure) by pressing the corresponding button.</p>\n     ","response":4,"image":"img/key_alternate.jpg","task":"confidence","old_or_new":"new","trial_type":"html-button-response","trial_index":54,"time_elapsed":486910,"internal_node_id":"0.0-3.0-1.25","subject_id":"5e860bb370750d21693ed668","study_id":"607de2837874a824e2e8c6ec","session_id":"608850048ee835af36070167"},{"rt":643.2249999998021,"stimulus":"img/chair_alternate.jpg","response":"n","image":"img/chair_alternate.jpg","old_or_new":"new","task":"recognition","trial_type":"image-keyboard-response","trial_index":55,"time_elapsed":488064,"internal_node_id":"0.0-3.0-0.26","subject_id":"5e860bb370750d21693ed668","study_id":"607de2837874a824e2e8c6ec","session_id":"608850048ee835af36070167","correct":true},{"rt":414.99000000109663,"stimulus":"\n      <p>How sure are you?</p>\n      <p>Rate your confidence in your answer from 1 (pure guess) to 5 (very sure) by pressing the corresponding button.</p>\n     ","response":4,"image":"img/chair_alternate.jpg","task":"confidence","old_or_new":"new","trial_type":"html-button-response","trial_index":56,"time_elapsed":488480,"internal_node_id":"0.0-3.0-1.26","subject_id":"5e860bb370750d21693ed668","study_id":"607de2837874a824e2e8c6ec","session_id":"608850048ee835af36070167"},{"rt":1910.244999999064,"stimulus":"img/bowl.jpg","response":"y","image":"img/bowl.jpg","old_or_new":"old","task":"recognition","trial_type":"image-keyboard-response","trial_index":57,"time_elapsed":490892,"internal_node_id":"0.0-3.0-0.27","subject_id":"5e860bb370750d21693ed668","study_id":"607de2837874a824e2e8c6ec","session_id":"608850048ee835af36070167","correct":true},{"rt":630.1099999982398,"stimulus":"\n      <p>How sure are you?</p>\n      <p>Rate your confidence in your answer from 1 (pure guess) to 5 (very sure) by pressing the corresponding button.</p>\n     ","response":3,"image":"img/bowl.jpg","task":"confidence","old_or_new":"old","trial_type":"html-button-response","trial_index":58,"time_elapsed":491523,"internal_node_id":"0.0-3.0-1.27","subject_id":"5e860bb370750d21693ed668","study_id":"607de2837874a824e2e8c6ec","session_id":"608850048ee835af36070167"},{"rt":1664.4200000009732,"stimulus":"img/fan_alternate.jpg","response":"y","image":"img/fan_alternate.jpg","old_or_new":"new","task":"recognition","trial_type":"image-keyboard-response","trial_index":59,"time_elapsed":493697,"internal_node_id":"0.0-3.0-0.28","subject_id":"5e860bb370750d21693ed668","study_id":"607de2837874a824e2e8c6ec","session_id":"608850048ee835af36070167","correct":false},{"rt":556.4400000002934,"stimulus":"\n      <p>How sure are you?</p>\n      <p>Rate your confidence in your answer from 1 (pure guess) to 5 (very sure) by pressing the corresponding button.</p>\n     ","response":4,"image":"img/fan_alternate.jpg","task":"confidence","old_or_new":"new","trial_type":"html-button-response","trial_index":60,"time_elapsed":494254,"internal_node_id":"0.0-3.0-1.28","subject_id":"5e860bb370750d21693ed668","study_id":"607de2837874a824e2e8c6ec","session_id":"608850048ee835af36070167"},{"rt":885.9499999998952,"stimulus":"img/fan.jpg","response":"y","image":"img/fan.jpg","old_or_new":"old","task":"recognition","trial_type":"image-keyboard-response","trial_index":61,"time_elapsed":495648,"internal_node_id":"0.0-3.0-0.29","subject_id":"5e860bb370750d21693ed668","study_id":"607de2837874a824e2e8c6ec","session_id":"608850048ee835af36070167","correct":true},{"rt":374.6800000008079,"stimulus":"\n      <p>How sure are you?</p>\n      <p>Rate your confidence in your answer from 1 (pure guess) to 5 (very sure) by pressing the corresponding button.</p>\n     ","response":4,"image":"img/fan.jpg","task":"confidence","old_or_new":"old","trial_type":"html-button-response","trial_index":62,"time_elapsed":496024,"internal_node_id":"0.0-3.0-1.29","subject_id":"5e860bb370750d21693ed668","study_id":"607de2837874a824e2e8c6ec","session_id":"608850048ee835af36070167"},{"rt":1438.3449999986915,"stimulus":"img/coin_alternate.jpg","response":"n","image":"img/coin_alternate.jpg","old_or_new":"new","task":"recognition","trial_type":"image-keyboard-response","trial_index":63,"time_elapsed":497964,"internal_node_id":"0.0-3.0-0.30","subject_id":"5e860bb370750d21693ed668","study_id":"607de2837874a824e2e8c6ec","session_id":"608850048ee835af36070167","correct":true},{"rt":724.3899999994319,"stimulus":"\n      <p>How sure are you?</p>\n      <p>Rate your confidence in your answer from 1 (pure guess) to 5 (very sure) by pressing the corresponding button.</p>\n     ","response":3,"image":"img/coin_alternate.jpg","task":"confidence","old_or_new":"new","trial_type":"html-button-response","trial_index":64,"time_elapsed":498689,"internal_node_id":"0.0-3.0-1.30","subject_id":"5e860bb370750d21693ed668","study_id":"607de2837874a824e2e8c6ec","session_id":"608850048ee835af36070167"},{"rt":1628.8449999992736,"stimulus":"img/apple.jpg","response":"n","image":"img/apple.jpg","old_or_new":"old","task":"recognition","trial_type":"image-keyboard-response","trial_index":65,"time_elapsed":500829,"internal_node_id":"0.0-3.0-0.31","subject_id":"5e860bb370750d21693ed668","study_id":"607de2837874a824e2e8c6ec","session_id":"608850048ee835af36070167","correct":false},{"rt":349.41500000061933,"stimulus":"\n      <p>How sure are you?</p>\n      <p>Rate your confidence in your answer from 1 (pure guess) to 5 (very sure) by pressing the corresponding button.</p>\n     ","response":3,"image":"img/apple.jpg","task":"confidence","old_or_new":"old","trial_type":"html-button-response","trial_index":66,"time_elapsed":501179,"internal_node_id":"0.0-3.0-1.31","subject_id":"5e860bb370750d21693ed668","study_id":"607de2837874a824e2e8c6ec","session_id":"608850048ee835af36070167"},{"rt":867.4649999993853,"stimulus":"img/leaf.jpg","response":"y","image":"img/leaf.jpg","old_or_new":"old","task":"recognition","trial_type":"image-keyboard-response","trial_index":67,"time_elapsed":502559,"internal_node_id":"0.0-3.0-0.32","subject_id":"5e860bb370750d21693ed668","study_id":"607de2837874a824e2e8c6ec","session_id":"608850048ee835af36070167","correct":true},{"rt":497.4099999999162,"stimulus":"\n      <p>How sure are you?</p>\n      <p>Rate your confidence in your answer from 1 (pure guess) to 5 (very sure) by pressing the corresponding button.</p>\n     ","response":4,"image":"img/leaf.jpg","task":"confidence","old_or_new":"old","trial_type":"html-button-response","trial_index":68,"time_elapsed":503057,"internal_node_id":"0.0-3.0-1.32","subject_id":"5e860bb370750d21693ed668","study_id":"607de2837874a824e2e8c6ec","session_id":"608850048ee835af36070167"},{"rt":1345.3650000010384,"stimulus":"img/hairbrush_alternate.jpg","response":"n","image":"img/hairbrush_alternate.jpg","old_or_new":"new","task":"recognition","trial_type":"image-keyboard-response","trial_index":69,"time_elapsed":504919,"internal_node_id":"0.0-3.0-0.33","subject_id":"5e860bb370750d21693ed668","study_id":"607de2837874a824e2e8c6ec","session_id":"608850048ee835af36070167","correct":true},{"rt":597.1800000006915,"stimulus":"\n      <p>How sure are you?</p>\n      <p>Rate your confidence in your answer from 1 (pure guess) to 5 (very sure) by pressing the corresponding button.</p>\n     ","response":3,"image":"img/hairbrush_alternate.jpg","task":"confidence","old_or_new":"new","trial_type":"html-button-response","trial_index":70,"time_elapsed":505517,"internal_node_id":"0.0-3.0-1.33","subject_id":"5e860bb370750d21693ed668","study_id":"607de2837874a824e2e8c6ec","session_id":"608850048ee835af36070167"},{"rt":1953.190000000177,"stimulus":"img/backpack.jpg","response":"y","image":"img/backpack.jpg","old_or_new":"old","task":"recognition","trial_type":"image-keyboard-response","trial_index":71,"time_elapsed":507973,"internal_node_id":"0.0-3.0-0.34","subject_id":"5e860bb370750d21693ed668","study_id":"607de2837874a824e2e8c6ec","session_id":"608850048ee835af36070167","correct":true},{"rt":1329.0100000012899,"stimulus":"\n      <p>How sure are you?</p>\n      <p>Rate your confidence in your answer from 1 (pure guess) to 5 (very sure) by pressing the corresponding button.</p>\n     ","response":3,"image":"img/backpack.jpg","task":"confidence","old_or_new":"old","trial_type":"html-button-response","trial_index":72,"time_elapsed":509303,"internal_node_id":"0.0-3.0-1.34","subject_id":"5e860bb370750d21693ed668","study_id":"607de2837874a824e2e8c6ec","session_id":"608850048ee835af36070167"},{"rt":886.630000000936,"stimulus":"img/coin.jpg","response":"y","image":"img/coin.jpg","old_or_new":"old","task":"recognition","trial_type":"image-keyboard-response","trial_index":73,"time_elapsed":510699,"internal_node_id":"0.0-3.0-0.35","subject_id":"5e860bb370750d21693ed668","study_id":"607de2837874a824e2e8c6ec","session_id":"608850048ee835af36070167","correct":true},{"rt":452.89000000047963,"stimulus":"\n      <p>How sure are you?</p>\n      <p>Rate your confidence in your answer from 1 (pure guess) to 5 (very sure) by pressing the corresponding button.</p>\n     ","response":4,"image":"img/coin.jpg","task":"confidence","old_or_new":"old","trial_type":"html-button-response","trial_index":74,"time_elapsed":511153,"internal_node_id":"0.0-3.0-1.35","subject_id":"5e860bb370750d21693ed668","study_id":"607de2837874a824e2e8c6ec","session_id":"608850048ee835af36070167"},{"rt":1072.3849999994272,"stimulus":"img/helmet_alternate.jpg","response":"n","image":"img/helmet_alternate.jpg","old_or_new":"new","task":"recognition","trial_type":"image-keyboard-response","trial_index":75,"time_elapsed":512732,"internal_node_id":"0.0-3.0-0.36","subject_id":"5e860bb370750d21693ed668","study_id":"607de2837874a824e2e8c6ec","session_id":"608850048ee835af36070167","correct":true},{"rt":405.060000000929,"stimulus":"\n      <p>How sure are you?</p>\n      <p>Rate your confidence in your answer from 1 (pure guess) to 5 (very sure) by pressing the corresponding button.</p>\n     ","response":4,"image":"img/helmet_alternate.jpg","task":"confidence","old_or_new":"new","trial_type":"html-button-response","trial_index":76,"time_elapsed":513138,"internal_node_id":"0.0-3.0-1.36","subject_id":"5e860bb370750d21693ed668","study_id":"607de2837874a824e2e8c6ec","session_id":"608850048ee835af36070167"},{"rt":840.6250000006985,"stimulus":"img/grapes_alternate.jpg","response":"n","image":"img/grapes_alternate.jpg","old_or_new":"new","task":"recognition","trial_type":"image-keyboard-response","trial_index":77,"time_elapsed":514492,"internal_node_id":"0.0-3.0-0.37","subject_id":"5e860bb370750d21693ed668","study_id":"607de2837874a824e2e8c6ec","session_id":"608850048ee835af36070167","correct":true},{"rt":363.8500000015483,"stimulus":"\n      <p>How sure are you?</p>\n      <p>Rate your confidence in your answer from 1 (pure guess) to 5 (very sure) by pressing the corresponding button.</p>\n     ","response":4,"image":"img/grapes_alternate.jpg","task":"confidence","old_or_new":"new","trial_type":"html-button-response","trial_index":78,"time_elapsed":514857,"internal_node_id":"0.0-3.0-1.37","subject_id":"5e860bb370750d21693ed668","study_id":"607de2837874a824e2e8c6ec","session_id":"608850048ee835af36070167"},{"rt":723.420000002021,"stimulus":"img/bowl_alternate.jpg","response":"n","image":"img/bowl_alternate.jpg","old_or_new":"new","task":"recognition","trial_type":"image-keyboard-response","trial_index":79,"time_elapsed":516087,"internal_node_id":"0.0-3.0-0.38","subject_id":"5e860bb370750d21693ed668","study_id":"607de2837874a824e2e8c6ec","session_id":"608850048ee835af36070167","correct":true},{"rt":356.6049999971874,"stimulus":"\n      <p>How sure are you?</p>\n      <p>Rate your confidence in your answer from 1 (pure guess) to 5 (very sure) by pressing the corresponding button.</p>\n     ","response":4,"image":"img/bowl_alternate.jpg","task":"confidence","old_or_new":"new","trial_type":"html-button-response","trial_index":80,"time_elapsed":516444,"internal_node_id":"0.0-3.0-1.38","subject_id":"5e860bb370750d21693ed668","study_id":"607de2837874a824e2e8c6ec","session_id":"608850048ee835af36070167"},{"rt":2433.7500000001164,"stimulus":"img/helmet.jpg","response":"y","image":"img/helmet.jpg","old_or_new":"old","task":"recognition","trial_type":"image-keyboard-response","trial_index":81,"time_elapsed":519384,"internal_node_id":"0.0-3.0-0.39","subject_id":"5e860bb370750d21693ed668","study_id":"607de2837874a824e2e8c6ec","session_id":"608850048ee835af36070167","correct":true},{"rt":669.3349999986822,"stimulus":"\n      <p>How sure are you?</p>\n      <p>Rate your confidence in your answer from 1 (pure guess) to 5 (very sure) by pressing the corresponding button.</p>\n     ","response":2,"image":"img/helmet.jpg","task":"confidence","old_or_new":"old","trial_type":"html-button-response","trial_index":82,"time_elapsed":520054,"internal_node_id":"0.0-3.0-1.39","subject_id":"5e860bb370750d21693ed668","study_id":"607de2837874a824e2e8c6ec","session_id":"608850048ee835af36070167"},{"rt":1575.4650000017136,"stimulus":"img/hairbrush.jpg","response":"n","image":"img/hairbrush.jpg","old_or_new":"old","task":"recognition","trial_type":"image-keyboard-response","trial_index":83,"time_elapsed":522135,"internal_node_id":"0.0-3.0-0.40","subject_id":"5e860bb370750d21693ed668","study_id":"607de2837874a824e2e8c6ec","session_id":"608850048ee835af36070167","correct":false},{"rt":558.4200000012061,"stimulus":"\n      <p>How sure are you?</p>\n      <p>Rate your confidence in your answer from 1 (pure guess) to 5 (very sure) by pressing the corresponding button.</p>\n     ","response":3,"image":"img/hairbrush.jpg","task":"confidence","old_or_new":"old","trial_type":"html-button-response","trial_index":84,"time_elapsed":522694,"internal_node_id":"0.0-3.0-1.40","subject_id":"5e860bb370750d21693ed668","study_id":"607de2837874a824e2e8c6ec","session_id":"608850048ee835af36070167"},{"rt":1255.8300000018207,"stimulus":"img/basket.jpg","response":"n","image":"img/basket.jpg","old_or_new":"old","task":"recognition","trial_type":"image-keyboard-response","trial_index":85,"time_elapsed":524466,"internal_node_id":"0.0-3.0-0.41","subject_id":"5e860bb370750d21693ed668","study_id":"607de2837874a824e2e8c6ec","session_id":"608850048ee835af36070167","correct":false},{"rt":352.53000000014435,"stimulus":"\n      <p>How sure are you?</p>\n      <p>Rate your confidence in your answer from 1 (pure guess) to 5 (very sure) by pressing the corresponding button.</p>\n     ","response":3,"image":"img/basket.jpg","task":"confidence","old_or_new":"old","trial_type":"html-button-response","trial_index":86,"time_elapsed":524819,"internal_node_id":"0.0-3.0-1.41","subject_id":"5e860bb370750d21693ed668","study_id":"607de2837874a824e2e8c6ec","session_id":"608850048ee835af36070167"},{"rt":811.475000002305,"stimulus":"img/lightbulb.jpg","response":"n","image":"img/lightbulb.jpg","old_or_new":"old","task":"recognition","trial_type":"image-keyboard-response","trial_index":87,"time_elapsed":526140,"internal_node_id":"0.0-3.0-0.42","subject_id":"5e860bb370750d21693ed668","study_id":"607de2837874a824e2e8c6ec","session_id":"608850048ee835af36070167","correct":false},{"rt":362.88000000058673,"stimulus":"\n      <p>How sure are you?</p>\n      <p>Rate your confidence in your answer from 1 (pure guess) to 5 (very sure) by pressing the corresponding button.</p>\n     ","response":3,"image":"img/lightbulb.jpg","task":"confidence","old_or_new":"old","trial_type":"html-button-response","trial_index":88,"time_elapsed":526503,"internal_node_id":"0.0-3.0-1.42","subject_id":"5e860bb370750d21693ed668","study_id":"607de2837874a824e2e8c6ec","session_id":"608850048ee835af36070167"},{"rt":2968.789999999106,"stimulus":"img/dryer.jpg","response":"y","image":"img/dryer.jpg","old_or_new":"old","task":"recognition","trial_type":"image-keyboard-response","trial_index":89,"time_elapsed":529981,"internal_node_id":"0.0-3.0-0.43","subject_id":"5e860bb370750d21693ed668","study_id":"607de2837874a824e2e8c6ec","session_id":"608850048ee835af36070167","correct":true},{"rt":518.3799999976764,"stimulus":"\n      <p>How sure are you?</p>\n      <p>Rate your confidence in your answer from 1 (pure guess) to 5 (very sure) by pressing the corresponding button.</p>\n     ","response":3,"image":"img/dryer.jpg","task":"confidence","old_or_new":"old","trial_type":"html-button-response","trial_index":90,"time_elapsed":530501,"internal_node_id":"0.0-3.0-1.43","subject_id":"5e860bb370750d21693ed668","study_id":"607de2837874a824e2e8c6ec","session_id":"608850048ee835af36070167"},{"rt":867.3300000010058,"stimulus":"img/hair_tie_alternate.jpg","response":"n","image":"img/hair_tie_alternate.jpg","old_or_new":"new","task":"recognition","trial_type":"image-keyboard-response","trial_index":91,"time_elapsed":531879,"internal_node_id":"0.0-3.0-0.44","subject_id":"5e860bb370750d21693ed668","study_id":"607de2837874a824e2e8c6ec","session_id":"608850048ee835af36070167","correct":true},{"rt":519.430000000284,"stimulus":"\n      <p>How sure are you?</p>\n      <p>Rate your confidence in your answer from 1 (pure guess) to 5 (very sure) by pressing the corresponding button.</p>\n     ","response":4,"image":"img/hair_tie_alternate.jpg","task":"confidence","old_or_new":"new","trial_type":"html-button-response","trial_index":92,"time_elapsed":532399,"internal_node_id":"0.0-3.0-1.44","subject_id":"5e860bb370750d21693ed668","study_id":"607de2837874a824e2e8c6ec","session_id":"608850048ee835af36070167"},{"rt":768.1549999979325,"stimulus":"img/glasses.jpg","response":"y","image":"img/glasses.jpg","old_or_new":"old","task":"recognition","trial_type":"image-keyboard-response","trial_index":93,"time_elapsed":533673,"internal_node_id":"0.0-3.0-0.45","subject_id":"5e860bb370750d21693ed668","study_id":"607de2837874a824e2e8c6ec","session_id":"608850048ee835af36070167","correct":true},{"rt":449.3849999998929,"stimulus":"\n      <p>How sure are you?</p>\n      <p>Rate your confidence in your answer from 1 (pure guess) to 5 (very sure) by pressing the corresponding button.</p>\n     ","response":4,"image":"img/glasses.jpg","task":"confidence","old_or_new":"old","trial_type":"html-button-response","trial_index":94,"time_elapsed":534123,"internal_node_id":"0.0-3.0-1.45","subject_id":"5e860bb370750d21693ed668","study_id":"607de2837874a824e2e8c6ec","session_id":"608850048ee835af36070167"},{"rt":810.7700000000186,"stimulus":"img/hair_tie.jpg","response":"y","image":"img/hair_tie.jpg","old_or_new":"old","task":"recognition","trial_type":"image-keyboard-response","trial_index":95,"time_elapsed":535444,"internal_node_id":"0.0-3.0-0.46","subject_id":"5e860bb370750d21693ed668","study_id":"607de2837874a824e2e8c6ec","session_id":"608850048ee835af36070167","correct":true},{"rt":373.92499999993015,"stimulus":"\n      <p>How sure are you?</p>\n      <p>Rate your confidence in your answer from 1 (pure guess) to 5 (very sure) by pressing the corresponding button.</p>\n     ","response":4,"image":"img/hair_tie.jpg","task":"confidence","old_or_new":"old","trial_type":"html-button-response","trial_index":96,"time_elapsed":535818,"internal_node_id":"0.0-3.0-1.46","subject_id":"5e860bb370750d21693ed668","study_id":"607de2837874a824e2e8c6ec","session_id":"608850048ee835af36070167"},{"rt":783.609999998589,"stimulus":"img/drum.jpg","response":"y","image":"img/drum.jpg","old_or_new":"old","task":"recognition","trial_type":"image-keyboard-response","trial_index":97,"time_elapsed":537103,"internal_node_id":"0.0-3.0-0.47","subject_id":"5e860bb370750d21693ed668","study_id":"607de2837874a824e2e8c6ec","session_id":"608850048ee835af36070167","correct":true},{"rt":398.31000000052154,"stimulus":"\n      <p>How sure are you?</p>\n      <p>Rate your confidence in your answer from 1 (pure guess) to 5 (very sure) by pressing the corresponding button.</p>\n     ","response":4,"image":"img/drum.jpg","task":"confidence","old_or_new":"old","trial_type":"html-button-response","trial_index":98,"time_elapsed":537502,"internal_node_id":"0.0-3.0-1.47","subject_id":"5e860bb370750d21693ed668","study_id":"607de2837874a824e2e8c6ec","session_id":"608850048ee835af36070167"}]