[{"success":true,"timeout":false,"failed_images":[],"failed_audio":[],"failed_video":[],"trial_type":"preload","trial_index":0,"time_elapsed":3709,"internal_node_id":"0.0-0.0","subject_id":"5c741aac5d19e300179d39ac","study_id":"606233c0e42b980319b6a18e","session_id":"608834892d58d737e5649258"},{"rt":23607.480000006035,"stimulus":"\n      <div style=\"width:800px; text-align: left;\">\n        <p>Welcome to day 2 of the experiment! Thanks for coming back.</p>\n        <p>You will be presented with a series of images. Images will appear one at a time.</p>\n        <p>Each image will remain on the screen until you press either <span style=\"font-weight: bold;\">\"y\" to indicate you have seen the \n        exact same photo the day before or \"n\" to indicate you have not seen the exact same photo the day before.</span></p>\n        <p>After you answer yes (\"y\") or no (\"n\"), you will then be prompted to rate your certainty on a scale of\n        1 (pure guess) to 5 (very sure).</p>\n      </div>\n    ","response":0,"trial_type":"html-button-response","trial_index":1,"time_elapsed":27321,"internal_node_id":"0.0-1.0","subject_id":"5c741aac5d19e300179d39ac","study_id":"606233c0e42b980319b6a18e","session_id":"608834892d58d737e5649258"},{"success":true,"trial_type":"fullscreen","trial_index":2,"time_elapsed":30163,"internal_node_id":"0.0-2.0","subject_id":"5c741aac5d19e300179d39ac","study_id":"606233c0e42b980319b6a18e","session_id":"608834892d58d737e5649258"},{"rt":1422.9250000062166,"stimulus":"img/shovel.jpg","response":"y","image":"img/shovel.jpg","old_or_new":"old","task":"recognition","trial_type":"image-keyboard-response","trial_index":3,"time_elapsed":31611,"internal_node_id":"0.0-3.0-0.0","subject_id":"5c741aac5d19e300179d39ac","study_id":"606233c0e42b980319b6a18e","session_id":"608834892d58d737e5649258","correct":true},{"rt":1129.2099999991478,"stimulus":"\n      <p>How sure are you?</p>\n      <p>Rate your confidence in your answer from 1 (pure guess) to 5 (very sure) by pressing the corresponding button.</p>\n     ","response":4,"image":"img/shovel.jpg","task":"confidence","old_or_new":"old","trial_type":"html-button-response","trial_index":4,"time_elapsed":32743,"internal_node_id":"0.0-3.0-1.0","subject_id":"5c741aac5d19e300179d39ac","study_id":"606233c0e42b980319b6a18e","session_id":"608834892d58d737e5649258"},{"rt":2102.7999999932945,"stimulus":"img/shirt_alternate.jpg","response":"n","image":"img/shirt_alternate.jpg","old_or_new":"new","task":"recognition","trial_type":"image-keyboard-response","trial_index":5,"time_elapsed":35356,"internal_node_id":"0.0-3.0-0.1","subject_id":"5c741aac5d19e300179d39ac","study_id":"606233c0e42b980319b6a18e","session_id":"608834892d58d737e5649258","correct":true},{"rt":846.8149999971502,"stimulus":"\n      <p>How sure are you?</p>\n      <p>Rate your confidence in your answer from 1 (pure guess) to 5 (very sure) by pressing the corresponding button.</p>\n     ","response":4,"image":"img/shirt_alternate.jpg","task":"confidence","old_or_new":"new","trial_type":"html-button-response","trial_index":6,"time_elapsed":36204,"internal_node_id":"0.0-3.0-1.1","subject_id":"5c741aac5d19e300179d39ac","study_id":"606233c0e42b980319b6a18e","session_id":"608834892d58d737e5649258"},{"rt":962.5799999921583,"stimulus":"img/shirt.jpg","response":"y","image":"img/shirt.jpg","old_or_new":"old","task":"recognition","trial_type":"image-keyboard-response","trial_index":7,"time_elapsed":37673,"internal_node_id":"0.0-3.0-0.2","subject_id":"5c741aac5d19e300179d39ac","study_id":"606233c0e42b980319b6a18e","session_id":"608834892d58d737e5649258","correct":true},{"rt":666.1650000023656,"stimulus":"\n      <p>How sure are you?</p>\n      <p>Rate your confidence in your answer from 1 (pure guess) to 5 (very sure) by pressing the corresponding button.</p>\n     ","response":4,"image":"img/shirt.jpg","task":"confidence","old_or_new":"old","trial_type":"html-button-response","trial_index":8,"time_elapsed":38341,"internal_node_id":"0.0-3.0-1.2","subject_id":"5c741aac5d19e300179d39ac","study_id":"606233c0e42b980319b6a18e","session_id":"608834892d58d737e5649258"},{"rt":2704.039999996894,"stimulus":"img/tv_alternate.jpg","response":"n","image":"img/tv_alternate.jpg","old_or_new":"new","task":"recognition","trial_type":"image-keyboard-response","trial_index":9,"time_elapsed":41554,"internal_node_id":"0.0-3.0-0.3","subject_id":"5c741aac5d19e300179d39ac","study_id":"606233c0e42b980319b6a18e","session_id":"608834892d58d737e5649258","correct":true},{"rt":580.3000000014435,"stimulus":"\n      <p>How sure are you?</p>\n      <p>Rate your confidence in your answer from 1 (pure guess) to 5 (very sure) by pressing the corresponding button.</p>\n     ","response":4,"image":"img/tv_alternate.jpg","task":"confidence","old_or_new":"new","trial_type":"html-button-response","trial_index":10,"time_elapsed":42137,"internal_node_id":"0.0-3.0-1.3","subject_id":"5c741aac5d19e300179d39ac","study_id":"606233c0e42b980319b6a18e","session_id":"608834892d58d737e5649258"},{"rt":1865.7600000005914,"stimulus":"img/rolling_pin_alternate.jpg","response":"n","image":"img/rolling_pin_alternate.jpg","old_or_new":"new","task":"recognition","trial_type":"image-keyboard-response","trial_index":11,"time_elapsed":44512,"internal_node_id":"0.0-3.0-0.4","subject_id":"5c741aac5d19e300179d39ac","study_id":"606233c0e42b980319b6a18e","session_id":"608834892d58d737e5649258","correct":true},{"rt":664.7099999972852,"stimulus":"\n      <p>How sure are you?</p>\n      <p>Rate your confidence in your answer from 1 (pure guess) to 5 (very sure) by pressing the corresponding button.</p>\n     ","response":4,"image":"img/rolling_pin_alternate.jpg","task":"confidence","old_or_new":"new","trial_type":"html-button-response","trial_index":12,"time_elapsed":45179,"internal_node_id":"0.0-3.0-1.4","subject_id":"5c741aac5d19e300179d39ac","study_id":"606233c0e42b980319b6a18e","session_id":"608834892d58d737e5649258"},{"rt":842.160000000149,"stimulus":"img/seashell.jpg","response":"y","image":"img/seashell.jpg","old_or_new":"old","task":"recognition","trial_type":"image-keyboard-response","trial_index":13,"time_elapsed":46528,"internal_node_id":"0.0-3.0-0.5","subject_id":"5c741aac5d19e300179d39ac","study_id":"606233c0e42b980319b6a18e","session_id":"608834892d58d737e5649258","correct":true},{"rt":563.1600000051549,"stimulus":"\n      <p>How sure are you?</p>\n      <p>Rate your confidence in your answer from 1 (pure guess) to 5 (very sure) by pressing the corresponding button.</p>\n     ","response":4,"image":"img/seashell.jpg","task":"confidence","old_or_new":"old","trial_type":"html-button-response","trial_index":14,"time_elapsed":47093,"internal_node_id":"0.0-3.0-1.5","subject_id":"5c741aac5d19e300179d39ac","study_id":"606233c0e42b980319b6a18e","session_id":"608834892d58d737e5649258"},{"rt":718.8549999991665,"stimulus":"img/skates.jpg","response":"y","image":"img/skates.jpg","old_or_new":"old","task":"recognition","trial_type":"image-keyboard-response","trial_index":15,"time_elapsed":48323,"internal_node_id":"0.0-3.0-0.6","subject_id":"5c741aac5d19e300179d39ac","study_id":"606233c0e42b980319b6a18e","session_id":"608834892d58d737e5649258","correct":true},{"rt":490.4899999964982,"stimulus":"\n      <p>How sure are you?</p>\n      <p>Rate your confidence in your answer from 1 (pure guess) to 5 (very sure) by pressing the corresponding button.</p>\n     ","response":4,"image":"img/skates.jpg","task":"confidence","old_or_new":"old","trial_type":"html-button-response","trial_index":16,"time_elapsed":48814,"internal_node_id":"0.0-3.0-1.6","subject_id":"5c741aac5d19e300179d39ac","study_id":"606233c0e42b980319b6a18e","session_id":"608834892d58d737e5649258"},{"rt":773.5200000024633,"stimulus":"img/pizza_alternate.jpg","response":"y","image":"img/pizza_alternate.jpg","old_or_new":"new","task":"recognition","trial_type":"image-keyboard-response","trial_index":17,"time_elapsed":50093,"internal_node_id":"0.0-3.0-0.7","subject_id":"5c741aac5d19e300179d39ac","study_id":"606233c0e42b980319b6a18e","session_id":"608834892d58d737e5649258","correct":false},{"rt":803.9799999969546,"stimulus":"\n      <p>How sure are you?</p>\n      <p>Rate your confidence in your answer from 1 (pure guess) to 5 (very sure) by pressing the corresponding button.</p>\n     ","response":4,"image":"img/pizza_alternate.jpg","task":"confidence","old_or_new":"new","trial_type":"html-button-response","trial_index":18,"time_elapsed":50898,"internal_node_id":"0.0-3.0-1.7","subject_id":"5c741aac5d19e300179d39ac","study_id":"606233c0e42b980319b6a18e","session_id":"608834892d58d737e5649258"},{"rt":1539.7049999883166,"stimulus":"img/plane_alternate.jpg","response":"n","image":"img/plane_alternate.jpg","old_or_new":"new","task":"recognition","trial_type":"image-keyboard-response","trial_index":19,"time_elapsed":52949,"internal_node_id":"0.0-3.0-0.8","subject_id":"5c741aac5d19e300179d39ac","study_id":"606233c0e42b980319b6a18e","session_id":"608834892d58d737e5649258","correct":true},{"rt":1127.9600000125356,"stimulus":"\n      <p>How sure are you?</p>\n      <p>Rate your confidence in your answer from 1 (pure guess) to 5 (very sure) by pressing the corresponding button.</p>\n     ","response":2,"image":"img/plane_alternate.jpg","task":"confidence","old_or_new":"new","trial_type":"html-button-response","trial_index":20,"time_elapsed":54079,"internal_node_id":"0.0-3.0-1.8","subject_id":"5c741aac5d19e300179d39ac","study_id":"606233c0e42b980319b6a18e","session_id":"608834892d58d737e5649258"},{"rt":1224.4249999930616,"stimulus":"img/trophy.jpg","response":"y","image":"img/trophy.jpg","old_or_new":"old","task":"recognition","trial_type":"image-keyboard-response","trial_index":21,"time_elapsed":55815,"internal_node_id":"0.0-3.0-0.9","subject_id":"5c741aac5d19e300179d39ac","study_id":"606233c0e42b980319b6a18e","session_id":"608834892d58d737e5649258","correct":true},{"rt":1048.1299999955809,"stimulus":"\n      <p>How sure are you?</p>\n      <p>Rate your confidence in your answer from 1 (pure guess) to 5 (very sure) by pressing the corresponding button.</p>\n     ","response":2,"image":"img/trophy.jpg","task":"confidence","old_or_new":"old","trial_type":"html-button-response","trial_index":22,"time_elapsed":56865,"internal_node_id":"0.0-3.0-1.9","subject_id":"5c741aac5d19e300179d39ac","study_id":"606233c0e42b980319b6a18e","session_id":"608834892d58d737e5649258"},{"rt":811.9599999918137,"stimulus":"img/shoe_alternate.jpg","response":"n","image":"img/shoe_alternate.jpg","old_or_new":"new","task":"recognition","trial_type":"image-keyboard-response","trial_index":23,"time_elapsed":58186,"internal_node_id":"0.0-3.0-0.10","subject_id":"5c741aac5d19e300179d39ac","study_id":"606233c0e42b980319b6a18e","session_id":"608834892d58d737e5649258","correct":true},{"rt":669.6349999983795,"stimulus":"\n      <p>How sure are you?</p>\n      <p>Rate your confidence in your answer from 1 (pure guess) to 5 (very sure) by pressing the corresponding button.</p>\n     ","response":4,"image":"img/shoe_alternate.jpg","task":"confidence","old_or_new":"new","trial_type":"html-button-response","trial_index":24,"time_elapsed":58857,"internal_node_id":"0.0-3.0-1.10","subject_id":"5c741aac5d19e300179d39ac","study_id":"606233c0e42b980319b6a18e","session_id":"608834892d58d737e5649258"},{"rt":722.9200000001583,"stimulus":"img/rolling_pin.jpg","response":"y","image":"img/rolling_pin.jpg","old_or_new":"old","task":"recognition","trial_type":"image-keyboard-response","trial_index":25,"time_elapsed":60085,"internal_node_id":"0.0-3.0-0.11","subject_id":"5c741aac5d19e300179d39ac","study_id":"606233c0e42b980319b6a18e","session_id":"608834892d58d737e5649258","correct":true},{"rt":494.1099999996368,"stimulus":"\n      <p>How sure are you?</p>\n      <p>Rate your confidence in your answer from 1 (pure guess) to 5 (very sure) by pressing the corresponding button.</p>\n     ","response":4,"image":"img/rolling_pin.jpg","task":"confidence","old_or_new":"old","trial_type":"html-button-response","trial_index":26,"time_elapsed":60581,"internal_node_id":"0.0-3.0-1.11","subject_id":"5c741aac5d19e300179d39ac","study_id":"606233c0e42b980319b6a18e","session_id":"608834892d58d737e5649258"},{"rt":1494.2399999999907,"stimulus":"img/plate_alternate.jpg","response":"n","image":"img/plate_alternate.jpg","old_or_new":"new","task":"recognition","trial_type":"image-keyboard-response","trial_index":27,"time_elapsed":62591,"internal_node_id":"0.0-3.0-0.12","subject_id":"5c741aac5d19e300179d39ac","study_id":"606233c0e42b980319b6a18e","session_id":"608834892d58d737e5649258","correct":true},{"rt":541.7500000039581,"stimulus":"\n      <p>How sure are you?</p>\n      <p>Rate your confidence in your answer from 1 (pure guess) to 5 (very sure) by pressing the corresponding button.</p>\n     ","response":4,"image":"img/plate_alternate.jpg","task":"confidence","old_or_new":"new","trial_type":"html-button-response","trial_index":28,"time_elapsed":63134,"internal_node_id":"0.0-3.0-1.12","subject_id":"5c741aac5d19e300179d39ac","study_id":"606233c0e42b980319b6a18e","session_id":"608834892d58d737e5649258"},{"rt":1944.1550000046846,"stimulus":"img/spoon.jpg","response":"y","image":"img/spoon.jpg","old_or_new":"old","task":"recognition","trial_type":"image-keyboard-response","trial_index":29,"time_elapsed":65596,"internal_node_id":"0.0-3.0-0.13","subject_id":"5c741aac5d19e300179d39ac","study_id":"606233c0e42b980319b6a18e","session_id":"608834892d58d737e5649258","correct":true},{"rt":1010.7649999990826,"stimulus":"\n      <p>How sure are you?</p>\n      <p>Rate your confidence in your answer from 1 (pure guess) to 5 (very sure) by pressing the corresponding button.</p>\n     ","response":3,"image":"img/spoon.jpg","task":"confidence","old_or_new":"old","trial_type":"html-button-response","trial_index":30,"time_elapsed":66608,"internal_node_id":"0.0-3.0-1.13","subject_id":"5c741aac5d19e300179d39ac","study_id":"606233c0e42b980319b6a18e","session_id":"608834892d58d737e5649258"},{"rt":2386.2200000003213,"stimulus":"img/pencil_sharpener_alternate.jpg","response":"n","image":"img/pencil_sharpener_alternate.jpg","old_or_new":"new","task":"recognition","trial_type":"image-keyboard-response","trial_index":31,"time_elapsed":69504,"internal_node_id":"0.0-3.0-0.14","subject_id":"5c741aac5d19e300179d39ac","study_id":"606233c0e42b980319b6a18e","session_id":"608834892d58d737e5649258","correct":true},{"rt":623.4050000057323,"stimulus":"\n      <p>How sure are you?</p>\n      <p>Rate your confidence in your answer from 1 (pure guess) to 5 (very sure) by pressing the corresponding button.</p>\n     ","response":4,"image":"img/pencil_sharpener_alternate.jpg","task":"confidence","old_or_new":"new","trial_type":"html-button-response","trial_index":32,"time_elapsed":70129,"internal_node_id":"0.0-3.0-1.14","subject_id":"5c741aac5d19e300179d39ac","study_id":"606233c0e42b980319b6a18e","session_id":"608834892d58d737e5649258"},{"rt":796.7749999952503,"stimulus":"img/pencil_sharpener.jpg","response":"y","image":"img/pencil_sharpener.jpg","old_or_new":"old","task":"recognition","trial_type":"image-keyboard-response","trial_index":33,"time_elapsed":71430,"internal_node_id":"0.0-3.0-0.15","subject_id":"5c741aac5d19e300179d39ac","study_id":"606233c0e42b980319b6a18e","session_id":"608834892d58d737e5649258","correct":true},{"rt":1126.4099999971222,"stimulus":"\n      <p>How sure are you?</p>\n      <p>Rate your confidence in your answer from 1 (pure guess) to 5 (very sure) by pressing the corresponding button.</p>\n     ","response":4,"image":"img/pencil_sharpener.jpg","task":"confidence","old_or_new":"old","trial_type":"html-button-response","trial_index":34,"time_elapsed":72558,"internal_node_id":"0.0-3.0-1.15","subject_id":"5c741aac5d19e300179d39ac","study_id":"606233c0e42b980319b6a18e","session_id":"608834892d58d737e5649258"},{"rt":1034.784999996191,"stimulus":"img/toothbrush.jpg","response":"y","image":"img/toothbrush.jpg","old_or_new":"old","task":"recognition","trial_type":"image-keyboard-response","trial_index":35,"time_elapsed":74098,"internal_node_id":"0.0-3.0-0.16","subject_id":"5c741aac5d19e300179d39ac","study_id":"606233c0e42b980319b6a18e","session_id":"608834892d58d737e5649258","correct":true},{"rt":472.85000000556465,"stimulus":"\n      <p>How sure are you?</p>\n      <p>Rate your confidence in your answer from 1 (pure guess) to 5 (very sure) by pressing the corresponding button.</p>\n     ","response":4,"image":"img/toothbrush.jpg","task":"confidence","old_or_new":"old","trial_type":"html-button-response","trial_index":36,"time_elapsed":74572,"internal_node_id":"0.0-3.0-1.16","subject_id":"5c741aac5d19e300179d39ac","study_id":"606233c0e42b980319b6a18e","session_id":"608834892d58d737e5649258"},{"rt":770.650000005844,"stimulus":"img/pizza.jpg","response":"y","image":"img/pizza.jpg","old_or_new":"old","task":"recognition","trial_type":"image-keyboard-response","trial_index":37,"time_elapsed":75851,"internal_node_id":"0.0-3.0-0.17","subject_id":"5c741aac5d19e300179d39ac","study_id":"606233c0e42b980319b6a18e","session_id":"608834892d58d737e5649258","correct":true},{"rt":469.46000000752974,"stimulus":"\n      <p>How sure are you?</p>\n      <p>Rate your confidence in your answer from 1 (pure guess) to 5 (very sure) by pressing the corresponding button.</p>\n     ","response":4,"image":"img/pizza.jpg","task":"confidence","old_or_new":"old","trial_type":"html-button-response","trial_index":38,"time_elapsed":76322,"internal_node_id":"0.0-3.0-1.17","subject_id":"5c741aac5d19e300179d39ac","study_id":"606233c0e42b980319b6a18e","session_id":"608834892d58d737e5649258"},{"rt":651.9499999994878,"stimulus":"img/plate.jpg","response":"y","image":"img/plate.jpg","old_or_new":"old","task":"recognition","trial_type":"image-keyboard-response","trial_index":39,"time_elapsed":77490,"internal_node_id":"0.0-3.0-0.18","subject_id":"5c741aac5d19e300179d39ac","study_id":"606233c0e42b980319b6a18e","session_id":"608834892d58d737e5649258","correct":true},{"rt":453.26500000373926,"stimulus":"\n      <p>How sure are you?</p>\n      <p>Rate your confidence in your answer from 1 (pure guess) to 5 (very sure) by pressing the corresponding button.</p>\n     ","response":4,"image":"img/plate.jpg","task":"confidence","old_or_new":"old","trial_type":"html-button-response","trial_index":40,"time_elapsed":77944,"internal_node_id":"0.0-3.0-1.18","subject_id":"5c741aac5d19e300179d39ac","study_id":"606233c0e42b980319b6a18e","session_id":"608834892d58d737e5649258"},{"rt":1328.8750000065193,"stimulus":"img/shoe.jpg","response":"y","image":"img/shoe.jpg","old_or_new":"old","task":"recognition","trial_type":"image-keyboard-response","trial_index":41,"time_elapsed":79784,"internal_node_id":"0.0-3.0-0.19","subject_id":"5c741aac5d19e300179d39ac","study_id":"606233c0e42b980319b6a18e","session_id":"608834892d58d737e5649258","correct":true},{"rt":410.81499999563675,"stimulus":"\n      <p>How sure are you?</p>\n      <p>Rate your confidence in your answer from 1 (pure guess) to 5 (very sure) by pressing the corresponding button.</p>\n     ","response":4,"image":"img/shoe.jpg","task":"confidence","old_or_new":"old","trial_type":"html-button-response","trial_index":42,"time_elapsed":80197,"internal_node_id":"0.0-3.0-1.19","subject_id":"5c741aac5d19e300179d39ac","study_id":"606233c0e42b980319b6a18e","session_id":"608834892d58d737e5649258"},{"rt":896.8600000080187,"stimulus":"img/spoon_alternate.jpg","response":"n","image":"img/spoon_alternate.jpg","old_or_new":"new","task":"recognition","trial_type":"image-keyboard-response","trial_index":43,"time_elapsed":81601,"internal_node_id":"0.0-3.0-0.20","subject_id":"5c741aac5d19e300179d39ac","study_id":"606233c0e42b980319b6a18e","session_id":"608834892d58d737e5649258","correct":true},{"rt":690.3350000065984,"stimulus":"\n      <p>How sure are you?</p>\n      <p>Rate your confidence in your answer from 1 (pure guess) to 5 (very sure) by pressing the corresponding button.</p>\n     ","response":4,"image":"img/spoon_alternate.jpg","task":"confidence","old_or_new":"new","trial_type":"html-button-response","trial_index":44,"time_elapsed":82292,"internal_node_id":"0.0-3.0-1.20","subject_id":"5c741aac5d19e300179d39ac","study_id":"606233c0e42b980319b6a18e","session_id":"608834892d58d737e5649258"},{"rt":917.8500000125496,"stimulus":"img/sink_alternate.jpg","response":"n","image":"img/sink_alternate.jpg","old_or_new":"new","task":"recognition","trial_type":"image-keyboard-response","trial_index":45,"time_elapsed":83717,"internal_node_id":"0.0-3.0-0.21","subject_id":"5c741aac5d19e300179d39ac","study_id":"606233c0e42b980319b6a18e","session_id":"608834892d58d737e5649258","correct":true},{"rt":441.51000000420026,"stimulus":"\n      <p>How sure are you?</p>\n      <p>Rate your confidence in your answer from 1 (pure guess) to 5 (very sure) by pressing the corresponding button.</p>\n     ","response":4,"image":"img/sink_alternate.jpg","task":"confidence","old_or_new":"new","trial_type":"html-button-response","trial_index":46,"time_elapsed":84160,"internal_node_id":"0.0-3.0-1.21","subject_id":"5c741aac5d19e300179d39ac","study_id":"606233c0e42b980319b6a18e","session_id":"608834892d58d737e5649258"},{"rt":821.6099999990547,"stimulus":"img/toothbrush_alternate.jpg","response":"n","image":"img/toothbrush_alternate.jpg","old_or_new":"new","task":"recognition","trial_type":"image-keyboard-response","trial_index":47,"time_elapsed":85491,"internal_node_id":"0.0-3.0-0.22","subject_id":"5c741aac5d19e300179d39ac","study_id":"606233c0e42b980319b6a18e","session_id":"608834892d58d737e5649258","correct":true},{"rt":446.19499999680556,"stimulus":"\n      <p>How sure are you?</p>\n      <p>Rate your confidence in your answer from 1 (pure guess) to 5 (very sure) by pressing the corresponding button.</p>\n     ","response":4,"image":"img/toothbrush_alternate.jpg","task":"confidence","old_or_new":"new","trial_type":"html-button-response","trial_index":48,"time_elapsed":85939,"internal_node_id":"0.0-3.0-1.22","subject_id":"5c741aac5d19e300179d39ac","study_id":"606233c0e42b980319b6a18e","session_id":"608834892d58d737e5649258"},{"rt":856.4800000021933,"stimulus":"img/plane.jpg","response":"y","image":"img/plane.jpg","old_or_new":"old","task":"recognition","trial_type":"image-keyboard-response","trial_index":49,"time_elapsed":87303,"internal_node_id":"0.0-3.0-0.23","subject_id":"5c741aac5d19e300179d39ac","study_id":"606233c0e42b980319b6a18e","session_id":"608834892d58d737e5649258","correct":true},{"rt":400.8949999988545,"stimulus":"\n      <p>How sure are you?</p>\n      <p>Rate your confidence in your answer from 1 (pure guess) to 5 (very sure) by pressing the corresponding button.</p>\n     ","response":4,"image":"img/plane.jpg","task":"confidence","old_or_new":"old","trial_type":"html-button-response","trial_index":50,"time_elapsed":87724,"internal_node_id":"0.0-3.0-1.23","subject_id":"5c741aac5d19e300179d39ac","study_id":"606233c0e42b980319b6a18e","session_id":"608834892d58d737e5649258"},{"rt":980.2700000000186,"stimulus":"img/yarn.jpg","response":"y","image":"img/yarn.jpg","old_or_new":"old","task":"recognition","trial_type":"image-keyboard-response","trial_index":51,"time_elapsed":89213,"internal_node_id":"0.0-3.0-0.24","subject_id":"5c741aac5d19e300179d39ac","study_id":"606233c0e42b980319b6a18e","session_id":"608834892d58d737e5649258","correct":true},{"rt":429.71499999111984,"stimulus":"\n      <p>How sure are you?</p>\n      <p>Rate your confidence in your answer from 1 (pure guess) to 5 (very sure) by pressing the corresponding button.</p>\n     ","response":4,"image":"img/yarn.jpg","task":"confidence","old_or_new":"old","trial_type":"html-button-response","trial_index":52,"time_elapsed":89644,"internal_node_id":"0.0-3.0-1.24","subject_id":"5c741aac5d19e300179d39ac","study_id":"606233c0e42b980319b6a18e","session_id":"608834892d58d737e5649258"},{"rt":645.5050000076881,"stimulus":"img/wheel_barrow.jpg","response":"y","image":"img/wheel_barrow.jpg","old_or_new":"old","task":"recognition","trial_type":"image-keyboard-response","trial_index":53,"time_elapsed":90801,"internal_node_id":"0.0-3.0-0.25","subject_id":"5c741aac5d19e300179d39ac","study_id":"606233c0e42b980319b6a18e","session_id":"608834892d58d737e5649258","correct":true},{"rt":465.1050000102259,"stimulus":"\n      <p>How sure are you?</p>\n      <p>Rate your confidence in your answer from 1 (pure guess) to 5 (very sure) by pressing the corresponding button.</p>\n     ","response":4,"image":"img/wheel_barrow.jpg","task":"confidence","old_or_new":"old","trial_type":"html-button-response","trial_index":54,"time_elapsed":91268,"internal_node_id":"0.0-3.0-1.25","subject_id":"5c741aac5d19e300179d39ac","study_id":"606233c0e42b980319b6a18e","session_id":"608834892d58d737e5649258"},{"rt":850.9999999951106,"stimulus":"img/power_cord_alternate.jpg","response":"n","image":"img/power_cord_alternate.jpg","old_or_new":"new","task":"recognition","trial_type":"image-keyboard-response","trial_index":55,"time_elapsed":92629,"internal_node_id":"0.0-3.0-0.26","subject_id":"5c741aac5d19e300179d39ac","study_id":"606233c0e42b980319b6a18e","session_id":"608834892d58d737e5649258","correct":true},{"rt":453.94500000111293,"stimulus":"\n      <p>How sure are you?</p>\n      <p>Rate your confidence in your answer from 1 (pure guess) to 5 (very sure) by pressing the corresponding button.</p>\n     ","response":4,"image":"img/power_cord_alternate.jpg","task":"confidence","old_or_new":"new","trial_type":"html-button-response","trial_index":56,"time_elapsed":93084,"internal_node_id":"0.0-3.0-1.26","subject_id":"5c741aac5d19e300179d39ac","study_id":"606233c0e42b980319b6a18e","session_id":"608834892d58d737e5649258"},{"rt":728.0400000017835,"stimulus":"img/umbrella.jpg","response":"y","image":"img/umbrella.jpg","old_or_new":"old","task":"recognition","trial_type":"image-keyboard-response","trial_index":57,"time_elapsed":94324,"internal_node_id":"0.0-3.0-0.27","subject_id":"5c741aac5d19e300179d39ac","study_id":"606233c0e42b980319b6a18e","session_id":"608834892d58d737e5649258","correct":true},{"rt":397.3800000094343,"stimulus":"\n      <p>How sure are you?</p>\n      <p>Rate your confidence in your answer from 1 (pure guess) to 5 (very sure) by pressing the corresponding button.</p>\n     ","response":4,"image":"img/umbrella.jpg","task":"confidence","old_or_new":"old","trial_type":"html-button-response","trial_index":58,"time_elapsed":94722,"internal_node_id":"0.0-3.0-1.27","subject_id":"5c741aac5d19e300179d39ac","study_id":"606233c0e42b980319b6a18e","session_id":"608834892d58d737e5649258"},{"rt":786.8349999916973,"stimulus":"img/seashell_alternate.jpg","response":"n","image":"img/seashell_alternate.jpg","old_or_new":"new","task":"recognition","trial_type":"image-keyboard-response","trial_index":59,"time_elapsed":96018,"internal_node_id":"0.0-3.0-0.28","subject_id":"5c741aac5d19e300179d39ac","study_id":"606233c0e42b980319b6a18e","session_id":"608834892d58d737e5649258","correct":true},{"rt":410.85000000020955,"stimulus":"\n      <p>How sure are you?</p>\n      <p>Rate your confidence in your answer from 1 (pure guess) to 5 (very sure) by pressing the corresponding button.</p>\n     ","response":4,"image":"img/seashell_alternate.jpg","task":"confidence","old_or_new":"new","trial_type":"html-button-response","trial_index":60,"time_elapsed":96430,"internal_node_id":"0.0-3.0-1.28","subject_id":"5c741aac5d19e300179d39ac","study_id":"606233c0e42b980319b6a18e","session_id":"608834892d58d737e5649258"},{"rt":679.7899999946821,"stimulus":"img/knife.jpg","response":"y","image":"img/knife.jpg","old_or_new":"old","task":"recognition","trial_type":"image-keyboard-response","trial_index":61,"time_elapsed":97620,"internal_node_id":"0.0-3.0-0.29","subject_id":"5c741aac5d19e300179d39ac","study_id":"606233c0e42b980319b6a18e","session_id":"608834892d58d737e5649258","correct":true},{"rt":450.90999999956694,"stimulus":"\n      <p>How sure are you?</p>\n      <p>Rate your confidence in your answer from 1 (pure guess) to 5 (very sure) by pressing the corresponding button.</p>\n     ","response":4,"image":"img/knife.jpg","task":"confidence","old_or_new":"old","trial_type":"html-button-response","trial_index":62,"time_elapsed":98072,"internal_node_id":"0.0-3.0-1.29","subject_id":"5c741aac5d19e300179d39ac","study_id":"606233c0e42b980319b6a18e","session_id":"608834892d58d737e5649258"},{"rt":579.6850000042468,"stimulus":"img/power_cord.jpg","response":"y","image":"img/power_cord.jpg","old_or_new":"old","task":"recognition","trial_type":"image-keyboard-response","trial_index":63,"time_elapsed":99169,"internal_node_id":"0.0-3.0-0.30","subject_id":"5c741aac5d19e300179d39ac","study_id":"606233c0e42b980319b6a18e","session_id":"608834892d58d737e5649258","correct":true},{"rt":499.6649999957299,"stimulus":"\n      <p>How sure are you?</p>\n      <p>Rate your confidence in your answer from 1 (pure guess) to 5 (very sure) by pressing the corresponding button.</p>\n     ","response":4,"image":"img/power_cord.jpg","task":"confidence","old_or_new":"old","trial_type":"html-button-response","trial_index":64,"time_elapsed":99670,"internal_node_id":"0.0-3.0-1.30","subject_id":"5c741aac5d19e300179d39ac","study_id":"606233c0e42b980319b6a18e","session_id":"608834892d58d737e5649258"},{"rt":642.7249999978812,"stimulus":"img/yarn_alternate.jpg","response":"n","image":"img/yarn_alternate.jpg","old_or_new":"new","task":"recognition","trial_type":"image-keyboard-response","trial_index":65,"time_elapsed":100827,"internal_node_id":"0.0-3.0-0.31","subject_id":"5c741aac5d19e300179d39ac","study_id":"606233c0e42b980319b6a18e","session_id":"608834892d58d737e5649258","correct":true},{"rt":425.6549999990966,"stimulus":"\n      <p>How sure are you?</p>\n      <p>Rate your confidence in your answer from 1 (pure guess) to 5 (very sure) by pressing the corresponding button.</p>\n     ","response":4,"image":"img/yarn_alternate.jpg","task":"confidence","old_or_new":"new","trial_type":"html-button-response","trial_index":66,"time_elapsed":101255,"internal_node_id":"0.0-3.0-1.31","subject_id":"5c741aac5d19e300179d39ac","study_id":"606233c0e42b980319b6a18e","session_id":"608834892d58d737e5649258"},{"rt":813.7649999989662,"stimulus":"img/watch.jpg","response":"y","image":"img/watch.jpg","old_or_new":"old","task":"recognition","trial_type":"image-keyboard-response","trial_index":67,"time_elapsed":102577,"internal_node_id":"0.0-3.0-0.32","subject_id":"5c741aac5d19e300179d39ac","study_id":"606233c0e42b980319b6a18e","session_id":"608834892d58d737e5649258","correct":true},{"rt":439.7600000083912,"stimulus":"\n      <p>How sure are you?</p>\n      <p>Rate your confidence in your answer from 1 (pure guess) to 5 (very sure) by pressing the corresponding button.</p>\n     ","response":4,"image":"img/watch.jpg","task":"confidence","old_or_new":"old","trial_type":"html-button-response","trial_index":68,"time_elapsed":103018,"internal_node_id":"0.0-3.0-1.32","subject_id":"5c741aac5d19e300179d39ac","study_id":"606233c0e42b980319b6a18e","session_id":"608834892d58d737e5649258"},{"rt":1225.86500000034,"stimulus":"img/toaster.jpg","response":"y","image":"img/toaster.jpg","old_or_new":"old","task":"recognition","trial_type":"image-keyboard-response","trial_index":69,"time_elapsed":104758,"internal_node_id":"0.0-3.0-0.33","subject_id":"5c741aac5d19e300179d39ac","study_id":"606233c0e42b980319b6a18e","session_id":"608834892d58d737e5649258","correct":true},{"rt":392.5650000019232,"stimulus":"\n      <p>How sure are you?</p>\n      <p>Rate your confidence in your answer from 1 (pure guess) to 5 (very sure) by pressing the corresponding button.</p>\n     ","response":4,"image":"img/toaster.jpg","task":"confidence","old_or_new":"old","trial_type":"html-button-response","trial_index":70,"time_elapsed":105153,"internal_node_id":"0.0-3.0-1.33","subject_id":"5c741aac5d19e300179d39ac","study_id":"606233c0e42b980319b6a18e","session_id":"608834892d58d737e5649258"},{"rt":684.7149999957765,"stimulus":"img/trophy_alternate.jpg","response":"n","image":"img/trophy_alternate.jpg","old_or_new":"new","task":"recognition","trial_type":"image-keyboard-response","trial_index":71,"time_elapsed":106345,"internal_node_id":"0.0-3.0-0.34","subject_id":"5c741aac5d19e300179d39ac","study_id":"606233c0e42b980319b6a18e","session_id":"608834892d58d737e5649258","correct":true},{"rt":624.1500000032829,"stimulus":"\n      <p>How sure are you?</p>\n      <p>Rate your confidence in your answer from 1 (pure guess) to 5 (very sure) by pressing the corresponding button.</p>\n     ","response":4,"image":"img/trophy_alternate.jpg","task":"confidence","old_or_new":"new","trial_type":"html-button-response","trial_index":72,"time_elapsed":106970,"internal_node_id":"0.0-3.0-1.34","subject_id":"5c741aac5d19e300179d39ac","study_id":"606233c0e42b980319b6a18e","session_id":"608834892d58d737e5649258"},{"rt":903.279999998631,"stimulus":"img/scissors.jpg","response":"n","image":"img/scissors.jpg","old_or_new":"old","task":"recognition","trial_type":"image-keyboard-response","trial_index":73,"time_elapsed":108378,"internal_node_id":"0.0-3.0-0.35","subject_id":"5c741aac5d19e300179d39ac","study_id":"606233c0e42b980319b6a18e","session_id":"608834892d58d737e5649258","correct":false},{"rt":430.8000000019092,"stimulus":"\n      <p>How sure are you?</p>\n      <p>Rate your confidence in your answer from 1 (pure guess) to 5 (very sure) by pressing the corresponding button.</p>\n     ","response":4,"image":"img/scissors.jpg","task":"confidence","old_or_new":"old","trial_type":"html-button-response","trial_index":74,"time_elapsed":108810,"internal_node_id":"0.0-3.0-1.35","subject_id":"5c741aac5d19e300179d39ac","study_id":"606233c0e42b980319b6a18e","session_id":"608834892d58d737e5649258"},{"rt":608.829999997397,"stimulus":"img/sink.jpg","response":"y","image":"img/sink.jpg","old_or_new":"old","task":"recognition","trial_type":"image-keyboard-response","trial_index":75,"time_elapsed":109940,"internal_node_id":"0.0-3.0-0.36","subject_id":"5c741aac5d19e300179d39ac","study_id":"606233c0e42b980319b6a18e","session_id":"608834892d58d737e5649258","correct":true},{"rt":459.26499999768566,"stimulus":"\n      <p>How sure are you?</p>\n      <p>Rate your confidence in your answer from 1 (pure guess) to 5 (very sure) by pressing the corresponding button.</p>\n     ","response":4,"image":"img/sink.jpg","task":"confidence","old_or_new":"old","trial_type":"html-button-response","trial_index":76,"time_elapsed":110401,"internal_node_id":"0.0-3.0-1.36","subject_id":"5c741aac5d19e300179d39ac","study_id":"606233c0e42b980319b6a18e","session_id":"608834892d58d737e5649258"},{"rt":702.145000002929,"stimulus":"img/skates_alternate.jpg","response":"n","image":"img/skates_alternate.jpg","old_or_new":"new","task":"recognition","trial_type":"image-keyboard-response","trial_index":77,"time_elapsed":111620,"internal_node_id":"0.0-3.0-0.37","subject_id":"5c741aac5d19e300179d39ac","study_id":"606233c0e42b980319b6a18e","session_id":"608834892d58d737e5649258","correct":true},{"rt":417.9500000027474,"stimulus":"\n      <p>How sure are you?</p>\n      <p>Rate your confidence in your answer from 1 (pure guess) to 5 (very sure) by pressing the corresponding button.</p>\n     ","response":4,"image":"img/skates_alternate.jpg","task":"confidence","old_or_new":"new","trial_type":"html-button-response","trial_index":78,"time_elapsed":112040,"internal_node_id":"0.0-3.0-1.37","subject_id":"5c741aac5d19e300179d39ac","study_id":"606233c0e42b980319b6a18e","session_id":"608834892d58d737e5649258"},{"rt":968.2949999987613,"stimulus":"img/shovel_alternate.jpg","response":"n","image":"img/shovel_alternate.jpg","old_or_new":"new","task":"recognition","trial_type":"image-keyboard-response","trial_index":79,"time_elapsed":113523,"internal_node_id":"0.0-3.0-0.38","subject_id":"5c741aac5d19e300179d39ac","study_id":"606233c0e42b980319b6a18e","session_id":"608834892d58d737e5649258","correct":true},{"rt":461.96499999496154,"stimulus":"\n      <p>How sure are you?</p>\n      <p>Rate your confidence in your answer from 1 (pure guess) to 5 (very sure) by pressing the corresponding button.</p>\n     ","response":4,"image":"img/shovel_alternate.jpg","task":"confidence","old_or_new":"new","trial_type":"html-button-response","trial_index":80,"time_elapsed":113986,"internal_node_id":"0.0-3.0-1.38","subject_id":"5c741aac5d19e300179d39ac","study_id":"606233c0e42b980319b6a18e","session_id":"608834892d58d737e5649258"},{"rt":781.0150000004796,"stimulus":"img/scissors_alternate.jpg","response":"n","image":"img/scissors_alternate.jpg","old_or_new":"new","task":"recognition","trial_type":"image-keyboard-response","trial_index":81,"time_elapsed":115281,"internal_node_id":"0.0-3.0-0.39","subject_id":"5c741aac5d19e300179d39ac","study_id":"606233c0e42b980319b6a18e","session_id":"608834892d58d737e5649258","correct":true},{"rt":633.864999996149,"stimulus":"\n      <p>How sure are you?</p>\n      <p>Rate your confidence in your answer from 1 (pure guess) to 5 (very sure) by pressing the corresponding button.</p>\n     ","response":4,"image":"img/scissors_alternate.jpg","task":"confidence","old_or_new":"new","trial_type":"html-button-response","trial_index":82,"time_elapsed":115916,"internal_node_id":"0.0-3.0-1.39","subject_id":"5c741aac5d19e300179d39ac","study_id":"606233c0e42b980319b6a18e","session_id":"608834892d58d737e5649258"},{"rt":897.5249999930384,"stimulus":"img/knife_alternate.jpg","response":"n","image":"img/knife_alternate.jpg","old_or_new":"new","task":"recognition","trial_type":"image-keyboard-response","trial_index":83,"time_elapsed":117317,"internal_node_id":"0.0-3.0-0.40","subject_id":"5c741aac5d19e300179d39ac","study_id":"606233c0e42b980319b6a18e","session_id":"608834892d58d737e5649258","correct":true},{"rt":417.3350000055507,"stimulus":"\n      <p>How sure are you?</p>\n      <p>Rate your confidence in your answer from 1 (pure guess) to 5 (very sure) by pressing the corresponding button.</p>\n     ","response":4,"image":"img/knife_alternate.jpg","task":"confidence","old_or_new":"new","trial_type":"html-button-response","trial_index":84,"time_elapsed":117736,"internal_node_id":"0.0-3.0-1.40","subject_id":"5c741aac5d19e300179d39ac","study_id":"606233c0e42b980319b6a18e","session_id":"608834892d58d737e5649258"},{"rt":734.8000000056345,"stimulus":"img/watch_alternate.jpg","response":"n","image":"img/watch_alternate.jpg","old_or_new":"new","task":"recognition","trial_type":"image-keyboard-response","trial_index":85,"time_elapsed":118977,"internal_node_id":"0.0-3.0-0.41","subject_id":"5c741aac5d19e300179d39ac","study_id":"606233c0e42b980319b6a18e","session_id":"608834892d58d737e5649258","correct":true},{"rt":341.56000000075437,"stimulus":"\n      <p>How sure are you?</p>\n      <p>Rate your confidence in your answer from 1 (pure guess) to 5 (very sure) by pressing the corresponding button.</p>\n     ","response":4,"image":"img/watch_alternate.jpg","task":"confidence","old_or_new":"new","trial_type":"html-button-response","trial_index":86,"time_elapsed":119320,"internal_node_id":"0.0-3.0-1.41","subject_id":"5c741aac5d19e300179d39ac","study_id":"606233c0e42b980319b6a18e","session_id":"608834892d58d737e5649258"},{"rt":617.7750000060769,"stimulus":"img/tv.jpg","response":"y","image":"img/tv.jpg","old_or_new":"old","task":"recognition","trial_type":"image-keyboard-response","trial_index":87,"time_elapsed":120445,"internal_node_id":"0.0-3.0-0.42","subject_id":"5c741aac5d19e300179d39ac","study_id":"606233c0e42b980319b6a18e","session_id":"608834892d58d737e5649258","correct":true},{"rt":477.7349999931175,"stimulus":"\n      <p>How sure are you?</p>\n      <p>Rate your confidence in your answer from 1 (pure guess) to 5 (very sure) by pressing the corresponding button.</p>\n     ","response":4,"image":"img/tv.jpg","task":"confidence","old_or_new":"old","trial_type":"html-button-response","trial_index":88,"time_elapsed":120924,"internal_node_id":"0.0-3.0-1.42","subject_id":"5c741aac5d19e300179d39ac","study_id":"606233c0e42b980319b6a18e","session_id":"608834892d58d737e5649258"},{"rt":695.8650000015041,"stimulus":"img/umbrella_alternate.jpg","response":"n","image":"img/umbrella_alternate.jpg","old_or_new":"new","task":"recognition","trial_type":"image-keyboard-response","trial_index":89,"time_elapsed":122138,"internal_node_id":"0.0-3.0-0.43","subject_id":"5c741aac5d19e300179d39ac","study_id":"606233c0e42b980319b6a18e","session_id":"608834892d58d737e5649258","correct":true},{"rt":441.2550000124611,"stimulus":"\n      <p>How sure are you?</p>\n      <p>Rate your confidence in your answer from 1 (pure guess) to 5 (very sure) by pressing the corresponding button.</p>\n     ","response":4,"image":"img/umbrella_alternate.jpg","task":"confidence","old_or_new":"new","trial_type":"html-button-response","trial_index":90,"time_elapsed":122581,"internal_node_id":"0.0-3.0-1.43","subject_id":"5c741aac5d19e300179d39ac","study_id":"606233c0e42b980319b6a18e","session_id":"608834892d58d737e5649258"},{"rt":743.8550000078976,"stimulus":"img/wheel_barrow_alternate.jpg","response":"n","image":"img/wheel_barrow_alternate.jpg","old_or_new":"new","task":"recognition","trial_type":"image-keyboard-response","trial_index":91,"time_elapsed":123842,"internal_node_id":"0.0-3.0-0.44","subject_id":"5c741aac5d19e300179d39ac","study_id":"606233c0e42b980319b6a18e","session_id":"608834892d58d737e5649258","correct":true},{"rt":472.8000000031898,"stimulus":"\n      <p>How sure are you?</p>\n      <p>Rate your confidence in your answer from 1 (pure guess) to 5 (very sure) by pressing the corresponding button.</p>\n     ","response":4,"image":"img/wheel_barrow_alternate.jpg","task":"confidence","old_or_new":"new","trial_type":"html-button-response","trial_index":92,"time_elapsed":124316,"internal_node_id":"0.0-3.0-1.44","subject_id":"5c741aac5d19e300179d39ac","study_id":"606233c0e42b980319b6a18e","session_id":"608834892d58d737e5649258"},{"rt":798.3949999907054,"stimulus":"img/toaster_alternate.jpg","response":"n","image":"img/toaster_alternate.jpg","old_or_new":"new","task":"recognition","trial_type":"image-keyboard-response","trial_index":93,"time_elapsed":125632,"internal_node_id":"0.0-3.0-0.45","subject_id":"5c741aac5d19e300179d39ac","study_id":"606233c0e42b980319b6a18e","session_id":"608834892d58d737e5649258","correct":true},{"rt":514.7499999875436,"stimulus":"\n      <p>How sure are you?</p>\n      <p>Rate your confidence in your answer from 1 (pure guess) to 5 (very sure) by pressing the corresponding button.</p>\n     ","response":4,"image":"img/toaster_alternate.jpg","task":"confidence","old_or_new":"new","trial_type":"html-button-response","trial_index":94,"time_elapsed":126148,"internal_node_id":"0.0-3.0-1.45","subject_id":"5c741aac5d19e300179d39ac","study_id":"606233c0e42b980319b6a18e","session_id":"608834892d58d737e5649258"},{"rt":2467.609999992419,"stimulus":"img/parfait_alternate.jpg","response":"n","image":"img/parfait_alternate.jpg","old_or_new":"new","task":"recognition","trial_type":"image-keyboard-response","trial_index":95,"time_elapsed":129126,"internal_node_id":"0.0-3.0-0.46","subject_id":"5c741aac5d19e300179d39ac","study_id":"606233c0e42b980319b6a18e","session_id":"608834892d58d737e5649258","correct":true},{"rt":441.18999999773223,"stimulus":"\n      <p>How sure are you?</p>\n      <p>Rate your confidence in your answer from 1 (pure guess) to 5 (very sure) by pressing the corresponding button.</p>\n     ","response":4,"image":"img/parfait_alternate.jpg","task":"confidence","old_or_new":"new","trial_type":"html-button-response","trial_index":96,"time_elapsed":129569,"internal_node_id":"0.0-3.0-1.46","subject_id":"5c741aac5d19e300179d39ac","study_id":"606233c0e42b980319b6a18e","session_id":"608834892d58d737e5649258"},{"rt":688.2349999941653,"stimulus":"img/parfait.jpg","response":"y","image":"img/parfait.jpg","old_or_new":"old","task":"recognition","trial_type":"image-keyboard-response","trial_index":97,"time_elapsed":130766,"internal_node_id":"0.0-3.0-0.47","subject_id":"5c741aac5d19e300179d39ac","study_id":"606233c0e42b980319b6a18e","session_id":"608834892d58d737e5649258","correct":true},{"rt":440.93499999144115,"stimulus":"\n      <p>How sure are you?</p>\n      <p>Rate your confidence in your answer from 1 (pure guess) to 5 (very sure) by pressing the corresponding button.</p>\n     ","response":4,"image":"img/parfait.jpg","task":"confidence","old_or_new":"old","trial_type":"html-button-response","trial_index":98,"time_elapsed":131209,"internal_node_id":"0.0-3.0-1.47","subject_id":"5c741aac5d19e300179d39ac","study_id":"606233c0e42b980319b6a18e","session_id":"608834892d58d737e5649258"}]