[{"success":true,"timeout":false,"failed_images":[],"failed_audio":[],"failed_video":[],"trial_type":"preload","trial_index":0,"time_elapsed":7556,"internal_node_id":"0.0-0.0","subject_id":"5fd158f6df368812e9bd6597","study_id":"606233c0e42b980319b6a18e","session_id":"60884f8cfb9683a4796695c5"},{"rt":9856.150000006892,"stimulus":"\n      <div style=\"width:800px; text-align: left;\">\n        <p>Welcome to day 2 of the experiment! Thanks for coming back.</p>\n        <p>You will be presented with a series of images. Images will appear one at a time.</p>\n        <p>Each image will remain on the screen until you press either <span style=\"font-weight: bold;\">\"y\" to indicate you have seen the \n        exact same photo the day before or \"n\" to indicate you have not seen the exact same photo the day before.</span></p>\n        <p>After you answer yes (\"y\") or no (\"n\"), you will then be prompted to rate your certainty on a scale of\n        1 (pure guess) to 5 (very sure).</p>\n      </div>\n    ","response":0,"trial_type":"html-button-response","trial_index":1,"time_elapsed":17415,"internal_node_id":"0.0-1.0","subject_id":"5fd158f6df368812e9bd6597","study_id":"606233c0e42b980319b6a18e","session_id":"60884f8cfb9683a4796695c5"},{"success":true,"trial_type":"fullscreen","trial_index":2,"time_elapsed":21285,"internal_node_id":"0.0-2.0","subject_id":"5fd158f6df368812e9bd6597","study_id":"606233c0e42b980319b6a18e","session_id":"60884f8cfb9683a4796695c5"},{"rt":2018.419999978505,"stimulus":"img/toaster.jpg","response":"y","image":"img/toaster.jpg","old_or_new":"old","task":"recognition","trial_type":"image-keyboard-response","trial_index":3,"time_elapsed":23323,"internal_node_id":"0.0-3.0-0.0","subject_id":"5fd158f6df368812e9bd6597","study_id":"606233c0e42b980319b6a18e","session_id":"60884f8cfb9683a4796695c5","correct":true},{"rt":4427.55500000203,"stimulus":"\n      <p>How sure are you?</p>\n      <p>Rate your confidence in your answer from 1 (pure guess) to 5 (very sure) by pressing the corresponding button.</p>\n     ","response":4,"image":"img/toaster.jpg","task":"confidence","old_or_new":"old","trial_type":"html-button-response","trial_index":4,"time_elapsed":27754,"internal_node_id":"0.0-3.0-1.0","subject_id":"5fd158f6df368812e9bd6597","study_id":"606233c0e42b980319b6a18e","session_id":"60884f8cfb9683a4796695c5"},{"rt":1814.8049999726936,"stimulus":"img/spoon.jpg","response":"y","image":"img/spoon.jpg","old_or_new":"old","task":"recognition","trial_type":"image-keyboard-response","trial_index":5,"time_elapsed":30073,"internal_node_id":"0.0-3.0-0.1","subject_id":"5fd158f6df368812e9bd6597","study_id":"606233c0e42b980319b6a18e","session_id":"60884f8cfb9683a4796695c5","correct":true},{"rt":1280.8450000011362,"stimulus":"\n      <p>How sure are you?</p>\n      <p>Rate your confidence in your answer from 1 (pure guess) to 5 (very sure) by pressing the corresponding button.</p>\n     ","response":4,"image":"img/spoon.jpg","task":"confidence","old_or_new":"old","trial_type":"html-button-response","trial_index":6,"time_elapsed":31356,"internal_node_id":"0.0-3.0-1.1","subject_id":"5fd158f6df368812e9bd6597","study_id":"606233c0e42b980319b6a18e","session_id":"60884f8cfb9683a4796695c5"},{"rt":1367.0799999963492,"stimulus":"img/seashell.jpg","response":"y","image":"img/seashell.jpg","old_or_new":"old","task":"recognition","trial_type":"image-keyboard-response","trial_index":7,"time_elapsed":33225,"internal_node_id":"0.0-3.0-0.2","subject_id":"5fd158f6df368812e9bd6597","study_id":"606233c0e42b980319b6a18e","session_id":"60884f8cfb9683a4796695c5","correct":true},{"rt":1112.2949999989942,"stimulus":"\n      <p>How sure are you?</p>\n      <p>Rate your confidence in your answer from 1 (pure guess) to 5 (very sure) by pressing the corresponding button.</p>\n     ","response":4,"image":"img/seashell.jpg","task":"confidence","old_or_new":"old","trial_type":"html-button-response","trial_index":8,"time_elapsed":34340,"internal_node_id":"0.0-3.0-1.2","subject_id":"5fd158f6df368812e9bd6597","study_id":"606233c0e42b980319b6a18e","session_id":"60884f8cfb9683a4796695c5"},{"rt":2158.3450000034645,"stimulus":"img/power_cord_alternate.jpg","response":"n","image":"img/power_cord_alternate.jpg","old_or_new":"new","task":"recognition","trial_type":"image-keyboard-response","trial_index":9,"time_elapsed":37004,"internal_node_id":"0.0-3.0-0.3","subject_id":"5fd158f6df368812e9bd6597","study_id":"606233c0e42b980319b6a18e","session_id":"60884f8cfb9683a4796695c5","correct":true},{"rt":1143.9249999821186,"stimulus":"\n      <p>How sure are you?</p>\n      <p>Rate your confidence in your answer from 1 (pure guess) to 5 (very sure) by pressing the corresponding button.</p>\n     ","response":2,"image":"img/power_cord_alternate.jpg","task":"confidence","old_or_new":"new","trial_type":"html-button-response","trial_index":10,"time_elapsed":38150,"internal_node_id":"0.0-3.0-1.3","subject_id":"5fd158f6df368812e9bd6597","study_id":"606233c0e42b980319b6a18e","session_id":"60884f8cfb9683a4796695c5"},{"rt":1355.184999993071,"stimulus":"img/plane.jpg","response":"y","image":"img/plane.jpg","old_or_new":"old","task":"recognition","trial_type":"image-keyboard-response","trial_index":11,"time_elapsed":40009,"internal_node_id":"0.0-3.0-0.4","subject_id":"5fd158f6df368812e9bd6597","study_id":"606233c0e42b980319b6a18e","session_id":"60884f8cfb9683a4796695c5","correct":true},{"rt":1669.1800000262447,"stimulus":"\n      <p>How sure are you?</p>\n      <p>Rate your confidence in your answer from 1 (pure guess) to 5 (very sure) by pressing the corresponding button.</p>\n     ","response":4,"image":"img/plane.jpg","task":"confidence","old_or_new":"old","trial_type":"html-button-response","trial_index":12,"time_elapsed":41680,"internal_node_id":"0.0-3.0-1.4","subject_id":"5fd158f6df368812e9bd6597","study_id":"606233c0e42b980319b6a18e","session_id":"60884f8cfb9683a4796695c5"},{"rt":1442.4899999867193,"stimulus":"img/spoon_alternate.jpg","response":"n","image":"img/spoon_alternate.jpg","old_or_new":"new","task":"recognition","trial_type":"image-keyboard-response","trial_index":13,"time_elapsed":43626,"internal_node_id":"0.0-3.0-0.5","subject_id":"5fd158f6df368812e9bd6597","study_id":"606233c0e42b980319b6a18e","session_id":"60884f8cfb9683a4796695c5","correct":true},{"rt":985.7800000463612,"stimulus":"\n      <p>How sure are you?</p>\n      <p>Rate your confidence in your answer from 1 (pure guess) to 5 (very sure) by pressing the corresponding button.</p>\n     ","response":3,"image":"img/spoon_alternate.jpg","task":"confidence","old_or_new":"new","trial_type":"html-button-response","trial_index":14,"time_elapsed":44614,"internal_node_id":"0.0-3.0-1.5","subject_id":"5fd158f6df368812e9bd6597","study_id":"606233c0e42b980319b6a18e","session_id":"60884f8cfb9683a4796695c5"},{"rt":1840.9600000013597,"stimulus":"img/power_cord.jpg","response":"y","image":"img/power_cord.jpg","old_or_new":"old","task":"recognition","trial_type":"image-keyboard-response","trial_index":15,"time_elapsed":46957,"internal_node_id":"0.0-3.0-0.6","subject_id":"5fd158f6df368812e9bd6597","study_id":"606233c0e42b980319b6a18e","session_id":"60884f8cfb9683a4796695c5","correct":true},{"rt":664.809999987483,"stimulus":"\n      <p>How sure are you?</p>\n      <p>Rate your confidence in your answer from 1 (pure guess) to 5 (very sure) by pressing the corresponding button.</p>\n     ","response":4,"image":"img/power_cord.jpg","task":"confidence","old_or_new":"old","trial_type":"html-button-response","trial_index":16,"time_elapsed":47624,"internal_node_id":"0.0-3.0-1.6","subject_id":"5fd158f6df368812e9bd6597","study_id":"606233c0e42b980319b6a18e","session_id":"60884f8cfb9683a4796695c5"},{"rt":1123.4899999690242,"stimulus":"img/plate_alternate.jpg","response":"n","image":"img/plate_alternate.jpg","old_or_new":"new","task":"recognition","trial_type":"image-keyboard-response","trial_index":17,"time_elapsed":49250,"internal_node_id":"0.0-3.0-0.7","subject_id":"5fd158f6df368812e9bd6597","study_id":"606233c0e42b980319b6a18e","session_id":"60884f8cfb9683a4796695c5","correct":true},{"rt":1741.3999999989755,"stimulus":"\n      <p>How sure are you?</p>\n      <p>Rate your confidence in your answer from 1 (pure guess) to 5 (very sure) by pressing the corresponding button.</p>\n     ","response":4,"image":"img/plate_alternate.jpg","task":"confidence","old_or_new":"new","trial_type":"html-button-response","trial_index":18,"time_elapsed":50994,"internal_node_id":"0.0-3.0-1.7","subject_id":"5fd158f6df368812e9bd6597","study_id":"606233c0e42b980319b6a18e","session_id":"60884f8cfb9683a4796695c5"},{"rt":1430.054999946151,"stimulus":"img/toaster_alternate.jpg","response":"n","image":"img/toaster_alternate.jpg","old_or_new":"new","task":"recognition","trial_type":"image-keyboard-response","trial_index":19,"time_elapsed":52927,"internal_node_id":"0.0-3.0-0.8","subject_id":"5fd158f6df368812e9bd6597","study_id":"606233c0e42b980319b6a18e","session_id":"60884f8cfb9683a4796695c5","correct":true},{"rt":1027.0299999974668,"stimulus":"\n      <p>How sure are you?</p>\n      <p>Rate your confidence in your answer from 1 (pure guess) to 5 (very sure) by pressing the corresponding button.</p>\n     ","response":4,"image":"img/toaster_alternate.jpg","task":"confidence","old_or_new":"new","trial_type":"html-button-response","trial_index":20,"time_elapsed":53956,"internal_node_id":"0.0-3.0-1.8","subject_id":"5fd158f6df368812e9bd6597","study_id":"606233c0e42b980319b6a18e","session_id":"60884f8cfb9683a4796695c5"},{"rt":929.0599999949336,"stimulus":"img/scissors_alternate.jpg","response":"n","image":"img/scissors_alternate.jpg","old_or_new":"new","task":"recognition","trial_type":"image-keyboard-response","trial_index":21,"time_elapsed":55388,"internal_node_id":"0.0-3.0-0.9","subject_id":"5fd158f6df368812e9bd6597","study_id":"606233c0e42b980319b6a18e","session_id":"60884f8cfb9683a4796695c5","correct":true},{"rt":609.4400000292808,"stimulus":"\n      <p>How sure are you?</p>\n      <p>Rate your confidence in your answer from 1 (pure guess) to 5 (very sure) by pressing the corresponding button.</p>\n     ","response":4,"image":"img/scissors_alternate.jpg","task":"confidence","old_or_new":"new","trial_type":"html-button-response","trial_index":22,"time_elapsed":55999,"internal_node_id":"0.0-3.0-1.9","subject_id":"5fd158f6df368812e9bd6597","study_id":"606233c0e42b980319b6a18e","session_id":"60884f8cfb9683a4796695c5"},{"rt":1010.039999964647,"stimulus":"img/rolling_pin_alternate.jpg","response":"n","image":"img/rolling_pin_alternate.jpg","old_or_new":"new","task":"recognition","trial_type":"image-keyboard-response","trial_index":23,"time_elapsed":57513,"internal_node_id":"0.0-3.0-0.10","subject_id":"5fd158f6df368812e9bd6597","study_id":"606233c0e42b980319b6a18e","session_id":"60884f8cfb9683a4796695c5","correct":true},{"rt":812.5500000314787,"stimulus":"\n      <p>How sure are you?</p>\n      <p>Rate your confidence in your answer from 1 (pure guess) to 5 (very sure) by pressing the corresponding button.</p>\n     ","response":3,"image":"img/rolling_pin_alternate.jpg","task":"confidence","old_or_new":"new","trial_type":"html-button-response","trial_index":24,"time_elapsed":58327,"internal_node_id":"0.0-3.0-1.10","subject_id":"5fd158f6df368812e9bd6597","study_id":"606233c0e42b980319b6a18e","session_id":"60884f8cfb9683a4796695c5"},{"rt":778.1250000116415,"stimulus":"img/yarn.jpg","response":"y","image":"img/yarn.jpg","old_or_new":"old","task":"recognition","trial_type":"image-keyboard-response","trial_index":25,"time_elapsed":59609,"internal_node_id":"0.0-3.0-0.11","subject_id":"5fd158f6df368812e9bd6597","study_id":"606233c0e42b980319b6a18e","session_id":"60884f8cfb9683a4796695c5","correct":true},{"rt":634.2949999962002,"stimulus":"\n      <p>How sure are you?</p>\n      <p>Rate your confidence in your answer from 1 (pure guess) to 5 (very sure) by pressing the corresponding button.</p>\n     ","response":4,"image":"img/yarn.jpg","task":"confidence","old_or_new":"old","trial_type":"html-button-response","trial_index":26,"time_elapsed":60245,"internal_node_id":"0.0-3.0-1.11","subject_id":"5fd158f6df368812e9bd6597","study_id":"606233c0e42b980319b6a18e","session_id":"60884f8cfb9683a4796695c5"},{"rt":955.3100000484847,"stimulus":"img/pencil_sharpener_alternate.jpg","response":"y","image":"img/pencil_sharpener_alternate.jpg","old_or_new":"new","task":"recognition","trial_type":"image-keyboard-response","trial_index":27,"time_elapsed":61703,"internal_node_id":"0.0-3.0-0.12","subject_id":"5fd158f6df368812e9bd6597","study_id":"606233c0e42b980319b6a18e","session_id":"60884f8cfb9683a4796695c5","correct":false},{"rt":617.5149999908172,"stimulus":"\n      <p>How sure are you?</p>\n      <p>Rate your confidence in your answer from 1 (pure guess) to 5 (very sure) by pressing the corresponding button.</p>\n     ","response":4,"image":"img/pencil_sharpener_alternate.jpg","task":"confidence","old_or_new":"new","trial_type":"html-button-response","trial_index":28,"time_elapsed":62323,"internal_node_id":"0.0-3.0-1.12","subject_id":"5fd158f6df368812e9bd6597","study_id":"606233c0e42b980319b6a18e","session_id":"60884f8cfb9683a4796695c5"},{"rt":1625.3799999831244,"stimulus":"img/knife_alternate.jpg","response":"n","image":"img/knife_alternate.jpg","old_or_new":"new","task":"recognition","trial_type":"image-keyboard-response","trial_index":29,"time_elapsed":64451,"internal_node_id":"0.0-3.0-0.13","subject_id":"5fd158f6df368812e9bd6597","study_id":"606233c0e42b980319b6a18e","session_id":"60884f8cfb9683a4796695c5","correct":true},{"rt":843.1100000161678,"stimulus":"\n      <p>How sure are you?</p>\n      <p>Rate your confidence in your answer from 1 (pure guess) to 5 (very sure) by pressing the corresponding button.</p>\n     ","response":4,"image":"img/knife_alternate.jpg","task":"confidence","old_or_new":"new","trial_type":"html-button-response","trial_index":30,"time_elapsed":65296,"internal_node_id":"0.0-3.0-1.13","subject_id":"5fd158f6df368812e9bd6597","study_id":"606233c0e42b980319b6a18e","session_id":"60884f8cfb9683a4796695c5"},{"rt":2219.314999994822,"stimulus":"img/shovel_alternate.jpg","response":"n","image":"img/shovel_alternate.jpg","old_or_new":"new","task":"recognition","trial_type":"image-keyboard-response","trial_index":31,"time_elapsed":68019,"internal_node_id":"0.0-3.0-0.14","subject_id":"5fd158f6df368812e9bd6597","study_id":"606233c0e42b980319b6a18e","session_id":"60884f8cfb9683a4796695c5","correct":true},{"rt":757.0500000147149,"stimulus":"\n      <p>How sure are you?</p>\n      <p>Rate your confidence in your answer from 1 (pure guess) to 5 (very sure) by pressing the corresponding button.</p>\n     ","response":2,"image":"img/shovel_alternate.jpg","task":"confidence","old_or_new":"new","trial_type":"html-button-response","trial_index":32,"time_elapsed":68778,"internal_node_id":"0.0-3.0-1.14","subject_id":"5fd158f6df368812e9bd6597","study_id":"606233c0e42b980319b6a18e","session_id":"60884f8cfb9683a4796695c5"},{"rt":863.8800000189804,"stimulus":"img/skates.jpg","response":"y","image":"img/skates.jpg","old_or_new":"old","task":"recognition","trial_type":"image-keyboard-response","trial_index":33,"time_elapsed":70145,"internal_node_id":"0.0-3.0-0.15","subject_id":"5fd158f6df368812e9bd6597","study_id":"606233c0e42b980319b6a18e","session_id":"60884f8cfb9683a4796695c5","correct":true},{"rt":615.674999949988,"stimulus":"\n      <p>How sure are you?</p>\n      <p>Rate your confidence in your answer from 1 (pure guess) to 5 (very sure) by pressing the corresponding button.</p>\n     ","response":4,"image":"img/skates.jpg","task":"confidence","old_or_new":"old","trial_type":"html-button-response","trial_index":34,"time_elapsed":70763,"internal_node_id":"0.0-3.0-1.15","subject_id":"5fd158f6df368812e9bd6597","study_id":"606233c0e42b980319b6a18e","session_id":"60884f8cfb9683a4796695c5"},{"rt":1507.5800000340678,"stimulus":"img/pencil_sharpener.jpg","response":"y","image":"img/pencil_sharpener.jpg","old_or_new":"old","task":"recognition","trial_type":"image-keyboard-response","trial_index":35,"time_elapsed":72774,"internal_node_id":"0.0-3.0-0.16","subject_id":"5fd158f6df368812e9bd6597","study_id":"606233c0e42b980319b6a18e","session_id":"60884f8cfb9683a4796695c5","correct":true},{"rt":891.0099999629892,"stimulus":"\n      <p>How sure are you?</p>\n      <p>Rate your confidence in your answer from 1 (pure guess) to 5 (very sure) by pressing the corresponding button.</p>\n     ","response":4,"image":"img/pencil_sharpener.jpg","task":"confidence","old_or_new":"old","trial_type":"html-button-response","trial_index":36,"time_elapsed":73667,"internal_node_id":"0.0-3.0-1.16","subject_id":"5fd158f6df368812e9bd6597","study_id":"606233c0e42b980319b6a18e","session_id":"60884f8cfb9683a4796695c5"},{"rt":1034.9799999967217,"stimulus":"img/shirt_alternate.jpg","response":"n","image":"img/shirt_alternate.jpg","old_or_new":"new","task":"recognition","trial_type":"image-keyboard-response","trial_index":37,"time_elapsed":75205,"internal_node_id":"0.0-3.0-0.17","subject_id":"5fd158f6df368812e9bd6597","study_id":"606233c0e42b980319b6a18e","session_id":"60884f8cfb9683a4796695c5","correct":true},{"rt":2147.235000040382,"stimulus":"\n      <p>How sure are you?</p>\n      <p>Rate your confidence in your answer from 1 (pure guess) to 5 (very sure) by pressing the corresponding button.</p>\n     ","response":4,"image":"img/shirt_alternate.jpg","task":"confidence","old_or_new":"new","trial_type":"html-button-response","trial_index":38,"time_elapsed":77354,"internal_node_id":"0.0-3.0-1.17","subject_id":"5fd158f6df368812e9bd6597","study_id":"606233c0e42b980319b6a18e","session_id":"60884f8cfb9683a4796695c5"},{"rt":4178.300000028685,"stimulus":"img/umbrella_alternate.jpg","response":"n","image":"img/umbrella_alternate.jpg","old_or_new":"new","task":"recognition","trial_type":"image-keyboard-response","trial_index":39,"time_elapsed":82036,"internal_node_id":"0.0-3.0-0.18","subject_id":"5fd158f6df368812e9bd6597","study_id":"606233c0e42b980319b6a18e","session_id":"60884f8cfb9683a4796695c5","correct":true},{"rt":1139.6700000041164,"stimulus":"\n      <p>How sure are you?</p>\n      <p>Rate your confidence in your answer from 1 (pure guess) to 5 (very sure) by pressing the corresponding button.</p>\n     ","response":2,"image":"img/umbrella_alternate.jpg","task":"confidence","old_or_new":"new","trial_type":"html-button-response","trial_index":40,"time_elapsed":83178,"internal_node_id":"0.0-3.0-1.18","subject_id":"5fd158f6df368812e9bd6597","study_id":"606233c0e42b980319b6a18e","session_id":"60884f8cfb9683a4796695c5"},{"rt":2426.2500000186265,"stimulus":"img/tv_alternate.jpg","response":"n","image":"img/tv_alternate.jpg","old_or_new":"new","task":"recognition","trial_type":"image-keyboard-response","trial_index":41,"time_elapsed":86108,"internal_node_id":"0.0-3.0-0.19","subject_id":"5fd158f6df368812e9bd6597","study_id":"606233c0e42b980319b6a18e","session_id":"60884f8cfb9683a4796695c5","correct":true},{"rt":1030.144999967888,"stimulus":"\n      <p>How sure are you?</p>\n      <p>Rate your confidence in your answer from 1 (pure guess) to 5 (very sure) by pressing the corresponding button.</p>\n     ","response":3,"image":"img/tv_alternate.jpg","task":"confidence","old_or_new":"new","trial_type":"html-button-response","trial_index":42,"time_elapsed":87140,"internal_node_id":"0.0-3.0-1.19","subject_id":"5fd158f6df368812e9bd6597","study_id":"606233c0e42b980319b6a18e","session_id":"60884f8cfb9683a4796695c5"},{"rt":1162.8550000023097,"stimulus":"img/trophy.jpg","response":"y","image":"img/trophy.jpg","old_or_new":"old","task":"recognition","trial_type":"image-keyboard-response","trial_index":43,"time_elapsed":88806,"internal_node_id":"0.0-3.0-0.20","subject_id":"5fd158f6df368812e9bd6597","study_id":"606233c0e42b980319b6a18e","session_id":"60884f8cfb9683a4796695c5","correct":true},{"rt":611.6250000195578,"stimulus":"\n      <p>How sure are you?</p>\n      <p>Rate your confidence in your answer from 1 (pure guess) to 5 (very sure) by pressing the corresponding button.</p>\n     ","response":4,"image":"img/trophy.jpg","task":"confidence","old_or_new":"old","trial_type":"html-button-response","trial_index":44,"time_elapsed":89420,"internal_node_id":"0.0-3.0-1.20","subject_id":"5fd158f6df368812e9bd6597","study_id":"606233c0e42b980319b6a18e","session_id":"60884f8cfb9683a4796695c5"},{"rt":1057.4900000356138,"stimulus":"img/trophy_alternate.jpg","response":"n","image":"img/trophy_alternate.jpg","old_or_new":"new","task":"recognition","trial_type":"image-keyboard-response","trial_index":45,"time_elapsed":90981,"internal_node_id":"0.0-3.0-0.21","subject_id":"5fd158f6df368812e9bd6597","study_id":"606233c0e42b980319b6a18e","session_id":"60884f8cfb9683a4796695c5","correct":true},{"rt":630.9899999760091,"stimulus":"\n      <p>How sure are you?</p>\n      <p>Rate your confidence in your answer from 1 (pure guess) to 5 (very sure) by pressing the corresponding button.</p>\n     ","response":4,"image":"img/trophy_alternate.jpg","task":"confidence","old_or_new":"new","trial_type":"html-button-response","trial_index":46,"time_elapsed":91614,"internal_node_id":"0.0-3.0-1.21","subject_id":"5fd158f6df368812e9bd6597","study_id":"606233c0e42b980319b6a18e","session_id":"60884f8cfb9683a4796695c5"},{"rt":2442.1349999611266,"stimulus":"img/wheel_barrow.jpg","response":"y","image":"img/wheel_barrow.jpg","old_or_new":"old","task":"recognition","trial_type":"image-keyboard-response","trial_index":47,"time_elapsed":94560,"internal_node_id":"0.0-3.0-0.22","subject_id":"5fd158f6df368812e9bd6597","study_id":"606233c0e42b980319b6a18e","session_id":"60884f8cfb9683a4796695c5","correct":true},{"rt":1151.1699999682605,"stimulus":"\n      <p>How sure are you?</p>\n      <p>Rate your confidence in your answer from 1 (pure guess) to 5 (very sure) by pressing the corresponding button.</p>\n     ","response":3,"image":"img/wheel_barrow.jpg","task":"confidence","old_or_new":"old","trial_type":"html-button-response","trial_index":48,"time_elapsed":95714,"internal_node_id":"0.0-3.0-1.22","subject_id":"5fd158f6df368812e9bd6597","study_id":"606233c0e42b980319b6a18e","session_id":"60884f8cfb9683a4796695c5"},{"rt":734.1350000351667,"stimulus":"img/shirt.jpg","response":"y","image":"img/shirt.jpg","old_or_new":"old","task":"recognition","trial_type":"image-keyboard-response","trial_index":49,"time_elapsed":96952,"internal_node_id":"0.0-3.0-0.23","subject_id":"5fd158f6df368812e9bd6597","study_id":"606233c0e42b980319b6a18e","session_id":"60884f8cfb9683a4796695c5","correct":true},{"rt":849.8199999448843,"stimulus":"\n      <p>How sure are you?</p>\n      <p>Rate your confidence in your answer from 1 (pure guess) to 5 (very sure) by pressing the corresponding button.</p>\n     ","response":4,"image":"img/shirt.jpg","task":"confidence","old_or_new":"old","trial_type":"html-button-response","trial_index":50,"time_elapsed":97805,"internal_node_id":"0.0-3.0-1.23","subject_id":"5fd158f6df368812e9bd6597","study_id":"606233c0e42b980319b6a18e","session_id":"60884f8cfb9683a4796695c5"},{"rt":839.7600000025705,"stimulus":"img/rolling_pin.jpg","response":"y","image":"img/rolling_pin.jpg","old_or_new":"old","task":"recognition","trial_type":"image-keyboard-response","trial_index":51,"time_elapsed":99148,"internal_node_id":"0.0-3.0-0.24","subject_id":"5fd158f6df368812e9bd6597","study_id":"606233c0e42b980319b6a18e","session_id":"60884f8cfb9683a4796695c5","correct":true},{"rt":475.1900000264868,"stimulus":"\n      <p>How sure are you?</p>\n      <p>Rate your confidence in your answer from 1 (pure guess) to 5 (very sure) by pressing the corresponding button.</p>\n     ","response":4,"image":"img/rolling_pin.jpg","task":"confidence","old_or_new":"old","trial_type":"html-button-response","trial_index":52,"time_elapsed":99625,"internal_node_id":"0.0-3.0-1.24","subject_id":"5fd158f6df368812e9bd6597","study_id":"606233c0e42b980319b6a18e","session_id":"60884f8cfb9683a4796695c5"},{"rt":1313.3950000046752,"stimulus":"img/parfait_alternate.jpg","response":"n","image":"img/parfait_alternate.jpg","old_or_new":"new","task":"recognition","trial_type":"image-keyboard-response","trial_index":53,"time_elapsed":101442,"internal_node_id":"0.0-3.0-0.25","subject_id":"5fd158f6df368812e9bd6597","study_id":"606233c0e42b980319b6a18e","session_id":"60884f8cfb9683a4796695c5","correct":true},{"rt":925.4049999872223,"stimulus":"\n      <p>How sure are you?</p>\n      <p>Rate your confidence in your answer from 1 (pure guess) to 5 (very sure) by pressing the corresponding button.</p>\n     ","response":4,"image":"img/parfait_alternate.jpg","task":"confidence","old_or_new":"new","trial_type":"html-button-response","trial_index":54,"time_elapsed":102369,"internal_node_id":"0.0-3.0-1.25","subject_id":"5fd158f6df368812e9bd6597","study_id":"606233c0e42b980319b6a18e","session_id":"60884f8cfb9683a4796695c5"},{"rt":812.6699999556877,"stimulus":"img/pizza.jpg","response":"y","image":"img/pizza.jpg","old_or_new":"old","task":"recognition","trial_type":"image-keyboard-response","trial_index":55,"time_elapsed":103685,"internal_node_id":"0.0-3.0-0.26","subject_id":"5fd158f6df368812e9bd6597","study_id":"606233c0e42b980319b6a18e","session_id":"60884f8cfb9683a4796695c5","correct":true},{"rt":427.6749999844469,"stimulus":"\n      <p>How sure are you?</p>\n      <p>Rate your confidence in your answer from 1 (pure guess) to 5 (very sure) by pressing the corresponding button.</p>\n     ","response":4,"image":"img/pizza.jpg","task":"confidence","old_or_new":"old","trial_type":"html-button-response","trial_index":56,"time_elapsed":104115,"internal_node_id":"0.0-3.0-1.26","subject_id":"5fd158f6df368812e9bd6597","study_id":"606233c0e42b980319b6a18e","session_id":"60884f8cfb9683a4796695c5"},{"rt":945.3399999765679,"stimulus":"img/shoe_alternate.jpg","response":"n","image":"img/shoe_alternate.jpg","old_or_new":"new","task":"recognition","trial_type":"image-keyboard-response","trial_index":57,"time_elapsed":105564,"internal_node_id":"0.0-3.0-0.27","subject_id":"5fd158f6df368812e9bd6597","study_id":"606233c0e42b980319b6a18e","session_id":"60884f8cfb9683a4796695c5","correct":true},{"rt":1163.0999999470077,"stimulus":"\n      <p>How sure are you?</p>\n      <p>Rate your confidence in your answer from 1 (pure guess) to 5 (very sure) by pressing the corresponding button.</p>\n     ","response":4,"image":"img/shoe_alternate.jpg","task":"confidence","old_or_new":"new","trial_type":"html-button-response","trial_index":58,"time_elapsed":106729,"internal_node_id":"0.0-3.0-1.27","subject_id":"5fd158f6df368812e9bd6597","study_id":"606233c0e42b980319b6a18e","session_id":"60884f8cfb9683a4796695c5"},{"rt":1118.3999999775551,"stimulus":"img/watch_alternate.jpg","response":"n","image":"img/watch_alternate.jpg","old_or_new":"new","task":"recognition","trial_type":"image-keyboard-response","trial_index":59,"time_elapsed":108351,"internal_node_id":"0.0-3.0-0.28","subject_id":"5fd158f6df368812e9bd6597","study_id":"606233c0e42b980319b6a18e","session_id":"60884f8cfb9683a4796695c5","correct":true},{"rt":636.0049999784678,"stimulus":"\n      <p>How sure are you?</p>\n      <p>Rate your confidence in your answer from 1 (pure guess) to 5 (very sure) by pressing the corresponding button.</p>\n     ","response":3,"image":"img/watch_alternate.jpg","task":"confidence","old_or_new":"new","trial_type":"html-button-response","trial_index":60,"time_elapsed":108989,"internal_node_id":"0.0-3.0-1.28","subject_id":"5fd158f6df368812e9bd6597","study_id":"606233c0e42b980319b6a18e","session_id":"60884f8cfb9683a4796695c5"},{"rt":826.4000000199303,"stimulus":"img/seashell_alternate.jpg","response":"n","image":"img/seashell_alternate.jpg","old_or_new":"new","task":"recognition","trial_type":"image-keyboard-response","trial_index":61,"time_elapsed":110318,"internal_node_id":"0.0-3.0-0.29","subject_id":"5fd158f6df368812e9bd6597","study_id":"606233c0e42b980319b6a18e","session_id":"60884f8cfb9683a4796695c5","correct":true},{"rt":590.665000025183,"stimulus":"\n      <p>How sure are you?</p>\n      <p>Rate your confidence in your answer from 1 (pure guess) to 5 (very sure) by pressing the corresponding button.</p>\n     ","response":4,"image":"img/seashell_alternate.jpg","task":"confidence","old_or_new":"new","trial_type":"html-button-response","trial_index":62,"time_elapsed":110910,"internal_node_id":"0.0-3.0-1.29","subject_id":"5fd158f6df368812e9bd6597","study_id":"606233c0e42b980319b6a18e","session_id":"60884f8cfb9683a4796695c5"},{"rt":811.9500000029802,"stimulus":"img/plate.jpg","response":"y","image":"img/plate.jpg","old_or_new":"old","task":"recognition","trial_type":"image-keyboard-response","trial_index":63,"time_elapsed":112225,"internal_node_id":"0.0-3.0-0.30","subject_id":"5fd158f6df368812e9bd6597","study_id":"606233c0e42b980319b6a18e","session_id":"60884f8cfb9683a4796695c5","correct":true},{"rt":425.0950000132434,"stimulus":"\n      <p>How sure are you?</p>\n      <p>Rate your confidence in your answer from 1 (pure guess) to 5 (very sure) by pressing the corresponding button.</p>\n     ","response":4,"image":"img/plate.jpg","task":"confidence","old_or_new":"old","trial_type":"html-button-response","trial_index":64,"time_elapsed":112652,"internal_node_id":"0.0-3.0-1.30","subject_id":"5fd158f6df368812e9bd6597","study_id":"606233c0e42b980319b6a18e","session_id":"60884f8cfb9683a4796695c5"},{"rt":889.4299999810755,"stimulus":"img/pizza_alternate.jpg","response":"n","image":"img/pizza_alternate.jpg","old_or_new":"new","task":"recognition","trial_type":"image-keyboard-response","trial_index":65,"time_elapsed":114045,"internal_node_id":"0.0-3.0-0.31","subject_id":"5fd158f6df368812e9bd6597","study_id":"606233c0e42b980319b6a18e","session_id":"60884f8cfb9683a4796695c5","correct":true},{"rt":505.44500001706183,"stimulus":"\n      <p>How sure are you?</p>\n      <p>Rate your confidence in your answer from 1 (pure guess) to 5 (very sure) by pressing the corresponding button.</p>\n     ","response":4,"image":"img/pizza_alternate.jpg","task":"confidence","old_or_new":"new","trial_type":"html-button-response","trial_index":66,"time_elapsed":114552,"internal_node_id":"0.0-3.0-1.31","subject_id":"5fd158f6df368812e9bd6597","study_id":"606233c0e42b980319b6a18e","session_id":"60884f8cfb9683a4796695c5"},{"rt":739.2849999596365,"stimulus":"img/tv.jpg","response":"y","image":"img/tv.jpg","old_or_new":"old","task":"recognition","trial_type":"image-keyboard-response","trial_index":67,"time_elapsed":115795,"internal_node_id":"0.0-3.0-0.32","subject_id":"5fd158f6df368812e9bd6597","study_id":"606233c0e42b980319b6a18e","session_id":"60884f8cfb9683a4796695c5","correct":true},{"rt":423.3150000218302,"stimulus":"\n      <p>How sure are you?</p>\n      <p>Rate your confidence in your answer from 1 (pure guess) to 5 (very sure) by pressing the corresponding button.</p>\n     ","response":4,"image":"img/tv.jpg","task":"confidence","old_or_new":"old","trial_type":"html-button-response","trial_index":68,"time_elapsed":116220,"internal_node_id":"0.0-3.0-1.32","subject_id":"5fd158f6df368812e9bd6597","study_id":"606233c0e42b980319b6a18e","session_id":"60884f8cfb9683a4796695c5"},{"rt":741.3650000235066,"stimulus":"img/knife.jpg","response":"y","image":"img/knife.jpg","old_or_new":"old","task":"recognition","trial_type":"image-keyboard-response","trial_index":69,"time_elapsed":117465,"internal_node_id":"0.0-3.0-0.33","subject_id":"5fd158f6df368812e9bd6597","study_id":"606233c0e42b980319b6a18e","session_id":"60884f8cfb9683a4796695c5","correct":true},{"rt":437.20499996561557,"stimulus":"\n      <p>How sure are you?</p>\n      <p>Rate your confidence in your answer from 1 (pure guess) to 5 (very sure) by pressing the corresponding button.</p>\n     ","response":4,"image":"img/knife.jpg","task":"confidence","old_or_new":"old","trial_type":"html-button-response","trial_index":70,"time_elapsed":117904,"internal_node_id":"0.0-3.0-1.33","subject_id":"5fd158f6df368812e9bd6597","study_id":"606233c0e42b980319b6a18e","session_id":"60884f8cfb9683a4796695c5"},{"rt":1093.8550000428222,"stimulus":"img/sink_alternate.jpg","response":"n","image":"img/sink_alternate.jpg","old_or_new":"new","task":"recognition","trial_type":"image-keyboard-response","trial_index":71,"time_elapsed":119501,"internal_node_id":"0.0-3.0-0.34","subject_id":"5fd158f6df368812e9bd6597","study_id":"606233c0e42b980319b6a18e","session_id":"60884f8cfb9683a4796695c5","correct":true},{"rt":408.64999999757856,"stimulus":"\n      <p>How sure are you?</p>\n      <p>Rate your confidence in your answer from 1 (pure guess) to 5 (very sure) by pressing the corresponding button.</p>\n     ","response":4,"image":"img/sink_alternate.jpg","task":"confidence","old_or_new":"new","trial_type":"html-button-response","trial_index":72,"time_elapsed":119912,"internal_node_id":"0.0-3.0-1.34","subject_id":"5fd158f6df368812e9bd6597","study_id":"606233c0e42b980319b6a18e","session_id":"60884f8cfb9683a4796695c5"},{"rt":845.5299999914132,"stimulus":"img/watch.jpg","response":"y","image":"img/watch.jpg","old_or_new":"old","task":"recognition","trial_type":"image-keyboard-response","trial_index":73,"time_elapsed":121261,"internal_node_id":"0.0-3.0-0.35","subject_id":"5fd158f6df368812e9bd6597","study_id":"606233c0e42b980319b6a18e","session_id":"60884f8cfb9683a4796695c5","correct":true},{"rt":414.70000002300367,"stimulus":"\n      <p>How sure are you?</p>\n      <p>Rate your confidence in your answer from 1 (pure guess) to 5 (very sure) by pressing the corresponding button.</p>\n     ","response":4,"image":"img/watch.jpg","task":"confidence","old_or_new":"old","trial_type":"html-button-response","trial_index":74,"time_elapsed":121678,"internal_node_id":"0.0-3.0-1.35","subject_id":"5fd158f6df368812e9bd6597","study_id":"606233c0e42b980319b6a18e","session_id":"60884f8cfb9683a4796695c5"},{"rt":1096.994999970775,"stimulus":"img/shoe.jpg","response":"y","image":"img/shoe.jpg","old_or_new":"old","task":"recognition","trial_type":"image-keyboard-response","trial_index":75,"time_elapsed":123278,"internal_node_id":"0.0-3.0-0.36","subject_id":"5fd158f6df368812e9bd6597","study_id":"606233c0e42b980319b6a18e","session_id":"60884f8cfb9683a4796695c5","correct":true},{"rt":392.2049999819137,"stimulus":"\n      <p>How sure are you?</p>\n      <p>Rate your confidence in your answer from 1 (pure guess) to 5 (very sure) by pressing the corresponding button.</p>\n     ","response":4,"image":"img/shoe.jpg","task":"confidence","old_or_new":"old","trial_type":"html-button-response","trial_index":76,"time_elapsed":123672,"internal_node_id":"0.0-3.0-1.36","subject_id":"5fd158f6df368812e9bd6597","study_id":"606233c0e42b980319b6a18e","session_id":"60884f8cfb9683a4796695c5"},{"rt":1069.530000037048,"stimulus":"img/plane_alternate.jpg","response":"n","image":"img/plane_alternate.jpg","old_or_new":"new","task":"recognition","trial_type":"image-keyboard-response","trial_index":77,"time_elapsed":125245,"internal_node_id":"0.0-3.0-0.37","subject_id":"5fd158f6df368812e9bd6597","study_id":"606233c0e42b980319b6a18e","session_id":"60884f8cfb9683a4796695c5","correct":true},{"rt":366.65000003995374,"stimulus":"\n      <p>How sure are you?</p>\n      <p>Rate your confidence in your answer from 1 (pure guess) to 5 (very sure) by pressing the corresponding button.</p>\n     ","response":4,"image":"img/plane_alternate.jpg","task":"confidence","old_or_new":"new","trial_type":"html-button-response","trial_index":78,"time_elapsed":125614,"internal_node_id":"0.0-3.0-1.37","subject_id":"5fd158f6df368812e9bd6597","study_id":"606233c0e42b980319b6a18e","session_id":"60884f8cfb9683a4796695c5"},{"rt":2512.5300000072457,"stimulus":"img/toothbrush_alternate.jpg","response":"n","image":"img/toothbrush_alternate.jpg","old_or_new":"new","task":"recognition","trial_type":"image-keyboard-response","trial_index":79,"time_elapsed":128629,"internal_node_id":"0.0-3.0-0.38","subject_id":"5fd158f6df368812e9bd6597","study_id":"606233c0e42b980319b6a18e","session_id":"60884f8cfb9683a4796695c5","correct":true},{"rt":963.1349999690428,"stimulus":"\n      <p>How sure are you?</p>\n      <p>Rate your confidence in your answer from 1 (pure guess) to 5 (very sure) by pressing the corresponding button.</p>\n     ","response":2,"image":"img/toothbrush_alternate.jpg","task":"confidence","old_or_new":"new","trial_type":"html-button-response","trial_index":80,"time_elapsed":129595,"internal_node_id":"0.0-3.0-1.38","subject_id":"5fd158f6df368812e9bd6597","study_id":"606233c0e42b980319b6a18e","session_id":"60884f8cfb9683a4796695c5"},{"rt":1213.9149999711663,"stimulus":"img/umbrella.jpg","response":"y","image":"img/umbrella.jpg","old_or_new":"old","task":"recognition","trial_type":"image-keyboard-response","trial_index":81,"time_elapsed":131334,"internal_node_id":"0.0-3.0-0.39","subject_id":"5fd158f6df368812e9bd6597","study_id":"606233c0e42b980319b6a18e","session_id":"60884f8cfb9683a4796695c5","correct":true},{"rt":963.2100000162609,"stimulus":"\n      <p>How sure are you?</p>\n      <p>Rate your confidence in your answer from 1 (pure guess) to 5 (very sure) by pressing the corresponding button.</p>\n     ","response":3,"image":"img/umbrella.jpg","task":"confidence","old_or_new":"old","trial_type":"html-button-response","trial_index":82,"time_elapsed":132299,"internal_node_id":"0.0-3.0-1.39","subject_id":"5fd158f6df368812e9bd6597","study_id":"606233c0e42b980319b6a18e","session_id":"60884f8cfb9683a4796695c5"},{"rt":755.1399999647401,"stimulus":"img/sink.jpg","response":"y","image":"img/sink.jpg","old_or_new":"old","task":"recognition","trial_type":"image-keyboard-response","trial_index":83,"time_elapsed":133558,"internal_node_id":"0.0-3.0-0.40","subject_id":"5fd158f6df368812e9bd6597","study_id":"606233c0e42b980319b6a18e","session_id":"60884f8cfb9683a4796695c5","correct":true},{"rt":587.4150000163354,"stimulus":"\n      <p>How sure are you?</p>\n      <p>Rate your confidence in your answer from 1 (pure guess) to 5 (very sure) by pressing the corresponding button.</p>\n     ","response":4,"image":"img/sink.jpg","task":"confidence","old_or_new":"old","trial_type":"html-button-response","trial_index":84,"time_elapsed":134147,"internal_node_id":"0.0-3.0-1.40","subject_id":"5fd158f6df368812e9bd6597","study_id":"606233c0e42b980319b6a18e","session_id":"60884f8cfb9683a4796695c5"},{"rt":1131.0899999807589,"stimulus":"img/skates_alternate.jpg","response":"n","image":"img/skates_alternate.jpg","old_or_new":"new","task":"recognition","trial_type":"image-keyboard-response","trial_index":85,"time_elapsed":135782,"internal_node_id":"0.0-3.0-0.41","subject_id":"5fd158f6df368812e9bd6597","study_id":"606233c0e42b980319b6a18e","session_id":"60884f8cfb9683a4796695c5","correct":true},{"rt":1087.749999947846,"stimulus":"\n      <p>How sure are you?</p>\n      <p>Rate your confidence in your answer from 1 (pure guess) to 5 (very sure) by pressing the corresponding button.</p>\n     ","response":4,"image":"img/skates_alternate.jpg","task":"confidence","old_or_new":"new","trial_type":"html-button-response","trial_index":86,"time_elapsed":136871,"internal_node_id":"0.0-3.0-1.41","subject_id":"5fd158f6df368812e9bd6597","study_id":"606233c0e42b980319b6a18e","session_id":"60884f8cfb9683a4796695c5"},{"rt":868.6899999738671,"stimulus":"img/yarn_alternate.jpg","response":"n","image":"img/yarn_alternate.jpg","old_or_new":"new","task":"recognition","trial_type":"image-keyboard-response","trial_index":87,"time_elapsed":138244,"internal_node_id":"0.0-3.0-0.42","subject_id":"5fd158f6df368812e9bd6597","study_id":"606233c0e42b980319b6a18e","session_id":"60884f8cfb9683a4796695c5","correct":true},{"rt":437.5599999912083,"stimulus":"\n      <p>How sure are you?</p>\n      <p>Rate your confidence in your answer from 1 (pure guess) to 5 (very sure) by pressing the corresponding button.</p>\n     ","response":4,"image":"img/yarn_alternate.jpg","task":"confidence","old_or_new":"new","trial_type":"html-button-response","trial_index":88,"time_elapsed":138684,"internal_node_id":"0.0-3.0-1.42","subject_id":"5fd158f6df368812e9bd6597","study_id":"606233c0e42b980319b6a18e","session_id":"60884f8cfb9683a4796695c5"},{"rt":2269.7449999977835,"stimulus":"img/scissors.jpg","response":"y","image":"img/scissors.jpg","old_or_new":"old","task":"recognition","trial_type":"image-keyboard-response","trial_index":89,"time_elapsed":141457,"internal_node_id":"0.0-3.0-0.43","subject_id":"5fd158f6df368812e9bd6597","study_id":"606233c0e42b980319b6a18e","session_id":"60884f8cfb9683a4796695c5","correct":true},{"rt":570.5399999860674,"stimulus":"\n      <p>How sure are you?</p>\n      <p>Rate your confidence in your answer from 1 (pure guess) to 5 (very sure) by pressing the corresponding button.</p>\n     ","response":3,"image":"img/scissors.jpg","task":"confidence","old_or_new":"old","trial_type":"html-button-response","trial_index":90,"time_elapsed":142029,"internal_node_id":"0.0-3.0-1.43","subject_id":"5fd158f6df368812e9bd6597","study_id":"606233c0e42b980319b6a18e","session_id":"60884f8cfb9683a4796695c5"},{"rt":782.9550000024028,"stimulus":"img/toothbrush.jpg","response":"y","image":"img/toothbrush.jpg","old_or_new":"old","task":"recognition","trial_type":"image-keyboard-response","trial_index":91,"time_elapsed":143315,"internal_node_id":"0.0-3.0-0.44","subject_id":"5fd158f6df368812e9bd6597","study_id":"606233c0e42b980319b6a18e","session_id":"60884f8cfb9683a4796695c5","correct":true},{"rt":460.08499996969476,"stimulus":"\n      <p>How sure are you?</p>\n      <p>Rate your confidence in your answer from 1 (pure guess) to 5 (very sure) by pressing the corresponding button.</p>\n     ","response":4,"image":"img/toothbrush.jpg","task":"confidence","old_or_new":"old","trial_type":"html-button-response","trial_index":92,"time_elapsed":143777,"internal_node_id":"0.0-3.0-1.44","subject_id":"5fd158f6df368812e9bd6597","study_id":"606233c0e42b980319b6a18e","session_id":"60884f8cfb9683a4796695c5"},{"rt":1486.6349999792874,"stimulus":"img/wheel_barrow_alternate.jpg","response":"n","image":"img/wheel_barrow_alternate.jpg","old_or_new":"new","task":"recognition","trial_type":"image-keyboard-response","trial_index":93,"time_elapsed":145767,"internal_node_id":"0.0-3.0-0.45","subject_id":"5fd158f6df368812e9bd6597","study_id":"606233c0e42b980319b6a18e","session_id":"60884f8cfb9683a4796695c5","correct":true},{"rt":406.5150000387803,"stimulus":"\n      <p>How sure are you?</p>\n      <p>Rate your confidence in your answer from 1 (pure guess) to 5 (very sure) by pressing the corresponding button.</p>\n     ","response":4,"image":"img/wheel_barrow_alternate.jpg","task":"confidence","old_or_new":"new","trial_type":"html-button-response","trial_index":94,"time_elapsed":146175,"internal_node_id":"0.0-3.0-1.45","subject_id":"5fd158f6df368812e9bd6597","study_id":"606233c0e42b980319b6a18e","session_id":"60884f8cfb9683a4796695c5"},{"rt":818.6349999741651,"stimulus":"img/shovel.jpg","response":"y","image":"img/shovel.jpg","old_or_new":"old","task":"recognition","trial_type":"image-keyboard-response","trial_index":95,"time_elapsed":147497,"internal_node_id":"0.0-3.0-0.46","subject_id":"5fd158f6df368812e9bd6597","study_id":"606233c0e42b980319b6a18e","session_id":"60884f8cfb9683a4796695c5","correct":true},{"rt":409.8150000208989,"stimulus":"\n      <p>How sure are you?</p>\n      <p>Rate your confidence in your answer from 1 (pure guess) to 5 (very sure) by pressing the corresponding button.</p>\n     ","response":4,"image":"img/shovel.jpg","task":"confidence","old_or_new":"old","trial_type":"html-button-response","trial_index":96,"time_elapsed":147909,"internal_node_id":"0.0-3.0-1.46","subject_id":"5fd158f6df368812e9bd6597","study_id":"606233c0e42b980319b6a18e","session_id":"60884f8cfb9683a4796695c5"},{"rt":854.4499999843538,"stimulus":"img/parfait.jpg","response":"y","image":"img/parfait.jpg","old_or_new":"old","task":"recognition","trial_type":"image-keyboard-response","trial_index":97,"time_elapsed":149266,"internal_node_id":"0.0-3.0-0.47","subject_id":"5fd158f6df368812e9bd6597","study_id":"606233c0e42b980319b6a18e","session_id":"60884f8cfb9683a4796695c5","correct":true},{"rt":406.27999999560416,"stimulus":"\n      <p>How sure are you?</p>\n      <p>Rate your confidence in your answer from 1 (pure guess) to 5 (very sure) by pressing the corresponding button.</p>\n     ","response":4,"image":"img/parfait.jpg","task":"confidence","old_or_new":"old","trial_type":"html-button-response","trial_index":98,"time_elapsed":149675,"internal_node_id":"0.0-3.0-1.47","subject_id":"5fd158f6df368812e9bd6597","study_id":"606233c0e42b980319b6a18e","session_id":"60884f8cfb9683a4796695c5"}]