[{"success":true,"timeout":false,"failed_images":[],"failed_audio":[],"failed_video":[],"trial_type":"preload","trial_index":0,"time_elapsed":6531,"internal_node_id":"0.0-0.0","subject_id":"5c488ea98e527100017f912f","study_id":"606233c0e42b980319b6a18e","session_id":"60886de050ada0b0ca54e92a"},{"rt":19133.28999999794,"stimulus":"\n      <div style=\"width:800px; text-align: left;\">\n        <p>Welcome to day 2 of the experiment! Thanks for coming back.</p>\n        <p>You will be presented with a series of images. Images will appear one at a time.</p>\n        <p>Each image will remain on the screen until you press either <span style=\"font-weight: bold;\">\"y\" to indicate you have seen the \n        exact same photo the day before or \"n\" to indicate you have not seen the exact same photo the day before.</span></p>\n        <p>After you answer yes (\"y\") or no (\"n\"), you will then be prompted to rate your certainty on a scale of\n        1 (pure guess) to 5 (very sure).</p>\n      </div>\n    ","response":0,"trial_type":"html-button-response","trial_index":1,"time_elapsed":25665,"internal_node_id":"0.0-1.0","subject_id":"5c488ea98e527100017f912f","study_id":"606233c0e42b980319b6a18e","session_id":"60886de050ada0b0ca54e92a"},{"success":true,"trial_type":"fullscreen","trial_index":2,"time_elapsed":28994,"internal_node_id":"0.0-2.0","subject_id":"5c488ea98e527100017f912f","study_id":"606233c0e42b980319b6a18e","session_id":"60886de050ada0b0ca54e92a"},{"rt":1612.26500000339,"stimulus":"img/umbrella_alternate.jpg","response":"y","image":"img/umbrella_alternate.jpg","old_or_new":"new","task":"recognition","trial_type":"image-keyboard-response","trial_index":3,"time_elapsed":30613,"internal_node_id":"0.0-3.0-0.0","subject_id":"5c488ea98e527100017f912f","study_id":"606233c0e42b980319b6a18e","session_id":"60886de050ada0b0ca54e92a","correct":false},{"rt":1618.3099999980186,"stimulus":"\n      <p>How sure are you?</p>\n      <p>Rate your confidence in your answer from 1 (pure guess) to 5 (very sure) by pressing the corresponding button.</p>\n     ","response":2,"image":"img/umbrella_alternate.jpg","task":"confidence","old_or_new":"new","trial_type":"html-button-response","trial_index":4,"time_elapsed":32232,"internal_node_id":"0.0-3.0-1.0","subject_id":"5c488ea98e527100017f912f","study_id":"606233c0e42b980319b6a18e","session_id":"60886de050ada0b0ca54e92a"},{"rt":895.9000000031665,"stimulus":"img/rolling_pin.jpg","response":"y","image":"img/rolling_pin.jpg","old_or_new":"old","task":"recognition","trial_type":"image-keyboard-response","trial_index":5,"time_elapsed":33631,"internal_node_id":"0.0-3.0-0.1","subject_id":"5c488ea98e527100017f912f","study_id":"606233c0e42b980319b6a18e","session_id":"60886de050ada0b0ca54e92a","correct":true},{"rt":792.7749999944353,"stimulus":"\n      <p>How sure are you?</p>\n      <p>Rate your confidence in your answer from 1 (pure guess) to 5 (very sure) by pressing the corresponding button.</p>\n     ","response":4,"image":"img/rolling_pin.jpg","task":"confidence","old_or_new":"old","trial_type":"html-button-response","trial_index":6,"time_elapsed":34425,"internal_node_id":"0.0-3.0-1.1","subject_id":"5c488ea98e527100017f912f","study_id":"606233c0e42b980319b6a18e","session_id":"60886de050ada0b0ca54e92a"},{"rt":677.9749999986961,"stimulus":"img/trophy_alternate.jpg","response":"y","image":"img/trophy_alternate.jpg","old_or_new":"new","task":"recognition","trial_type":"image-keyboard-response","trial_index":7,"time_elapsed":35605,"internal_node_id":"0.0-3.0-0.2","subject_id":"5c488ea98e527100017f912f","study_id":"606233c0e42b980319b6a18e","session_id":"60886de050ada0b0ca54e92a","correct":false},{"rt":970.645000001241,"stimulus":"\n      <p>How sure are you?</p>\n      <p>Rate your confidence in your answer from 1 (pure guess) to 5 (very sure) by pressing the corresponding button.</p>\n     ","response":1,"image":"img/trophy_alternate.jpg","task":"confidence","old_or_new":"new","trial_type":"html-button-response","trial_index":8,"time_elapsed":36577,"internal_node_id":"0.0-3.0-1.2","subject_id":"5c488ea98e527100017f912f","study_id":"606233c0e42b980319b6a18e","session_id":"60886de050ada0b0ca54e92a"},{"rt":1347.69999999844,"stimulus":"img/wheel_barrow.jpg","response":"n","image":"img/wheel_barrow.jpg","old_or_new":"old","task":"recognition","trial_type":"image-keyboard-response","trial_index":9,"time_elapsed":38427,"internal_node_id":"0.0-3.0-0.3","subject_id":"5c488ea98e527100017f912f","study_id":"606233c0e42b980319b6a18e","session_id":"60886de050ada0b0ca54e92a","correct":false},{"rt":1197.1249999987776,"stimulus":"\n      <p>How sure are you?</p>\n      <p>Rate your confidence in your answer from 1 (pure guess) to 5 (very sure) by pressing the corresponding button.</p>\n     ","response":4,"image":"img/wheel_barrow.jpg","task":"confidence","old_or_new":"old","trial_type":"html-button-response","trial_index":10,"time_elapsed":39625,"internal_node_id":"0.0-3.0-1.3","subject_id":"5c488ea98e527100017f912f","study_id":"606233c0e42b980319b6a18e","session_id":"60886de050ada0b0ca54e92a"},{"rt":831.4700000046287,"stimulus":"img/toaster.jpg","response":"y","image":"img/toaster.jpg","old_or_new":"old","task":"recognition","trial_type":"image-keyboard-response","trial_index":11,"time_elapsed":40959,"internal_node_id":"0.0-3.0-0.4","subject_id":"5c488ea98e527100017f912f","study_id":"606233c0e42b980319b6a18e","session_id":"60886de050ada0b0ca54e92a","correct":true},{"rt":656.6050000037649,"stimulus":"\n      <p>How sure are you?</p>\n      <p>Rate your confidence in your answer from 1 (pure guess) to 5 (very sure) by pressing the corresponding button.</p>\n     ","response":4,"image":"img/toaster.jpg","task":"confidence","old_or_new":"old","trial_type":"html-button-response","trial_index":12,"time_elapsed":41617,"internal_node_id":"0.0-3.0-1.4","subject_id":"5c488ea98e527100017f912f","study_id":"606233c0e42b980319b6a18e","session_id":"60886de050ada0b0ca54e92a"},{"rt":721.8049999937648,"stimulus":"img/spoon.jpg","response":"n","image":"img/spoon.jpg","old_or_new":"old","task":"recognition","trial_type":"image-keyboard-response","trial_index":13,"time_elapsed":42840,"internal_node_id":"0.0-3.0-0.5","subject_id":"5c488ea98e527100017f912f","study_id":"606233c0e42b980319b6a18e","session_id":"60886de050ada0b0ca54e92a","correct":false},{"rt":950.8900000000722,"stimulus":"\n      <p>How sure are you?</p>\n      <p>Rate your confidence in your answer from 1 (pure guess) to 5 (very sure) by pressing the corresponding button.</p>\n     ","response":0,"image":"img/spoon.jpg","task":"confidence","old_or_new":"old","trial_type":"html-button-response","trial_index":14,"time_elapsed":43793,"internal_node_id":"0.0-3.0-1.5","subject_id":"5c488ea98e527100017f912f","study_id":"606233c0e42b980319b6a18e","session_id":"60886de050ada0b0ca54e92a"},{"rt":2009.5250000013039,"stimulus":"img/scissors_alternate.jpg","response":"y","image":"img/scissors_alternate.jpg","old_or_new":"new","task":"recognition","trial_type":"image-keyboard-response","trial_index":15,"time_elapsed":46304,"internal_node_id":"0.0-3.0-0.6","subject_id":"5c488ea98e527100017f912f","study_id":"606233c0e42b980319b6a18e","session_id":"60886de050ada0b0ca54e92a","correct":false},{"rt":719.295000002603,"stimulus":"\n      <p>How sure are you?</p>\n      <p>Rate your confidence in your answer from 1 (pure guess) to 5 (very sure) by pressing the corresponding button.</p>\n     ","response":3,"image":"img/scissors_alternate.jpg","task":"confidence","old_or_new":"new","trial_type":"html-button-response","trial_index":16,"time_elapsed":47025,"internal_node_id":"0.0-3.0-1.6","subject_id":"5c488ea98e527100017f912f","study_id":"606233c0e42b980319b6a18e","session_id":"60886de050ada0b0ca54e92a"},{"rt":665.6999999977415,"stimulus":"img/wheel_barrow_alternate.jpg","response":"n","image":"img/wheel_barrow_alternate.jpg","old_or_new":"new","task":"recognition","trial_type":"image-keyboard-response","trial_index":17,"time_elapsed":48193,"internal_node_id":"0.0-3.0-0.7","subject_id":"5c488ea98e527100017f912f","study_id":"606233c0e42b980319b6a18e","session_id":"60886de050ada0b0ca54e92a","correct":true},{"rt":638.4150000012596,"stimulus":"\n      <p>How sure are you?</p>\n      <p>Rate your confidence in your answer from 1 (pure guess) to 5 (very sure) by pressing the corresponding button.</p>\n     ","response":1,"image":"img/wheel_barrow_alternate.jpg","task":"confidence","old_or_new":"new","trial_type":"html-button-response","trial_index":18,"time_elapsed":48833,"internal_node_id":"0.0-3.0-1.7","subject_id":"5c488ea98e527100017f912f","study_id":"606233c0e42b980319b6a18e","session_id":"60886de050ada0b0ca54e92a"},{"rt":1556.3449999972363,"stimulus":"img/plane_alternate.jpg","response":"n","image":"img/plane_alternate.jpg","old_or_new":"new","task":"recognition","trial_type":"image-keyboard-response","trial_index":19,"time_elapsed":50891,"internal_node_id":"0.0-3.0-0.8","subject_id":"5c488ea98e527100017f912f","study_id":"606233c0e42b980319b6a18e","session_id":"60886de050ada0b0ca54e92a","correct":true},{"rt":508.190000000468,"stimulus":"\n      <p>How sure are you?</p>\n      <p>Rate your confidence in your answer from 1 (pure guess) to 5 (very sure) by pressing the corresponding button.</p>\n     ","response":2,"image":"img/plane_alternate.jpg","task":"confidence","old_or_new":"new","trial_type":"html-button-response","trial_index":20,"time_elapsed":51401,"internal_node_id":"0.0-3.0-1.8","subject_id":"5c488ea98e527100017f912f","study_id":"606233c0e42b980319b6a18e","session_id":"60886de050ada0b0ca54e92a"},{"rt":1657.77500000695,"stimulus":"img/tv_alternate.jpg","response":"n","image":"img/tv_alternate.jpg","old_or_new":"new","task":"recognition","trial_type":"image-keyboard-response","trial_index":21,"time_elapsed":53561,"internal_node_id":"0.0-3.0-0.9","subject_id":"5c488ea98e527100017f912f","study_id":"606233c0e42b980319b6a18e","session_id":"60886de050ada0b0ca54e92a","correct":true},{"rt":478.58000000269385,"stimulus":"\n      <p>How sure are you?</p>\n      <p>Rate your confidence in your answer from 1 (pure guess) to 5 (very sure) by pressing the corresponding button.</p>\n     ","response":2,"image":"img/tv_alternate.jpg","task":"confidence","old_or_new":"new","trial_type":"html-button-response","trial_index":22,"time_elapsed":54040,"internal_node_id":"0.0-3.0-1.9","subject_id":"5c488ea98e527100017f912f","study_id":"606233c0e42b980319b6a18e","session_id":"60886de050ada0b0ca54e92a"},{"rt":1670.0400000045192,"stimulus":"img/spoon_alternate.jpg","response":"y","image":"img/spoon_alternate.jpg","old_or_new":"new","task":"recognition","trial_type":"image-keyboard-response","trial_index":23,"time_elapsed":56212,"internal_node_id":"0.0-3.0-0.10","subject_id":"5c488ea98e527100017f912f","study_id":"606233c0e42b980319b6a18e","session_id":"60886de050ada0b0ca54e92a","correct":false},{"rt":858.2800000003772,"stimulus":"\n      <p>How sure are you?</p>\n      <p>Rate your confidence in your answer from 1 (pure guess) to 5 (very sure) by pressing the corresponding button.</p>\n     ","response":2,"image":"img/spoon_alternate.jpg","task":"confidence","old_or_new":"new","trial_type":"html-button-response","trial_index":24,"time_elapsed":57073,"internal_node_id":"0.0-3.0-1.10","subject_id":"5c488ea98e527100017f912f","study_id":"606233c0e42b980319b6a18e","session_id":"60886de050ada0b0ca54e92a"},{"rt":700.2799999972922,"stimulus":"img/pencil_sharpener.jpg","response":"y","image":"img/pencil_sharpener.jpg","old_or_new":"old","task":"recognition","trial_type":"image-keyboard-response","trial_index":25,"time_elapsed":58275,"internal_node_id":"0.0-3.0-0.11","subject_id":"5c488ea98e527100017f912f","study_id":"606233c0e42b980319b6a18e","session_id":"60886de050ada0b0ca54e92a","correct":true},{"rt":884.8949999955948,"stimulus":"\n      <p>How sure are you?</p>\n      <p>Rate your confidence in your answer from 1 (pure guess) to 5 (very sure) by pressing the corresponding button.</p>\n     ","response":4,"image":"img/pencil_sharpener.jpg","task":"confidence","old_or_new":"old","trial_type":"html-button-response","trial_index":26,"time_elapsed":59161,"internal_node_id":"0.0-3.0-1.11","subject_id":"5c488ea98e527100017f912f","study_id":"606233c0e42b980319b6a18e","session_id":"60886de050ada0b0ca54e92a"},{"rt":803.1499999997322,"stimulus":"img/skates_alternate.jpg","response":"y","image":"img/skates_alternate.jpg","old_or_new":"new","task":"recognition","trial_type":"image-keyboard-response","trial_index":27,"time_elapsed":60466,"internal_node_id":"0.0-3.0-0.12","subject_id":"5c488ea98e527100017f912f","study_id":"606233c0e42b980319b6a18e","session_id":"60886de050ada0b0ca54e92a","correct":false},{"rt":717.4999999988358,"stimulus":"\n      <p>How sure are you?</p>\n      <p>Rate your confidence in your answer from 1 (pure guess) to 5 (very sure) by pressing the corresponding button.</p>\n     ","response":4,"image":"img/skates_alternate.jpg","task":"confidence","old_or_new":"new","trial_type":"html-button-response","trial_index":28,"time_elapsed":61185,"internal_node_id":"0.0-3.0-1.12","subject_id":"5c488ea98e527100017f912f","study_id":"606233c0e42b980319b6a18e","session_id":"60886de050ada0b0ca54e92a"},{"rt":789.279999997234,"stimulus":"img/seashell.jpg","response":"y","image":"img/seashell.jpg","old_or_new":"old","task":"recognition","trial_type":"image-keyboard-response","trial_index":29,"time_elapsed":62476,"internal_node_id":"0.0-3.0-0.13","subject_id":"5c488ea98e527100017f912f","study_id":"606233c0e42b980319b6a18e","session_id":"60886de050ada0b0ca54e92a","correct":true},{"rt":507.1349999998347,"stimulus":"\n      <p>How sure are you?</p>\n      <p>Rate your confidence in your answer from 1 (pure guess) to 5 (very sure) by pressing the corresponding button.</p>\n     ","response":4,"image":"img/seashell.jpg","task":"confidence","old_or_new":"old","trial_type":"html-button-response","trial_index":30,"time_elapsed":62984,"internal_node_id":"0.0-3.0-1.13","subject_id":"5c488ea98e527100017f912f","study_id":"606233c0e42b980319b6a18e","session_id":"60886de050ada0b0ca54e92a"},{"rt":850.1449999967008,"stimulus":"img/sink.jpg","response":"y","image":"img/sink.jpg","old_or_new":"old","task":"recognition","trial_type":"image-keyboard-response","trial_index":31,"time_elapsed":64337,"internal_node_id":"0.0-3.0-0.14","subject_id":"5c488ea98e527100017f912f","study_id":"606233c0e42b980319b6a18e","session_id":"60886de050ada0b0ca54e92a","correct":true},{"rt":646.7649999976857,"stimulus":"\n      <p>How sure are you?</p>\n      <p>Rate your confidence in your answer from 1 (pure guess) to 5 (very sure) by pressing the corresponding button.</p>\n     ","response":4,"image":"img/sink.jpg","task":"confidence","old_or_new":"old","trial_type":"html-button-response","trial_index":32,"time_elapsed":64985,"internal_node_id":"0.0-3.0-1.14","subject_id":"5c488ea98e527100017f912f","study_id":"606233c0e42b980319b6a18e","session_id":"60886de050ada0b0ca54e92a"},{"rt":1064.0649999986636,"stimulus":"img/yarn_alternate.jpg","response":"n","image":"img/yarn_alternate.jpg","old_or_new":"new","task":"recognition","trial_type":"image-keyboard-response","trial_index":33,"time_elapsed":66551,"internal_node_id":"0.0-3.0-0.15","subject_id":"5c488ea98e527100017f912f","study_id":"606233c0e42b980319b6a18e","session_id":"60886de050ada0b0ca54e92a","correct":true},{"rt":672.1450000040932,"stimulus":"\n      <p>How sure are you?</p>\n      <p>Rate your confidence in your answer from 1 (pure guess) to 5 (very sure) by pressing the corresponding button.</p>\n     ","response":1,"image":"img/yarn_alternate.jpg","task":"confidence","old_or_new":"new","trial_type":"html-button-response","trial_index":34,"time_elapsed":67224,"internal_node_id":"0.0-3.0-1.15","subject_id":"5c488ea98e527100017f912f","study_id":"606233c0e42b980319b6a18e","session_id":"60886de050ada0b0ca54e92a"},{"rt":770.104999995965,"stimulus":"img/toothbrush.jpg","response":"n","image":"img/toothbrush.jpg","old_or_new":"old","task":"recognition","trial_type":"image-keyboard-response","trial_index":35,"time_elapsed":68496,"internal_node_id":"0.0-3.0-0.16","subject_id":"5c488ea98e527100017f912f","study_id":"606233c0e42b980319b6a18e","session_id":"60886de050ada0b0ca54e92a","correct":false},{"rt":439.089999999851,"stimulus":"\n      <p>How sure are you?</p>\n      <p>Rate your confidence in your answer from 1 (pure guess) to 5 (very sure) by pressing the corresponding button.</p>\n     ","response":1,"image":"img/toothbrush.jpg","task":"confidence","old_or_new":"old","trial_type":"html-button-response","trial_index":36,"time_elapsed":68937,"internal_node_id":"0.0-3.0-1.16","subject_id":"5c488ea98e527100017f912f","study_id":"606233c0e42b980319b6a18e","session_id":"60886de050ada0b0ca54e92a"},{"rt":659.9449999994249,"stimulus":"img/trophy.jpg","response":"y","image":"img/trophy.jpg","old_or_new":"old","task":"recognition","trial_type":"image-keyboard-response","trial_index":37,"time_elapsed":70098,"internal_node_id":"0.0-3.0-0.17","subject_id":"5c488ea98e527100017f912f","study_id":"606233c0e42b980319b6a18e","session_id":"60886de050ada0b0ca54e92a","correct":true},{"rt":917.0200000007753,"stimulus":"\n      <p>How sure are you?</p>\n      <p>Rate your confidence in your answer from 1 (pure guess) to 5 (very sure) by pressing the corresponding button.</p>\n     ","response":3,"image":"img/trophy.jpg","task":"confidence","old_or_new":"old","trial_type":"html-button-response","trial_index":38,"time_elapsed":71016,"internal_node_id":"0.0-3.0-1.17","subject_id":"5c488ea98e527100017f912f","study_id":"606233c0e42b980319b6a18e","session_id":"60886de050ada0b0ca54e92a"},{"rt":602.9950000011013,"stimulus":"img/knife.jpg","response":"y","image":"img/knife.jpg","old_or_new":"old","task":"recognition","trial_type":"image-keyboard-response","trial_index":39,"time_elapsed":72122,"internal_node_id":"0.0-3.0-0.18","subject_id":"5c488ea98e527100017f912f","study_id":"606233c0e42b980319b6a18e","session_id":"60886de050ada0b0ca54e92a","correct":true},{"rt":469.47499999805586,"stimulus":"\n      <p>How sure are you?</p>\n      <p>Rate your confidence in your answer from 1 (pure guess) to 5 (very sure) by pressing the corresponding button.</p>\n     ","response":3,"image":"img/knife.jpg","task":"confidence","old_or_new":"old","trial_type":"html-button-response","trial_index":40,"time_elapsed":72592,"internal_node_id":"0.0-3.0-1.18","subject_id":"5c488ea98e527100017f912f","study_id":"606233c0e42b980319b6a18e","session_id":"60886de050ada0b0ca54e92a"},{"rt":650.3450000018347,"stimulus":"img/pizza.jpg","response":"n","image":"img/pizza.jpg","old_or_new":"old","task":"recognition","trial_type":"image-keyboard-response","trial_index":41,"time_elapsed":73746,"internal_node_id":"0.0-3.0-0.19","subject_id":"5c488ea98e527100017f912f","study_id":"606233c0e42b980319b6a18e","session_id":"60886de050ada0b0ca54e92a","correct":false},{"rt":941.2850000007893,"stimulus":"\n      <p>How sure are you?</p>\n      <p>Rate your confidence in your answer from 1 (pure guess) to 5 (very sure) by pressing the corresponding button.</p>\n     ","response":1,"image":"img/pizza.jpg","task":"confidence","old_or_new":"old","trial_type":"html-button-response","trial_index":42,"time_elapsed":74688,"internal_node_id":"0.0-3.0-1.19","subject_id":"5c488ea98e527100017f912f","study_id":"606233c0e42b980319b6a18e","session_id":"60886de050ada0b0ca54e92a"},{"rt":932.2700000047917,"stimulus":"img/yarn.jpg","response":"y","image":"img/yarn.jpg","old_or_new":"old","task":"recognition","trial_type":"image-keyboard-response","trial_index":43,"time_elapsed":76123,"internal_node_id":"0.0-3.0-0.20","subject_id":"5c488ea98e527100017f912f","study_id":"606233c0e42b980319b6a18e","session_id":"60886de050ada0b0ca54e92a","correct":true},{"rt":516.3700000048266,"stimulus":"\n      <p>How sure are you?</p>\n      <p>Rate your confidence in your answer from 1 (pure guess) to 5 (very sure) by pressing the corresponding button.</p>\n     ","response":4,"image":"img/yarn.jpg","task":"confidence","old_or_new":"old","trial_type":"html-button-response","trial_index":44,"time_elapsed":76641,"internal_node_id":"0.0-3.0-1.20","subject_id":"5c488ea98e527100017f912f","study_id":"606233c0e42b980319b6a18e","session_id":"60886de050ada0b0ca54e92a"},{"rt":2696.735000004992,"stimulus":"img/parfait.jpg","response":"y","image":"img/parfait.jpg","old_or_new":"old","task":"recognition","trial_type":"image-keyboard-response","trial_index":45,"time_elapsed":79839,"internal_node_id":"0.0-3.0-0.21","subject_id":"5c488ea98e527100017f912f","study_id":"606233c0e42b980319b6a18e","session_id":"60886de050ada0b0ca54e92a","correct":true},{"rt":1368.1549999964773,"stimulus":"\n      <p>How sure are you?</p>\n      <p>Rate your confidence in your answer from 1 (pure guess) to 5 (very sure) by pressing the corresponding button.</p>\n     ","response":4,"image":"img/parfait.jpg","task":"confidence","old_or_new":"old","trial_type":"html-button-response","trial_index":46,"time_elapsed":81208,"internal_node_id":"0.0-3.0-1.21","subject_id":"5c488ea98e527100017f912f","study_id":"606233c0e42b980319b6a18e","session_id":"60886de050ada0b0ca54e92a"},{"rt":730.4799999983516,"stimulus":"img/shoe_alternate.jpg","response":"n","image":"img/shoe_alternate.jpg","old_or_new":"new","task":"recognition","trial_type":"image-keyboard-response","trial_index":47,"time_elapsed":82440,"internal_node_id":"0.0-3.0-0.22","subject_id":"5c488ea98e527100017f912f","study_id":"606233c0e42b980319b6a18e","session_id":"60886de050ada0b0ca54e92a","correct":true},{"rt":1367.050000000745,"stimulus":"\n      <p>How sure are you?</p>\n      <p>Rate your confidence in your answer from 1 (pure guess) to 5 (very sure) by pressing the corresponding button.</p>\n     ","response":4,"image":"img/shoe_alternate.jpg","task":"confidence","old_or_new":"new","trial_type":"html-button-response","trial_index":48,"time_elapsed":83808,"internal_node_id":"0.0-3.0-1.22","subject_id":"5c488ea98e527100017f912f","study_id":"606233c0e42b980319b6a18e","session_id":"60886de050ada0b0ca54e92a"},{"rt":760.6000000014319,"stimulus":"img/pencil_sharpener_alternate.jpg","response":"n","image":"img/pencil_sharpener_alternate.jpg","old_or_new":"new","task":"recognition","trial_type":"image-keyboard-response","trial_index":49,"time_elapsed":85071,"internal_node_id":"0.0-3.0-0.23","subject_id":"5c488ea98e527100017f912f","study_id":"606233c0e42b980319b6a18e","session_id":"60886de050ada0b0ca54e92a","correct":true},{"rt":713.0049999977928,"stimulus":"\n      <p>How sure are you?</p>\n      <p>Rate your confidence in your answer from 1 (pure guess) to 5 (very sure) by pressing the corresponding button.</p>\n     ","response":2,"image":"img/pencil_sharpener_alternate.jpg","task":"confidence","old_or_new":"new","trial_type":"html-button-response","trial_index":50,"time_elapsed":85785,"internal_node_id":"0.0-3.0-1.23","subject_id":"5c488ea98e527100017f912f","study_id":"606233c0e42b980319b6a18e","session_id":"60886de050ada0b0ca54e92a"},{"rt":897.8600000045844,"stimulus":"img/shirt.jpg","response":"y","image":"img/shirt.jpg","old_or_new":"old","task":"recognition","trial_type":"image-keyboard-response","trial_index":51,"time_elapsed":87184,"internal_node_id":"0.0-3.0-0.24","subject_id":"5c488ea98e527100017f912f","study_id":"606233c0e42b980319b6a18e","session_id":"60886de050ada0b0ca54e92a","correct":true},{"rt":551.6649999990477,"stimulus":"\n      <p>How sure are you?</p>\n      <p>Rate your confidence in your answer from 1 (pure guess) to 5 (very sure) by pressing the corresponding button.</p>\n     ","response":3,"image":"img/shirt.jpg","task":"confidence","old_or_new":"old","trial_type":"html-button-response","trial_index":52,"time_elapsed":87737,"internal_node_id":"0.0-3.0-1.24","subject_id":"5c488ea98e527100017f912f","study_id":"606233c0e42b980319b6a18e","session_id":"60886de050ada0b0ca54e92a"},{"rt":813.7000000060652,"stimulus":"img/tv.jpg","response":"n","image":"img/tv.jpg","old_or_new":"old","task":"recognition","trial_type":"image-keyboard-response","trial_index":53,"time_elapsed":89053,"internal_node_id":"0.0-3.0-0.25","subject_id":"5c488ea98e527100017f912f","study_id":"606233c0e42b980319b6a18e","session_id":"60886de050ada0b0ca54e92a","correct":false},{"rt":522.6800000018557,"stimulus":"\n      <p>How sure are you?</p>\n      <p>Rate your confidence in your answer from 1 (pure guess) to 5 (very sure) by pressing the corresponding button.</p>\n     ","response":2,"image":"img/tv.jpg","task":"confidence","old_or_new":"old","trial_type":"html-button-response","trial_index":54,"time_elapsed":89576,"internal_node_id":"0.0-3.0-1.25","subject_id":"5c488ea98e527100017f912f","study_id":"606233c0e42b980319b6a18e","session_id":"60886de050ada0b0ca54e92a"},{"rt":659.814999999071,"stimulus":"img/toothbrush_alternate.jpg","response":"n","image":"img/toothbrush_alternate.jpg","old_or_new":"new","task":"recognition","trial_type":"image-keyboard-response","trial_index":55,"time_elapsed":90739,"internal_node_id":"0.0-3.0-0.26","subject_id":"5c488ea98e527100017f912f","study_id":"606233c0e42b980319b6a18e","session_id":"60886de050ada0b0ca54e92a","correct":true},{"rt":373.00999999570195,"stimulus":"\n      <p>How sure are you?</p>\n      <p>Rate your confidence in your answer from 1 (pure guess) to 5 (very sure) by pressing the corresponding button.</p>\n     ","response":2,"image":"img/toothbrush_alternate.jpg","task":"confidence","old_or_new":"new","trial_type":"html-button-response","trial_index":56,"time_elapsed":91113,"internal_node_id":"0.0-3.0-1.26","subject_id":"5c488ea98e527100017f912f","study_id":"606233c0e42b980319b6a18e","session_id":"60886de050ada0b0ca54e92a"},{"rt":725.4650000031688,"stimulus":"img/umbrella.jpg","response":"y","image":"img/umbrella.jpg","old_or_new":"old","task":"recognition","trial_type":"image-keyboard-response","trial_index":57,"time_elapsed":92341,"internal_node_id":"0.0-3.0-0.27","subject_id":"5c488ea98e527100017f912f","study_id":"606233c0e42b980319b6a18e","session_id":"60886de050ada0b0ca54e92a","correct":true},{"rt":442.8299999999581,"stimulus":"\n      <p>How sure are you?</p>\n      <p>Rate your confidence in your answer from 1 (pure guess) to 5 (very sure) by pressing the corresponding button.</p>\n     ","response":2,"image":"img/umbrella.jpg","task":"confidence","old_or_new":"old","trial_type":"html-button-response","trial_index":58,"time_elapsed":92784,"internal_node_id":"0.0-3.0-1.27","subject_id":"5c488ea98e527100017f912f","study_id":"606233c0e42b980319b6a18e","session_id":"60886de050ada0b0ca54e92a"},{"rt":684.1050000002724,"stimulus":"img/seashell_alternate.jpg","response":"y","image":"img/seashell_alternate.jpg","old_or_new":"new","task":"recognition","trial_type":"image-keyboard-response","trial_index":59,"time_elapsed":93971,"internal_node_id":"0.0-3.0-0.28","subject_id":"5c488ea98e527100017f912f","study_id":"606233c0e42b980319b6a18e","session_id":"60886de050ada0b0ca54e92a","correct":false},{"rt":588.6649999956717,"stimulus":"\n      <p>How sure are you?</p>\n      <p>Rate your confidence in your answer from 1 (pure guess) to 5 (very sure) by pressing the corresponding button.</p>\n     ","response":3,"image":"img/seashell_alternate.jpg","task":"confidence","old_or_new":"new","trial_type":"html-button-response","trial_index":60,"time_elapsed":94561,"internal_node_id":"0.0-3.0-1.28","subject_id":"5c488ea98e527100017f912f","study_id":"606233c0e42b980319b6a18e","session_id":"60886de050ada0b0ca54e92a"},{"rt":531.7900000009104,"stimulus":"img/rolling_pin_alternate.jpg","response":"y","image":"img/rolling_pin_alternate.jpg","old_or_new":"new","task":"recognition","trial_type":"image-keyboard-response","trial_index":61,"time_elapsed":95595,"internal_node_id":"0.0-3.0-0.29","subject_id":"5c488ea98e527100017f912f","study_id":"606233c0e42b980319b6a18e","session_id":"60886de050ada0b0ca54e92a","correct":false},{"rt":541.0849999971106,"stimulus":"\n      <p>How sure are you?</p>\n      <p>Rate your confidence in your answer from 1 (pure guess) to 5 (very sure) by pressing the corresponding button.</p>\n     ","response":2,"image":"img/rolling_pin_alternate.jpg","task":"confidence","old_or_new":"new","trial_type":"html-button-response","trial_index":62,"time_elapsed":96137,"internal_node_id":"0.0-3.0-1.29","subject_id":"5c488ea98e527100017f912f","study_id":"606233c0e42b980319b6a18e","session_id":"60886de050ada0b0ca54e92a"},{"rt":721.6899999984889,"stimulus":"img/pizza_alternate.jpg","response":"y","image":"img/pizza_alternate.jpg","old_or_new":"new","task":"recognition","trial_type":"image-keyboard-response","trial_index":63,"time_elapsed":97361,"internal_node_id":"0.0-3.0-0.30","subject_id":"5c488ea98e527100017f912f","study_id":"606233c0e42b980319b6a18e","session_id":"60886de050ada0b0ca54e92a","correct":false},{"rt":895.1799999995274,"stimulus":"\n      <p>How sure are you?</p>\n      <p>Rate your confidence in your answer from 1 (pure guess) to 5 (very sure) by pressing the corresponding button.</p>\n     ","response":2,"image":"img/pizza_alternate.jpg","task":"confidence","old_or_new":"new","trial_type":"html-button-response","trial_index":64,"time_elapsed":98257,"internal_node_id":"0.0-3.0-1.30","subject_id":"5c488ea98e527100017f912f","study_id":"606233c0e42b980319b6a18e","session_id":"60886de050ada0b0ca54e92a"},{"rt":1351.844999997411,"stimulus":"img/parfait_alternate.jpg","response":"n","image":"img/parfait_alternate.jpg","old_or_new":"new","task":"recognition","trial_type":"image-keyboard-response","trial_index":65,"time_elapsed":100111,"internal_node_id":"0.0-3.0-0.31","subject_id":"5c488ea98e527100017f912f","study_id":"606233c0e42b980319b6a18e","session_id":"60886de050ada0b0ca54e92a","correct":true},{"rt":473.0400000044028,"stimulus":"\n      <p>How sure are you?</p>\n      <p>Rate your confidence in your answer from 1 (pure guess) to 5 (very sure) by pressing the corresponding button.</p>\n     ","response":2,"image":"img/parfait_alternate.jpg","task":"confidence","old_or_new":"new","trial_type":"html-button-response","trial_index":66,"time_elapsed":100585,"internal_node_id":"0.0-3.0-1.31","subject_id":"5c488ea98e527100017f912f","study_id":"606233c0e42b980319b6a18e","session_id":"60886de050ada0b0ca54e92a"},{"rt":1149.3899999986752,"stimulus":"img/watch.jpg","response":"y","image":"img/watch.jpg","old_or_new":"old","task":"recognition","trial_type":"image-keyboard-response","trial_index":67,"time_elapsed":102237,"internal_node_id":"0.0-3.0-0.32","subject_id":"5c488ea98e527100017f912f","study_id":"606233c0e42b980319b6a18e","session_id":"60886de050ada0b0ca54e92a","correct":true},{"rt":602.7299999987008,"stimulus":"\n      <p>How sure are you?</p>\n      <p>Rate your confidence in your answer from 1 (pure guess) to 5 (very sure) by pressing the corresponding button.</p>\n     ","response":4,"image":"img/watch.jpg","task":"confidence","old_or_new":"old","trial_type":"html-button-response","trial_index":68,"time_elapsed":102840,"internal_node_id":"0.0-3.0-1.32","subject_id":"5c488ea98e527100017f912f","study_id":"606233c0e42b980319b6a18e","session_id":"60886de050ada0b0ca54e92a"},{"rt":741.649999996298,"stimulus":"img/power_cord.jpg","response":"y","image":"img/power_cord.jpg","old_or_new":"old","task":"recognition","trial_type":"image-keyboard-response","trial_index":69,"time_elapsed":104084,"internal_node_id":"0.0-3.0-0.33","subject_id":"5c488ea98e527100017f912f","study_id":"606233c0e42b980319b6a18e","session_id":"60886de050ada0b0ca54e92a","correct":true},{"rt":507.33000000036554,"stimulus":"\n      <p>How sure are you?</p>\n      <p>Rate your confidence in your answer from 1 (pure guess) to 5 (very sure) by pressing the corresponding button.</p>\n     ","response":4,"image":"img/power_cord.jpg","task":"confidence","old_or_new":"old","trial_type":"html-button-response","trial_index":70,"time_elapsed":104593,"internal_node_id":"0.0-3.0-1.33","subject_id":"5c488ea98e527100017f912f","study_id":"606233c0e42b980319b6a18e","session_id":"60886de050ada0b0ca54e92a"},{"rt":852.9300000009243,"stimulus":"img/shovel.jpg","response":"y","image":"img/shovel.jpg","old_or_new":"old","task":"recognition","trial_type":"image-keyboard-response","trial_index":71,"time_elapsed":105948,"internal_node_id":"0.0-3.0-0.34","subject_id":"5c488ea98e527100017f912f","study_id":"606233c0e42b980319b6a18e","session_id":"60886de050ada0b0ca54e92a","correct":true},{"rt":475.2749999970547,"stimulus":"\n      <p>How sure are you?</p>\n      <p>Rate your confidence in your answer from 1 (pure guess) to 5 (very sure) by pressing the corresponding button.</p>\n     ","response":4,"image":"img/shovel.jpg","task":"confidence","old_or_new":"old","trial_type":"html-button-response","trial_index":72,"time_elapsed":106425,"internal_node_id":"0.0-3.0-1.34","subject_id":"5c488ea98e527100017f912f","study_id":"606233c0e42b980319b6a18e","session_id":"60886de050ada0b0ca54e92a"},{"rt":919.1699999937555,"stimulus":"img/plane.jpg","response":"y","image":"img/plane.jpg","old_or_new":"old","task":"recognition","trial_type":"image-keyboard-response","trial_index":73,"time_elapsed":107846,"internal_node_id":"0.0-3.0-0.35","subject_id":"5c488ea98e527100017f912f","study_id":"606233c0e42b980319b6a18e","session_id":"60886de050ada0b0ca54e92a","correct":true},{"rt":473.52500000124564,"stimulus":"\n      <p>How sure are you?</p>\n      <p>Rate your confidence in your answer from 1 (pure guess) to 5 (very sure) by pressing the corresponding button.</p>\n     ","response":4,"image":"img/plane.jpg","task":"confidence","old_or_new":"old","trial_type":"html-button-response","trial_index":74,"time_elapsed":108321,"internal_node_id":"0.0-3.0-1.35","subject_id":"5c488ea98e527100017f912f","study_id":"606233c0e42b980319b6a18e","session_id":"60886de050ada0b0ca54e92a"},{"rt":741.2299999996321,"stimulus":"img/watch_alternate.jpg","response":"n","image":"img/watch_alternate.jpg","old_or_new":"new","task":"recognition","trial_type":"image-keyboard-response","trial_index":75,"time_elapsed":109564,"internal_node_id":"0.0-3.0-0.36","subject_id":"5c488ea98e527100017f912f","study_id":"606233c0e42b980319b6a18e","session_id":"60886de050ada0b0ca54e92a","correct":true},{"rt":939.5999999978812,"stimulus":"\n      <p>How sure are you?</p>\n      <p>Rate your confidence in your answer from 1 (pure guess) to 5 (very sure) by pressing the corresponding button.</p>\n     ","response":4,"image":"img/watch_alternate.jpg","task":"confidence","old_or_new":"new","trial_type":"html-button-response","trial_index":76,"time_elapsed":110505,"internal_node_id":"0.0-3.0-1.36","subject_id":"5c488ea98e527100017f912f","study_id":"606233c0e42b980319b6a18e","session_id":"60886de050ada0b0ca54e92a"},{"rt":580.1750000027823,"stimulus":"img/skates.jpg","response":"n","image":"img/skates.jpg","old_or_new":"old","task":"recognition","trial_type":"image-keyboard-response","trial_index":77,"time_elapsed":111587,"internal_node_id":"0.0-3.0-0.37","subject_id":"5c488ea98e527100017f912f","study_id":"606233c0e42b980319b6a18e","session_id":"60886de050ada0b0ca54e92a","correct":false},{"rt":516.2300000010873,"stimulus":"\n      <p>How sure are you?</p>\n      <p>Rate your confidence in your answer from 1 (pure guess) to 5 (very sure) by pressing the corresponding button.</p>\n     ","response":4,"image":"img/skates.jpg","task":"confidence","old_or_new":"old","trial_type":"html-button-response","trial_index":78,"time_elapsed":112105,"internal_node_id":"0.0-3.0-1.37","subject_id":"5c488ea98e527100017f912f","study_id":"606233c0e42b980319b6a18e","session_id":"60886de050ada0b0ca54e92a"},{"rt":1048.9650000017718,"stimulus":"img/shirt_alternate.jpg","response":"y","image":"img/shirt_alternate.jpg","old_or_new":"new","task":"recognition","trial_type":"image-keyboard-response","trial_index":79,"time_elapsed":113656,"internal_node_id":"0.0-3.0-0.38","subject_id":"5c488ea98e527100017f912f","study_id":"606233c0e42b980319b6a18e","session_id":"60886de050ada0b0ca54e92a","correct":false},{"rt":1127.184999997553,"stimulus":"\n      <p>How sure are you?</p>\n      <p>Rate your confidence in your answer from 1 (pure guess) to 5 (very sure) by pressing the corresponding button.</p>\n     ","response":0,"image":"img/shirt_alternate.jpg","task":"confidence","old_or_new":"new","trial_type":"html-button-response","trial_index":80,"time_elapsed":114784,"internal_node_id":"0.0-3.0-1.38","subject_id":"5c488ea98e527100017f912f","study_id":"606233c0e42b980319b6a18e","session_id":"60886de050ada0b0ca54e92a"},{"rt":1209.96500000183,"stimulus":"img/power_cord_alternate.jpg","response":"y","image":"img/power_cord_alternate.jpg","old_or_new":"new","task":"recognition","trial_type":"image-keyboard-response","trial_index":81,"time_elapsed":116497,"internal_node_id":"0.0-3.0-0.39","subject_id":"5c488ea98e527100017f912f","study_id":"606233c0e42b980319b6a18e","session_id":"60886de050ada0b0ca54e92a","correct":false},{"rt":950.2849999989849,"stimulus":"\n      <p>How sure are you?</p>\n      <p>Rate your confidence in your answer from 1 (pure guess) to 5 (very sure) by pressing the corresponding button.</p>\n     ","response":0,"image":"img/power_cord_alternate.jpg","task":"confidence","old_or_new":"new","trial_type":"html-button-response","trial_index":82,"time_elapsed":117448,"internal_node_id":"0.0-3.0-1.39","subject_id":"5c488ea98e527100017f912f","study_id":"606233c0e42b980319b6a18e","session_id":"60886de050ada0b0ca54e92a"},{"rt":1265.5499999964377,"stimulus":"img/scissors.jpg","response":"y","image":"img/scissors.jpg","old_or_new":"old","task":"recognition","trial_type":"image-keyboard-response","trial_index":83,"time_elapsed":119216,"internal_node_id":"0.0-3.0-0.40","subject_id":"5c488ea98e527100017f912f","study_id":"606233c0e42b980319b6a18e","session_id":"60886de050ada0b0ca54e92a","correct":true},{"rt":607.7950000035344,"stimulus":"\n      <p>How sure are you?</p>\n      <p>Rate your confidence in your answer from 1 (pure guess) to 5 (very sure) by pressing the corresponding button.</p>\n     ","response":4,"image":"img/scissors.jpg","task":"confidence","old_or_new":"old","trial_type":"html-button-response","trial_index":84,"time_elapsed":119824,"internal_node_id":"0.0-3.0-1.40","subject_id":"5c488ea98e527100017f912f","study_id":"606233c0e42b980319b6a18e","session_id":"60886de050ada0b0ca54e92a"},{"rt":639.8300000000745,"stimulus":"img/shovel_alternate.jpg","response":"y","image":"img/shovel_alternate.jpg","old_or_new":"new","task":"recognition","trial_type":"image-keyboard-response","trial_index":85,"time_elapsed":120966,"internal_node_id":"0.0-3.0-0.41","subject_id":"5c488ea98e527100017f912f","study_id":"606233c0e42b980319b6a18e","session_id":"60886de050ada0b0ca54e92a","correct":false},{"rt":529.725000000326,"stimulus":"\n      <p>How sure are you?</p>\n      <p>Rate your confidence in your answer from 1 (pure guess) to 5 (very sure) by pressing the corresponding button.</p>\n     ","response":4,"image":"img/shovel_alternate.jpg","task":"confidence","old_or_new":"new","trial_type":"html-button-response","trial_index":86,"time_elapsed":121497,"internal_node_id":"0.0-3.0-1.41","subject_id":"5c488ea98e527100017f912f","study_id":"606233c0e42b980319b6a18e","session_id":"60886de050ada0b0ca54e92a"},{"rt":888.2099999973434,"stimulus":"img/knife_alternate.jpg","response":"y","image":"img/knife_alternate.jpg","old_or_new":"new","task":"recognition","trial_type":"image-keyboard-response","trial_index":87,"time_elapsed":122887,"internal_node_id":"0.0-3.0-0.42","subject_id":"5c488ea98e527100017f912f","study_id":"606233c0e42b980319b6a18e","session_id":"60886de050ada0b0ca54e92a","correct":false},{"rt":463.9949999982491,"stimulus":"\n      <p>How sure are you?</p>\n      <p>Rate your confidence in your answer from 1 (pure guess) to 5 (very sure) by pressing the corresponding button.</p>\n     ","response":4,"image":"img/knife_alternate.jpg","task":"confidence","old_or_new":"new","trial_type":"html-button-response","trial_index":88,"time_elapsed":123352,"internal_node_id":"0.0-3.0-1.42","subject_id":"5c488ea98e527100017f912f","study_id":"606233c0e42b980319b6a18e","session_id":"60886de050ada0b0ca54e92a"},{"rt":805.3599999984726,"stimulus":"img/plate.jpg","response":"y","image":"img/plate.jpg","old_or_new":"old","task":"recognition","trial_type":"image-keyboard-response","trial_index":89,"time_elapsed":124660,"internal_node_id":"0.0-3.0-0.43","subject_id":"5c488ea98e527100017f912f","study_id":"606233c0e42b980319b6a18e","session_id":"60886de050ada0b0ca54e92a","correct":true},{"rt":371.209999997518,"stimulus":"\n      <p>How sure are you?</p>\n      <p>Rate your confidence in your answer from 1 (pure guess) to 5 (very sure) by pressing the corresponding button.</p>\n     ","response":4,"image":"img/plate.jpg","task":"confidence","old_or_new":"old","trial_type":"html-button-response","trial_index":90,"time_elapsed":125032,"internal_node_id":"0.0-3.0-1.43","subject_id":"5c488ea98e527100017f912f","study_id":"606233c0e42b980319b6a18e","session_id":"60886de050ada0b0ca54e92a"},{"rt":929.6850000027916,"stimulus":"img/toaster_alternate.jpg","response":"y","image":"img/toaster_alternate.jpg","old_or_new":"new","task":"recognition","trial_type":"image-keyboard-response","trial_index":91,"time_elapsed":126464,"internal_node_id":"0.0-3.0-0.44","subject_id":"5c488ea98e527100017f912f","study_id":"606233c0e42b980319b6a18e","session_id":"60886de050ada0b0ca54e92a","correct":false},{"rt":431.61000000691274,"stimulus":"\n      <p>How sure are you?</p>\n      <p>Rate your confidence in your answer from 1 (pure guess) to 5 (very sure) by pressing the corresponding button.</p>\n     ","response":4,"image":"img/toaster_alternate.jpg","task":"confidence","old_or_new":"new","trial_type":"html-button-response","trial_index":92,"time_elapsed":126897,"internal_node_id":"0.0-3.0-1.44","subject_id":"5c488ea98e527100017f912f","study_id":"606233c0e42b980319b6a18e","session_id":"60886de050ada0b0ca54e92a"},{"rt":753.2850000061444,"stimulus":"img/sink_alternate.jpg","response":"n","image":"img/sink_alternate.jpg","old_or_new":"new","task":"recognition","trial_type":"image-keyboard-response","trial_index":93,"time_elapsed":128152,"internal_node_id":"0.0-3.0-0.45","subject_id":"5c488ea98e527100017f912f","study_id":"606233c0e42b980319b6a18e","session_id":"60886de050ada0b0ca54e92a","correct":true},{"rt":2151.545000000624,"stimulus":"\n      <p>How sure are you?</p>\n      <p>Rate your confidence in your answer from 1 (pure guess) to 5 (very sure) by pressing the corresponding button.</p>\n     ","response":4,"image":"img/sink_alternate.jpg","task":"confidence","old_or_new":"new","trial_type":"html-button-response","trial_index":94,"time_elapsed":130305,"internal_node_id":"0.0-3.0-1.45","subject_id":"5c488ea98e527100017f912f","study_id":"606233c0e42b980319b6a18e","session_id":"60886de050ada0b0ca54e92a"},{"rt":767.1150000023772,"stimulus":"img/plate_alternate.jpg","response":"n","image":"img/plate_alternate.jpg","old_or_new":"new","task":"recognition","trial_type":"image-keyboard-response","trial_index":95,"time_elapsed":131573,"internal_node_id":"0.0-3.0-0.46","subject_id":"5c488ea98e527100017f912f","study_id":"606233c0e42b980319b6a18e","session_id":"60886de050ada0b0ca54e92a","correct":true},{"rt":890.0900000007823,"stimulus":"\n      <p>How sure are you?</p>\n      <p>Rate your confidence in your answer from 1 (pure guess) to 5 (very sure) by pressing the corresponding button.</p>\n     ","response":3,"image":"img/plate_alternate.jpg","task":"confidence","old_or_new":"new","trial_type":"html-button-response","trial_index":96,"time_elapsed":132464,"internal_node_id":"0.0-3.0-1.46","subject_id":"5c488ea98e527100017f912f","study_id":"606233c0e42b980319b6a18e","session_id":"60886de050ada0b0ca54e92a"},{"rt":485.20499999722233,"stimulus":"img/shoe.jpg","response":"n","image":"img/shoe.jpg","old_or_new":"old","task":"recognition","trial_type":"image-keyboard-response","trial_index":97,"time_elapsed":133452,"internal_node_id":"0.0-3.0-0.47","subject_id":"5c488ea98e527100017f912f","study_id":"606233c0e42b980319b6a18e","session_id":"60886de050ada0b0ca54e92a","correct":false},{"rt":1243.5550000009243,"stimulus":"\n      <p>How sure are you?</p>\n      <p>Rate your confidence in your answer from 1 (pure guess) to 5 (very sure) by pressing the corresponding button.</p>\n     ","response":0,"image":"img/shoe.jpg","task":"confidence","old_or_new":"old","trial_type":"html-button-response","trial_index":98,"time_elapsed":134697,"internal_node_id":"0.0-3.0-1.47","subject_id":"5c488ea98e527100017f912f","study_id":"606233c0e42b980319b6a18e","session_id":"60886de050ada0b0ca54e92a"}]