[{"success":true,"timeout":false,"failed_images":[],"failed_audio":[],"failed_video":[],"trial_type":"preload","trial_index":0,"time_elapsed":6165,"internal_node_id":"0.0-0.0","subject_id":"601c1128034be9673e23d52d","study_id":"607de2837874a824e2e8c6ec","session_id":"608850d8b15a38af3a44ee27"},{"rt":55060.58499997016,"stimulus":"\n      <div style=\"width:800px; text-align: left;\">\n        <p>Welcome to day 2 of the experiment! Thanks for coming back.</p>\n        <p>You will be presented with a series of images. Images will appear one at a time.</p>\n        <p>Each image will remain on the screen until you press either <span style=\"font-weight: bold;\">\"y\" to indicate you have seen the \n        exact same photo the day before or \"n\" to indicate you have not seen the exact same photo the day before.</span></p>\n        <p>After you answer yes (\"y\") or no (\"n\"), you will then be prompted to rate your certainty on a scale of\n        1 (pure guess) to 5 (very sure).</p>\n      </div>\n    ","response":0,"trial_type":"html-button-response","trial_index":1,"time_elapsed":61224,"internal_node_id":"0.0-1.0","subject_id":"601c1128034be9673e23d52d","study_id":"607de2837874a824e2e8c6ec","session_id":"608850d8b15a38af3a44ee27"},{"success":true,"trial_type":"fullscreen","trial_index":2,"time_elapsed":64760,"internal_node_id":"0.0-2.0","subject_id":"601c1128034be9673e23d52d","study_id":"607de2837874a824e2e8c6ec","session_id":"608850d8b15a38af3a44ee27"},{"rt":1967.7249999949709,"stimulus":"img/dryer_alternate.jpg","response":"y","image":"img/dryer_alternate.jpg","old_or_new":"new","task":"recognition","trial_type":"image-keyboard-response","trial_index":3,"time_elapsed":66773,"internal_node_id":"0.0-3.0-0.0","subject_id":"601c1128034be9673e23d52d","study_id":"607de2837874a824e2e8c6ec","session_id":"608850d8b15a38af3a44ee27","correct":false},{"rt":5043.549999943934,"stimulus":"\n      <p>How sure are you?</p>\n      <p>Rate your confidence in your answer from 1 (pure guess) to 5 (very sure) by pressing the corresponding button.</p>\n     ","response":4,"image":"img/dryer_alternate.jpg","task":"confidence","old_or_new":"new","trial_type":"html-button-response","trial_index":4,"time_elapsed":71820,"internal_node_id":"0.0-3.0-1.0","subject_id":"601c1128034be9673e23d52d","study_id":"607de2837874a824e2e8c6ec","session_id":"608850d8b15a38af3a44ee27"},{"rt":1731.110000051558,"stimulus":"img/hat.jpg","response":"y","image":"img/hat.jpg","old_or_new":"old","task":"recognition","trial_type":"image-keyboard-response","trial_index":5,"time_elapsed":74057,"internal_node_id":"0.0-3.0-0.1","subject_id":"601c1128034be9673e23d52d","study_id":"607de2837874a824e2e8c6ec","session_id":"608850d8b15a38af3a44ee27","correct":true},{"rt":1758.1249999348074,"stimulus":"\n      <p>How sure are you?</p>\n      <p>Rate your confidence in your answer from 1 (pure guess) to 5 (very sure) by pressing the corresponding button.</p>\n     ","response":4,"image":"img/hat.jpg","task":"confidence","old_or_new":"old","trial_type":"html-button-response","trial_index":6,"time_elapsed":75818,"internal_node_id":"0.0-3.0-1.1","subject_id":"601c1128034be9673e23d52d","study_id":"607de2837874a824e2e8c6ec","session_id":"608850d8b15a38af3a44ee27"},{"rt":1479.1850000619888,"stimulus":"img/chair.jpg","response":"y","image":"img/chair.jpg","old_or_new":"old","task":"recognition","trial_type":"image-keyboard-response","trial_index":7,"time_elapsed":77802,"internal_node_id":"0.0-3.0-0.2","subject_id":"601c1128034be9673e23d52d","study_id":"607de2837874a824e2e8c6ec","session_id":"608850d8b15a38af3a44ee27","correct":true},{"rt":1317.354999948293,"stimulus":"\n      <p>How sure are you?</p>\n      <p>Rate your confidence in your answer from 1 (pure guess) to 5 (very sure) by pressing the corresponding button.</p>\n     ","response":4,"image":"img/chair.jpg","task":"confidence","old_or_new":"old","trial_type":"html-button-response","trial_index":8,"time_elapsed":79122,"internal_node_id":"0.0-3.0-1.2","subject_id":"601c1128034be9673e23d52d","study_id":"607de2837874a824e2e8c6ec","session_id":"608850d8b15a38af3a44ee27"},{"rt":1825.2149999607354,"stimulus":"img/drum_alternate.jpg","response":"n","image":"img/drum_alternate.jpg","old_or_new":"new","task":"recognition","trial_type":"image-keyboard-response","trial_index":9,"time_elapsed":81453,"internal_node_id":"0.0-3.0-0.3","subject_id":"601c1128034be9673e23d52d","study_id":"607de2837874a824e2e8c6ec","session_id":"608850d8b15a38af3a44ee27","correct":true},{"rt":2378.2399999909103,"stimulus":"\n      <p>How sure are you?</p>\n      <p>Rate your confidence in your answer from 1 (pure guess) to 5 (very sure) by pressing the corresponding button.</p>\n     ","response":1,"image":"img/drum_alternate.jpg","task":"confidence","old_or_new":"new","trial_type":"html-button-response","trial_index":10,"time_elapsed":83834,"internal_node_id":"0.0-3.0-1.3","subject_id":"601c1128034be9673e23d52d","study_id":"607de2837874a824e2e8c6ec","session_id":"608850d8b15a38af3a44ee27"},{"rt":2405.5950000183657,"stimulus":"img/lightbulb.jpg","response":"y","image":"img/lightbulb.jpg","old_or_new":"old","task":"recognition","trial_type":"image-keyboard-response","trial_index":11,"time_elapsed":86749,"internal_node_id":"0.0-3.0-0.4","subject_id":"601c1128034be9673e23d52d","study_id":"607de2837874a824e2e8c6ec","session_id":"608850d8b15a38af3a44ee27","correct":true},{"rt":1484.195000026375,"stimulus":"\n      <p>How sure are you?</p>\n      <p>Rate your confidence in your answer from 1 (pure guess) to 5 (very sure) by pressing the corresponding button.</p>\n     ","response":4,"image":"img/lightbulb.jpg","task":"confidence","old_or_new":"old","trial_type":"html-button-response","trial_index":12,"time_elapsed":88236,"internal_node_id":"0.0-3.0-1.4","subject_id":"601c1128034be9673e23d52d","study_id":"607de2837874a824e2e8c6ec","session_id":"608850d8b15a38af3a44ee27"},{"rt":2625.3249999135733,"stimulus":"img/hairbrush_alternate.jpg","response":"n","image":"img/hairbrush_alternate.jpg","old_or_new":"new","task":"recognition","trial_type":"image-keyboard-response","trial_index":13,"time_elapsed":91371,"internal_node_id":"0.0-3.0-0.5","subject_id":"601c1128034be9673e23d52d","study_id":"607de2837874a824e2e8c6ec","session_id":"608850d8b15a38af3a44ee27","correct":true},{"rt":2169.9700000463054,"stimulus":"\n      <p>How sure are you?</p>\n      <p>Rate your confidence in your answer from 1 (pure guess) to 5 (very sure) by pressing the corresponding button.</p>\n     ","response":2,"image":"img/hairbrush_alternate.jpg","task":"confidence","old_or_new":"new","trial_type":"html-button-response","trial_index":14,"time_elapsed":93544,"internal_node_id":"0.0-3.0-1.5","subject_id":"601c1128034be9673e23d52d","study_id":"607de2837874a824e2e8c6ec","session_id":"608850d8b15a38af3a44ee27"},{"rt":987.7349999733269,"stimulus":"img/dryer.jpg","response":"y","image":"img/dryer.jpg","old_or_new":"old","task":"recognition","trial_type":"image-keyboard-response","trial_index":15,"time_elapsed":95042,"internal_node_id":"0.0-3.0-0.6","subject_id":"601c1128034be9673e23d52d","study_id":"607de2837874a824e2e8c6ec","session_id":"608850d8b15a38af3a44ee27","correct":true},{"rt":2034.334999974817,"stimulus":"\n      <p>How sure are you?</p>\n      <p>Rate your confidence in your answer from 1 (pure guess) to 5 (very sure) by pressing the corresponding button.</p>\n     ","response":4,"image":"img/dryer.jpg","task":"confidence","old_or_new":"old","trial_type":"html-button-response","trial_index":16,"time_elapsed":97079,"internal_node_id":"0.0-3.0-1.6","subject_id":"601c1128034be9673e23d52d","study_id":"607de2837874a824e2e8c6ec","session_id":"608850d8b15a38af3a44ee27"},{"rt":1419.400000013411,"stimulus":"img/leaf_alternate.jpg","response":"n","image":"img/leaf_alternate.jpg","old_or_new":"new","task":"recognition","trial_type":"image-keyboard-response","trial_index":17,"time_elapsed":99004,"internal_node_id":"0.0-3.0-0.7","subject_id":"601c1128034be9673e23d52d","study_id":"607de2837874a824e2e8c6ec","session_id":"608850d8b15a38af3a44ee27","correct":true},{"rt":2330.5249999975786,"stimulus":"\n      <p>How sure are you?</p>\n      <p>Rate your confidence in your answer from 1 (pure guess) to 5 (very sure) by pressing the corresponding button.</p>\n     ","response":4,"image":"img/leaf_alternate.jpg","task":"confidence","old_or_new":"new","trial_type":"html-button-response","trial_index":18,"time_elapsed":101337,"internal_node_id":"0.0-3.0-1.7","subject_id":"601c1128034be9673e23d52d","study_id":"607de2837874a824e2e8c6ec","session_id":"608850d8b15a38af3a44ee27"},{"rt":2220.8899999968708,"stimulus":"img/glasses_alternate.jpg","response":"n","image":"img/glasses_alternate.jpg","old_or_new":"new","task":"recognition","trial_type":"image-keyboard-response","trial_index":19,"time_elapsed":104064,"internal_node_id":"0.0-3.0-0.8","subject_id":"601c1128034be9673e23d52d","study_id":"607de2837874a824e2e8c6ec","session_id":"608850d8b15a38af3a44ee27","correct":true},{"rt":3233.9099999517202,"stimulus":"\n      <p>How sure are you?</p>\n      <p>Rate your confidence in your answer from 1 (pure guess) to 5 (very sure) by pressing the corresponding button.</p>\n     ","response":3,"image":"img/glasses_alternate.jpg","task":"confidence","old_or_new":"new","trial_type":"html-button-response","trial_index":20,"time_elapsed":107301,"internal_node_id":"0.0-3.0-1.8","subject_id":"601c1128034be9673e23d52d","study_id":"607de2837874a824e2e8c6ec","session_id":"608850d8b15a38af3a44ee27"},{"rt":1087.9900000290945,"stimulus":"img/calculator.jpg","response":"y","image":"img/calculator.jpg","old_or_new":"old","task":"recognition","trial_type":"image-keyboard-response","trial_index":21,"time_elapsed":108893,"internal_node_id":"0.0-3.0-0.9","subject_id":"601c1128034be9673e23d52d","study_id":"607de2837874a824e2e8c6ec","session_id":"608850d8b15a38af3a44ee27","correct":true},{"rt":1554.3499999912456,"stimulus":"\n      <p>How sure are you?</p>\n      <p>Rate your confidence in your answer from 1 (pure guess) to 5 (very sure) by pressing the corresponding button.</p>\n     ","response":4,"image":"img/calculator.jpg","task":"confidence","old_or_new":"old","trial_type":"html-button-response","trial_index":22,"time_elapsed":110451,"internal_node_id":"0.0-3.0-1.9","subject_id":"601c1128034be9673e23d52d","study_id":"607de2837874a824e2e8c6ec","session_id":"608850d8b15a38af3a44ee27"},{"rt":3085.9150000615045,"stimulus":"img/basket_alternate.jpg","response":"y","image":"img/basket_alternate.jpg","old_or_new":"new","task":"recognition","trial_type":"image-keyboard-response","trial_index":23,"time_elapsed":114041,"internal_node_id":"0.0-3.0-0.10","subject_id":"601c1128034be9673e23d52d","study_id":"607de2837874a824e2e8c6ec","session_id":"608850d8b15a38af3a44ee27","correct":false},{"rt":2138.2250000024214,"stimulus":"\n      <p>How sure are you?</p>\n      <p>Rate your confidence in your answer from 1 (pure guess) to 5 (very sure) by pressing the corresponding button.</p>\n     ","response":2,"image":"img/basket_alternate.jpg","task":"confidence","old_or_new":"new","trial_type":"html-button-response","trial_index":24,"time_elapsed":116183,"internal_node_id":"0.0-3.0-1.10","subject_id":"601c1128034be9673e23d52d","study_id":"607de2837874a824e2e8c6ec","session_id":"608850d8b15a38af3a44ee27"},{"rt":1051.3450000435114,"stimulus":"img/hair_tie.jpg","response":"y","image":"img/hair_tie.jpg","old_or_new":"old","task":"recognition","trial_type":"image-keyboard-response","trial_index":25,"time_elapsed":117746,"internal_node_id":"0.0-3.0-0.11","subject_id":"601c1128034be9673e23d52d","study_id":"607de2837874a824e2e8c6ec","session_id":"608850d8b15a38af3a44ee27","correct":true},{"rt":1931.0950000071898,"stimulus":"\n      <p>How sure are you?</p>\n      <p>Rate your confidence in your answer from 1 (pure guess) to 5 (very sure) by pressing the corresponding button.</p>\n     ","response":4,"image":"img/hair_tie.jpg","task":"confidence","old_or_new":"old","trial_type":"html-button-response","trial_index":26,"time_elapsed":119680,"internal_node_id":"0.0-3.0-1.11","subject_id":"601c1128034be9673e23d52d","study_id":"607de2837874a824e2e8c6ec","session_id":"608850d8b15a38af3a44ee27"},{"rt":1347.620000015013,"stimulus":"img/hair_tie_alternate.jpg","response":"n","image":"img/hair_tie_alternate.jpg","old_or_new":"new","task":"recognition","trial_type":"image-keyboard-response","trial_index":27,"time_elapsed":121541,"internal_node_id":"0.0-3.0-0.12","subject_id":"601c1128034be9673e23d52d","study_id":"607de2837874a824e2e8c6ec","session_id":"608850d8b15a38af3a44ee27","correct":true},{"rt":1208.6200000485405,"stimulus":"\n      <p>How sure are you?</p>\n      <p>Rate your confidence in your answer from 1 (pure guess) to 5 (very sure) by pressing the corresponding button.</p>\n     ","response":4,"image":"img/hair_tie_alternate.jpg","task":"confidence","old_or_new":"new","trial_type":"html-button-response","trial_index":28,"time_elapsed":122753,"internal_node_id":"0.0-3.0-1.12","subject_id":"601c1128034be9673e23d52d","study_id":"607de2837874a824e2e8c6ec","session_id":"608850d8b15a38af3a44ee27"},{"rt":1087.1200000401586,"stimulus":"img/grapes.jpg","response":"y","image":"img/grapes.jpg","old_or_new":"old","task":"recognition","trial_type":"image-keyboard-response","trial_index":29,"time_elapsed":124349,"internal_node_id":"0.0-3.0-0.13","subject_id":"601c1128034be9673e23d52d","study_id":"607de2837874a824e2e8c6ec","session_id":"608850d8b15a38af3a44ee27","correct":true},{"rt":2168.0499999783933,"stimulus":"\n      <p>How sure are you?</p>\n      <p>Rate your confidence in your answer from 1 (pure guess) to 5 (very sure) by pressing the corresponding button.</p>\n     ","response":4,"image":"img/grapes.jpg","task":"confidence","old_or_new":"old","trial_type":"html-button-response","trial_index":30,"time_elapsed":126520,"internal_node_id":"0.0-3.0-1.13","subject_id":"601c1128034be9673e23d52d","study_id":"607de2837874a824e2e8c6ec","session_id":"608850d8b15a38af3a44ee27"},{"rt":893.8149999594316,"stimulus":"img/globe.jpg","response":"y","image":"img/globe.jpg","old_or_new":"old","task":"recognition","trial_type":"image-keyboard-response","trial_index":31,"time_elapsed":127918,"internal_node_id":"0.0-3.0-0.14","subject_id":"601c1128034be9673e23d52d","study_id":"607de2837874a824e2e8c6ec","session_id":"608850d8b15a38af3a44ee27","correct":true},{"rt":1171.390000032261,"stimulus":"\n      <p>How sure are you?</p>\n      <p>Rate your confidence in your answer from 1 (pure guess) to 5 (very sure) by pressing the corresponding button.</p>\n     ","response":4,"image":"img/globe.jpg","task":"confidence","old_or_new":"old","trial_type":"html-button-response","trial_index":32,"time_elapsed":129092,"internal_node_id":"0.0-3.0-1.14","subject_id":"601c1128034be9673e23d52d","study_id":"607de2837874a824e2e8c6ec","session_id":"608850d8b15a38af3a44ee27"},{"rt":1682.0499999448657,"stimulus":"img/apple_alternate.jpg","response":"n","image":"img/apple_alternate.jpg","old_or_new":"new","task":"recognition","trial_type":"image-keyboard-response","trial_index":33,"time_elapsed":131279,"internal_node_id":"0.0-3.0-0.15","subject_id":"601c1128034be9673e23d52d","study_id":"607de2837874a824e2e8c6ec","session_id":"608850d8b15a38af3a44ee27","correct":true},{"rt":1750.3999999025837,"stimulus":"\n      <p>How sure are you?</p>\n      <p>Rate your confidence in your answer from 1 (pure guess) to 5 (very sure) by pressing the corresponding button.</p>\n     ","response":4,"image":"img/apple_alternate.jpg","task":"confidence","old_or_new":"new","trial_type":"html-button-response","trial_index":34,"time_elapsed":133032,"internal_node_id":"0.0-3.0-1.15","subject_id":"601c1128034be9673e23d52d","study_id":"607de2837874a824e2e8c6ec","session_id":"608850d8b15a38af3a44ee27"},{"rt":1091.054999968037,"stimulus":"img/backpack.jpg","response":"y","image":"img/backpack.jpg","old_or_new":"old","task":"recognition","trial_type":"image-keyboard-response","trial_index":35,"time_elapsed":134628,"internal_node_id":"0.0-3.0-0.16","subject_id":"601c1128034be9673e23d52d","study_id":"607de2837874a824e2e8c6ec","session_id":"608850d8b15a38af3a44ee27","correct":true},{"rt":2678.6849999334663,"stimulus":"\n      <p>How sure are you?</p>\n      <p>Rate your confidence in your answer from 1 (pure guess) to 5 (very sure) by pressing the corresponding button.</p>\n     ","response":4,"image":"img/backpack.jpg","task":"confidence","old_or_new":"old","trial_type":"html-button-response","trial_index":36,"time_elapsed":137311,"internal_node_id":"0.0-3.0-1.16","subject_id":"601c1128034be9673e23d52d","study_id":"607de2837874a824e2e8c6ec","session_id":"608850d8b15a38af3a44ee27"},{"rt":1237.0799999916926,"stimulus":"img/hat_alternate.jpg","response":"n","image":"img/hat_alternate.jpg","old_or_new":"new","task":"recognition","trial_type":"image-keyboard-response","trial_index":37,"time_elapsed":139053,"internal_node_id":"0.0-3.0-0.17","subject_id":"601c1128034be9673e23d52d","study_id":"607de2837874a824e2e8c6ec","session_id":"608850d8b15a38af3a44ee27","correct":true},{"rt":1124.790000030771,"stimulus":"\n      <p>How sure are you?</p>\n      <p>Rate your confidence in your answer from 1 (pure guess) to 5 (very sure) by pressing the corresponding button.</p>\n     ","response":4,"image":"img/hat_alternate.jpg","task":"confidence","old_or_new":"new","trial_type":"html-button-response","trial_index":38,"time_elapsed":140182,"internal_node_id":"0.0-3.0-1.17","subject_id":"601c1128034be9673e23d52d","study_id":"607de2837874a824e2e8c6ec","session_id":"608850d8b15a38af3a44ee27"},{"rt":1062.7600000007078,"stimulus":"img/basket.jpg","response":"y","image":"img/basket.jpg","old_or_new":"old","task":"recognition","trial_type":"image-keyboard-response","trial_index":39,"time_elapsed":141756,"internal_node_id":"0.0-3.0-0.18","subject_id":"601c1128034be9673e23d52d","study_id":"607de2837874a824e2e8c6ec","session_id":"608850d8b15a38af3a44ee27","correct":true},{"rt":1197.2049999749288,"stimulus":"\n      <p>How sure are you?</p>\n      <p>Rate your confidence in your answer from 1 (pure guess) to 5 (very sure) by pressing the corresponding button.</p>\n     ","response":4,"image":"img/basket.jpg","task":"confidence","old_or_new":"old","trial_type":"html-button-response","trial_index":40,"time_elapsed":142956,"internal_node_id":"0.0-3.0-1.18","subject_id":"601c1128034be9673e23d52d","study_id":"607de2837874a824e2e8c6ec","session_id":"608850d8b15a38af3a44ee27"},{"rt":1309.3700000317767,"stimulus":"img/backpack_alternate.jpg","response":"n","image":"img/backpack_alternate.jpg","old_or_new":"new","task":"recognition","trial_type":"image-keyboard-response","trial_index":41,"time_elapsed":144774,"internal_node_id":"0.0-3.0-0.19","subject_id":"601c1128034be9673e23d52d","study_id":"607de2837874a824e2e8c6ec","session_id":"608850d8b15a38af3a44ee27","correct":true},{"rt":2233.799999929033,"stimulus":"\n      <p>How sure are you?</p>\n      <p>Rate your confidence in your answer from 1 (pure guess) to 5 (very sure) by pressing the corresponding button.</p>\n     ","response":2,"image":"img/backpack_alternate.jpg","task":"confidence","old_or_new":"new","trial_type":"html-button-response","trial_index":42,"time_elapsed":147012,"internal_node_id":"0.0-3.0-1.19","subject_id":"601c1128034be9673e23d52d","study_id":"607de2837874a824e2e8c6ec","session_id":"608850d8b15a38af3a44ee27"},{"rt":3822.190000093542,"stimulus":"img/hourglass_alternate.jpg","response":"n","image":"img/hourglass_alternate.jpg","old_or_new":"new","task":"recognition","trial_type":"image-keyboard-response","trial_index":43,"time_elapsed":151342,"internal_node_id":"0.0-3.0-0.20","subject_id":"601c1128034be9673e23d52d","study_id":"607de2837874a824e2e8c6ec","session_id":"608850d8b15a38af3a44ee27","correct":true},{"rt":2390.625,"stimulus":"\n      <p>How sure are you?</p>\n      <p>Rate your confidence in your answer from 1 (pure guess) to 5 (very sure) by pressing the corresponding button.</p>\n     ","response":2,"image":"img/hourglass_alternate.jpg","task":"confidence","old_or_new":"new","trial_type":"html-button-response","trial_index":44,"time_elapsed":153736,"internal_node_id":"0.0-3.0-1.20","subject_id":"601c1128034be9673e23d52d","study_id":"607de2837874a824e2e8c6ec","session_id":"608850d8b15a38af3a44ee27"},{"rt":1072.7549999719486,"stimulus":"img/key.jpg","response":"y","image":"img/key.jpg","old_or_new":"old","task":"recognition","trial_type":"image-keyboard-response","trial_index":45,"time_elapsed":155327,"internal_node_id":"0.0-3.0-0.21","subject_id":"601c1128034be9673e23d52d","study_id":"607de2837874a824e2e8c6ec","session_id":"608850d8b15a38af3a44ee27","correct":true},{"rt":1923.185000079684,"stimulus":"\n      <p>How sure are you?</p>\n      <p>Rate your confidence in your answer from 1 (pure guess) to 5 (very sure) by pressing the corresponding button.</p>\n     ","response":4,"image":"img/key.jpg","task":"confidence","old_or_new":"old","trial_type":"html-button-response","trial_index":46,"time_elapsed":157253,"internal_node_id":"0.0-3.0-1.21","subject_id":"601c1128034be9673e23d52d","study_id":"607de2837874a824e2e8c6ec","session_id":"608850d8b15a38af3a44ee27"},{"rt":1053.070000023581,"stimulus":"img/drum.jpg","response":"y","image":"img/drum.jpg","old_or_new":"old","task":"recognition","trial_type":"image-keyboard-response","trial_index":47,"time_elapsed":158810,"internal_node_id":"0.0-3.0-0.22","subject_id":"601c1128034be9673e23d52d","study_id":"607de2837874a824e2e8c6ec","session_id":"608850d8b15a38af3a44ee27","correct":true},{"rt":1782.2499999310821,"stimulus":"\n      <p>How sure are you?</p>\n      <p>Rate your confidence in your answer from 1 (pure guess) to 5 (very sure) by pressing the corresponding button.</p>\n     ","response":4,"image":"img/drum.jpg","task":"confidence","old_or_new":"old","trial_type":"html-button-response","trial_index":48,"time_elapsed":160596,"internal_node_id":"0.0-3.0-1.22","subject_id":"601c1128034be9673e23d52d","study_id":"607de2837874a824e2e8c6ec","session_id":"608850d8b15a38af3a44ee27"},{"rt":1997.10999999661,"stimulus":"img/ladder_alternate.jpg","response":"n","image":"img/ladder_alternate.jpg","old_or_new":"new","task":"recognition","trial_type":"image-keyboard-response","trial_index":49,"time_elapsed":163097,"internal_node_id":"0.0-3.0-0.23","subject_id":"601c1128034be9673e23d52d","study_id":"607de2837874a824e2e8c6ec","session_id":"608850d8b15a38af3a44ee27","correct":true},{"rt":2129.2799999937415,"stimulus":"\n      <p>How sure are you?</p>\n      <p>Rate your confidence in your answer from 1 (pure guess) to 5 (very sure) by pressing the corresponding button.</p>\n     ","response":3,"image":"img/ladder_alternate.jpg","task":"confidence","old_or_new":"new","trial_type":"html-button-response","trial_index":50,"time_elapsed":165231,"internal_node_id":"0.0-3.0-1.23","subject_id":"601c1128034be9673e23d52d","study_id":"607de2837874a824e2e8c6ec","session_id":"608850d8b15a38af3a44ee27"},{"rt":1578.514999942854,"stimulus":"img/key_alternate.jpg","response":"y","image":"img/key_alternate.jpg","old_or_new":"new","task":"recognition","trial_type":"image-keyboard-response","trial_index":51,"time_elapsed":167315,"internal_node_id":"0.0-3.0-0.24","subject_id":"601c1128034be9673e23d52d","study_id":"607de2837874a824e2e8c6ec","session_id":"608850d8b15a38af3a44ee27","correct":false},{"rt":1611.6899999324232,"stimulus":"\n      <p>How sure are you?</p>\n      <p>Rate your confidence in your answer from 1 (pure guess) to 5 (very sure) by pressing the corresponding button.</p>\n     ","response":4,"image":"img/key_alternate.jpg","task":"confidence","old_or_new":"new","trial_type":"html-button-response","trial_index":52,"time_elapsed":168929,"internal_node_id":"0.0-3.0-1.24","subject_id":"601c1128034be9673e23d52d","study_id":"607de2837874a824e2e8c6ec","session_id":"608850d8b15a38af3a44ee27"},{"rt":824.7499999124557,"stimulus":"img/camera_alternate.jpg","response":"y","image":"img/camera_alternate.jpg","old_or_new":"new","task":"recognition","trial_type":"image-keyboard-response","trial_index":53,"time_elapsed":170265,"internal_node_id":"0.0-3.0-0.25","subject_id":"601c1128034be9673e23d52d","study_id":"607de2837874a824e2e8c6ec","session_id":"608850d8b15a38af3a44ee27","correct":false},{"rt":1552.2049999563023,"stimulus":"\n      <p>How sure are you?</p>\n      <p>Rate your confidence in your answer from 1 (pure guess) to 5 (very sure) by pressing the corresponding button.</p>\n     ","response":4,"image":"img/camera_alternate.jpg","task":"confidence","old_or_new":"new","trial_type":"html-button-response","trial_index":54,"time_elapsed":171820,"internal_node_id":"0.0-3.0-1.25","subject_id":"601c1128034be9673e23d52d","study_id":"607de2837874a824e2e8c6ec","session_id":"608850d8b15a38af3a44ee27"},{"rt":739.6500000031665,"stimulus":"img/fan.jpg","response":"y","image":"img/fan.jpg","old_or_new":"old","task":"recognition","trial_type":"image-keyboard-response","trial_index":55,"time_elapsed":173079,"internal_node_id":"0.0-3.0-0.26","subject_id":"601c1128034be9673e23d52d","study_id":"607de2837874a824e2e8c6ec","session_id":"608850d8b15a38af3a44ee27","correct":true},{"rt":2071.185000007972,"stimulus":"\n      <p>How sure are you?</p>\n      <p>Rate your confidence in your answer from 1 (pure guess) to 5 (very sure) by pressing the corresponding button.</p>\n     ","response":3,"image":"img/fan.jpg","task":"confidence","old_or_new":"old","trial_type":"html-button-response","trial_index":56,"time_elapsed":175153,"internal_node_id":"0.0-3.0-1.26","subject_id":"601c1128034be9673e23d52d","study_id":"607de2837874a824e2e8c6ec","session_id":"608850d8b15a38af3a44ee27"},{"rt":3745.104999979958,"stimulus":"img/folder_alternate.jpg","response":"y","image":"img/folder_alternate.jpg","old_or_new":"new","task":"recognition","trial_type":"image-keyboard-response","trial_index":57,"time_elapsed":179408,"internal_node_id":"0.0-3.0-0.27","subject_id":"601c1128034be9673e23d52d","study_id":"607de2837874a824e2e8c6ec","session_id":"608850d8b15a38af3a44ee27","correct":false},{"rt":1569.9749999912456,"stimulus":"\n      <p>How sure are you?</p>\n      <p>Rate your confidence in your answer from 1 (pure guess) to 5 (very sure) by pressing the corresponding button.</p>\n     ","response":1,"image":"img/folder_alternate.jpg","task":"confidence","old_or_new":"new","trial_type":"html-button-response","trial_index":58,"time_elapsed":180982,"internal_node_id":"0.0-3.0-1.27","subject_id":"601c1128034be9673e23d52d","study_id":"607de2837874a824e2e8c6ec","session_id":"608850d8b15a38af3a44ee27"},{"rt":1510.565000004135,"stimulus":"img/fan_alternate.jpg","response":"y","image":"img/fan_alternate.jpg","old_or_new":"new","task":"recognition","trial_type":"image-keyboard-response","trial_index":59,"time_elapsed":183003,"internal_node_id":"0.0-3.0-0.28","subject_id":"601c1128034be9673e23d52d","study_id":"607de2837874a824e2e8c6ec","session_id":"608850d8b15a38af3a44ee27","correct":false},{"rt":2912.7999999327585,"stimulus":"\n      <p>How sure are you?</p>\n      <p>Rate your confidence in your answer from 1 (pure guess) to 5 (very sure) by pressing the corresponding button.</p>\n     ","response":4,"image":"img/fan_alternate.jpg","task":"confidence","old_or_new":"new","trial_type":"html-button-response","trial_index":60,"time_elapsed":185919,"internal_node_id":"0.0-3.0-1.28","subject_id":"601c1128034be9673e23d52d","study_id":"607de2837874a824e2e8c6ec","session_id":"608850d8b15a38af3a44ee27"},{"rt":1023.174999980256,"stimulus":"img/helmet.jpg","response":"y","image":"img/helmet.jpg","old_or_new":"old","task":"recognition","trial_type":"image-keyboard-response","trial_index":61,"time_elapsed":187449,"internal_node_id":"0.0-3.0-0.29","subject_id":"601c1128034be9673e23d52d","study_id":"607de2837874a824e2e8c6ec","session_id":"608850d8b15a38af3a44ee27","correct":true},{"rt":1577.3650000337511,"stimulus":"\n      <p>How sure are you?</p>\n      <p>Rate your confidence in your answer from 1 (pure guess) to 5 (very sure) by pressing the corresponding button.</p>\n     ","response":4,"image":"img/helmet.jpg","task":"confidence","old_or_new":"old","trial_type":"html-button-response","trial_index":62,"time_elapsed":189030,"internal_node_id":"0.0-3.0-1.29","subject_id":"601c1128034be9673e23d52d","study_id":"607de2837874a824e2e8c6ec","session_id":"608850d8b15a38af3a44ee27"},{"rt":2114.7649999475107,"stimulus":"img/camera.jpg","response":"y","image":"img/camera.jpg","old_or_new":"old","task":"recognition","trial_type":"image-keyboard-response","trial_index":63,"time_elapsed":191649,"internal_node_id":"0.0-3.0-0.30","subject_id":"601c1128034be9673e23d52d","study_id":"607de2837874a824e2e8c6ec","session_id":"608850d8b15a38af3a44ee27","correct":true},{"rt":1818.4149999869987,"stimulus":"\n      <p>How sure are you?</p>\n      <p>Rate your confidence in your answer from 1 (pure guess) to 5 (very sure) by pressing the corresponding button.</p>\n     ","response":1,"image":"img/camera.jpg","task":"confidence","old_or_new":"old","trial_type":"html-button-response","trial_index":64,"time_elapsed":193470,"internal_node_id":"0.0-3.0-1.30","subject_id":"601c1128034be9673e23d52d","study_id":"607de2837874a824e2e8c6ec","session_id":"608850d8b15a38af3a44ee27"},{"rt":1596.4150000363588,"stimulus":"img/apple.jpg","response":"y","image":"img/apple.jpg","old_or_new":"old","task":"recognition","trial_type":"image-keyboard-response","trial_index":65,"time_elapsed":195571,"internal_node_id":"0.0-3.0-0.31","subject_id":"601c1128034be9673e23d52d","study_id":"607de2837874a824e2e8c6ec","session_id":"608850d8b15a38af3a44ee27","correct":true},{"rt":1923.3049999456853,"stimulus":"\n      <p>How sure are you?</p>\n      <p>Rate your confidence in your answer from 1 (pure guess) to 5 (very sure) by pressing the corresponding button.</p>\n     ","response":4,"image":"img/apple.jpg","task":"confidence","old_or_new":"old","trial_type":"html-button-response","trial_index":66,"time_elapsed":197498,"internal_node_id":"0.0-3.0-1.31","subject_id":"601c1128034be9673e23d52d","study_id":"607de2837874a824e2e8c6ec","session_id":"608850d8b15a38af3a44ee27"},{"rt":1076.2899999972433,"stimulus":"img/hourglass.jpg","response":"y","image":"img/hourglass.jpg","old_or_new":"old","task":"recognition","trial_type":"image-keyboard-response","trial_index":67,"time_elapsed":199084,"internal_node_id":"0.0-3.0-0.32","subject_id":"601c1128034be9673e23d52d","study_id":"607de2837874a824e2e8c6ec","session_id":"608850d8b15a38af3a44ee27","correct":true},{"rt":1475.3500000806525,"stimulus":"\n      <p>How sure are you?</p>\n      <p>Rate your confidence in your answer from 1 (pure guess) to 5 (very sure) by pressing the corresponding button.</p>\n     ","response":4,"image":"img/hourglass.jpg","task":"confidence","old_or_new":"old","trial_type":"html-button-response","trial_index":68,"time_elapsed":200562,"internal_node_id":"0.0-3.0-1.32","subject_id":"601c1128034be9673e23d52d","study_id":"607de2837874a824e2e8c6ec","session_id":"608850d8b15a38af3a44ee27"},{"rt":1375.0599999912083,"stimulus":"img/grapes_alternate.jpg","response":"n","image":"img/grapes_alternate.jpg","old_or_new":"new","task":"recognition","trial_type":"image-keyboard-response","trial_index":69,"time_elapsed":202443,"internal_node_id":"0.0-3.0-0.33","subject_id":"601c1128034be9673e23d52d","study_id":"607de2837874a824e2e8c6ec","session_id":"608850d8b15a38af3a44ee27","correct":true},{"rt":2181.0600000899285,"stimulus":"\n      <p>How sure are you?</p>\n      <p>Rate your confidence in your answer from 1 (pure guess) to 5 (very sure) by pressing the corresponding button.</p>\n     ","response":4,"image":"img/grapes_alternate.jpg","task":"confidence","old_or_new":"new","trial_type":"html-button-response","trial_index":70,"time_elapsed":204628,"internal_node_id":"0.0-3.0-1.33","subject_id":"601c1128034be9673e23d52d","study_id":"607de2837874a824e2e8c6ec","session_id":"608850d8b15a38af3a44ee27"},{"rt":1652.8350000735372,"stimulus":"img/globe_alternate.jpg","response":"n","image":"img/globe_alternate.jpg","old_or_new":"new","task":"recognition","trial_type":"image-keyboard-response","trial_index":71,"time_elapsed":206786,"internal_node_id":"0.0-3.0-0.34","subject_id":"601c1128034be9673e23d52d","study_id":"607de2837874a824e2e8c6ec","session_id":"608850d8b15a38af3a44ee27","correct":true},{"rt":1575.7649999577552,"stimulus":"\n      <p>How sure are you?</p>\n      <p>Rate your confidence in your answer from 1 (pure guess) to 5 (very sure) by pressing the corresponding button.</p>\n     ","response":4,"image":"img/globe_alternate.jpg","task":"confidence","old_or_new":"new","trial_type":"html-button-response","trial_index":72,"time_elapsed":208365,"internal_node_id":"0.0-3.0-1.34","subject_id":"601c1128034be9673e23d52d","study_id":"607de2837874a824e2e8c6ec","session_id":"608850d8b15a38af3a44ee27"},{"rt":1605.5349999805912,"stimulus":"img/lightbulb_alternate.jpg","response":"n","image":"img/lightbulb_alternate.jpg","old_or_new":"new","task":"recognition","trial_type":"image-keyboard-response","trial_index":73,"time_elapsed":210475,"internal_node_id":"0.0-3.0-0.35","subject_id":"601c1128034be9673e23d52d","study_id":"607de2837874a824e2e8c6ec","session_id":"608850d8b15a38af3a44ee27","correct":true},{"rt":1538.4599999524653,"stimulus":"\n      <p>How sure are you?</p>\n      <p>Rate your confidence in your answer from 1 (pure guess) to 5 (very sure) by pressing the corresponding button.</p>\n     ","response":4,"image":"img/lightbulb_alternate.jpg","task":"confidence","old_or_new":"new","trial_type":"html-button-response","trial_index":74,"time_elapsed":212016,"internal_node_id":"0.0-3.0-1.35","subject_id":"601c1128034be9673e23d52d","study_id":"607de2837874a824e2e8c6ec","session_id":"608850d8b15a38af3a44ee27"},{"rt":1139.4650000147521,"stimulus":"img/ladder.jpg","response":"y","image":"img/ladder.jpg","old_or_new":"old","task":"recognition","trial_type":"image-keyboard-response","trial_index":75,"time_elapsed":213661,"internal_node_id":"0.0-3.0-0.36","subject_id":"601c1128034be9673e23d52d","study_id":"607de2837874a824e2e8c6ec","session_id":"608850d8b15a38af3a44ee27","correct":true},{"rt":1300.3549999557436,"stimulus":"\n      <p>How sure are you?</p>\n      <p>Rate your confidence in your answer from 1 (pure guess) to 5 (very sure) by pressing the corresponding button.</p>\n     ","response":4,"image":"img/ladder.jpg","task":"confidence","old_or_new":"old","trial_type":"html-button-response","trial_index":76,"time_elapsed":214964,"internal_node_id":"0.0-3.0-1.36","subject_id":"601c1128034be9673e23d52d","study_id":"607de2837874a824e2e8c6ec","session_id":"608850d8b15a38af3a44ee27"},{"rt":1529.549999977462,"stimulus":"img/chair_alternate.jpg","response":"n","image":"img/chair_alternate.jpg","old_or_new":"new","task":"recognition","trial_type":"image-keyboard-response","trial_index":77,"time_elapsed":216998,"internal_node_id":"0.0-3.0-0.37","subject_id":"601c1128034be9673e23d52d","study_id":"607de2837874a824e2e8c6ec","session_id":"608850d8b15a38af3a44ee27","correct":true},{"rt":1700.5100001115352,"stimulus":"\n      <p>How sure are you?</p>\n      <p>Rate your confidence in your answer from 1 (pure guess) to 5 (very sure) by pressing the corresponding button.</p>\n     ","response":4,"image":"img/chair_alternate.jpg","task":"confidence","old_or_new":"new","trial_type":"html-button-response","trial_index":78,"time_elapsed":218702,"internal_node_id":"0.0-3.0-1.37","subject_id":"601c1128034be9673e23d52d","study_id":"607de2837874a824e2e8c6ec","session_id":"608850d8b15a38af3a44ee27"},{"rt":1503.484999993816,"stimulus":"img/helmet_alternate.jpg","response":"n","image":"img/helmet_alternate.jpg","old_or_new":"new","task":"recognition","trial_type":"image-keyboard-response","trial_index":79,"time_elapsed":220709,"internal_node_id":"0.0-3.0-0.38","subject_id":"601c1128034be9673e23d52d","study_id":"607de2837874a824e2e8c6ec","session_id":"608850d8b15a38af3a44ee27","correct":true},{"rt":1557.4900000356138,"stimulus":"\n      <p>How sure are you?</p>\n      <p>Rate your confidence in your answer from 1 (pure guess) to 5 (very sure) by pressing the corresponding button.</p>\n     ","response":4,"image":"img/helmet_alternate.jpg","task":"confidence","old_or_new":"new","trial_type":"html-button-response","trial_index":80,"time_elapsed":222276,"internal_node_id":"0.0-3.0-1.38","subject_id":"601c1128034be9673e23d52d","study_id":"607de2837874a824e2e8c6ec","session_id":"608850d8b15a38af3a44ee27"},{"rt":3793.08500001207,"stimulus":"img/calculator_alternate.jpg","response":"y","image":"img/calculator_alternate.jpg","old_or_new":"new","task":"recognition","trial_type":"image-keyboard-response","trial_index":81,"time_elapsed":226579,"internal_node_id":"0.0-3.0-0.39","subject_id":"601c1128034be9673e23d52d","study_id":"607de2837874a824e2e8c6ec","session_id":"608850d8b15a38af3a44ee27","correct":false},{"rt":1849.4399999035522,"stimulus":"\n      <p>How sure are you?</p>\n      <p>Rate your confidence in your answer from 1 (pure guess) to 5 (very sure) by pressing the corresponding button.</p>\n     ","response":1,"image":"img/calculator_alternate.jpg","task":"confidence","old_or_new":"new","trial_type":"html-button-response","trial_index":82,"time_elapsed":228432,"internal_node_id":"0.0-3.0-1.39","subject_id":"601c1128034be9673e23d52d","study_id":"607de2837874a824e2e8c6ec","session_id":"608850d8b15a38af3a44ee27"},{"rt":1058.8800000259653,"stimulus":"img/hairbrush.jpg","response":"y","image":"img/hairbrush.jpg","old_or_new":"old","task":"recognition","trial_type":"image-keyboard-response","trial_index":83,"time_elapsed":229995,"internal_node_id":"0.0-3.0-0.40","subject_id":"601c1128034be9673e23d52d","study_id":"607de2837874a824e2e8c6ec","session_id":"608850d8b15a38af3a44ee27","correct":true},{"rt":2490.1900000404567,"stimulus":"\n      <p>How sure are you?</p>\n      <p>Rate your confidence in your answer from 1 (pure guess) to 5 (very sure) by pressing the corresponding button.</p>\n     ","response":3,"image":"img/hairbrush.jpg","task":"confidence","old_or_new":"old","trial_type":"html-button-response","trial_index":84,"time_elapsed":232488,"internal_node_id":"0.0-3.0-1.40","subject_id":"601c1128034be9673e23d52d","study_id":"607de2837874a824e2e8c6ec","session_id":"608850d8b15a38af3a44ee27"},{"rt":1318.8249999657273,"stimulus":"img/folder.jpg","response":"y","image":"img/folder.jpg","old_or_new":"old","task":"recognition","trial_type":"image-keyboard-response","trial_index":85,"time_elapsed":234320,"internal_node_id":"0.0-3.0-0.41","subject_id":"601c1128034be9673e23d52d","study_id":"607de2837874a824e2e8c6ec","session_id":"608850d8b15a38af3a44ee27","correct":true},{"rt":1489.5099999848753,"stimulus":"\n      <p>How sure are you?</p>\n      <p>Rate your confidence in your answer from 1 (pure guess) to 5 (very sure) by pressing the corresponding button.</p>\n     ","response":4,"image":"img/folder.jpg","task":"confidence","old_or_new":"old","trial_type":"html-button-response","trial_index":86,"time_elapsed":235812,"internal_node_id":"0.0-3.0-1.41","subject_id":"601c1128034be9673e23d52d","study_id":"607de2837874a824e2e8c6ec","session_id":"608850d8b15a38af3a44ee27"},{"rt":1129.5349999563769,"stimulus":"img/bowl.jpg","response":"y","image":"img/bowl.jpg","old_or_new":"old","task":"recognition","trial_type":"image-keyboard-response","trial_index":87,"time_elapsed":237448,"internal_node_id":"0.0-3.0-0.42","subject_id":"601c1128034be9673e23d52d","study_id":"607de2837874a824e2e8c6ec","session_id":"608850d8b15a38af3a44ee27","correct":true},{"rt":1367.6549999509007,"stimulus":"\n      <p>How sure are you?</p>\n      <p>Rate your confidence in your answer from 1 (pure guess) to 5 (very sure) by pressing the corresponding button.</p>\n     ","response":4,"image":"img/bowl.jpg","task":"confidence","old_or_new":"old","trial_type":"html-button-response","trial_index":88,"time_elapsed":238818,"internal_node_id":"0.0-3.0-1.42","subject_id":"601c1128034be9673e23d52d","study_id":"607de2837874a824e2e8c6ec","session_id":"608850d8b15a38af3a44ee27"},{"rt":1197.785000083968,"stimulus":"img/glasses.jpg","response":"y","image":"img/glasses.jpg","old_or_new":"old","task":"recognition","trial_type":"image-keyboard-response","trial_index":89,"time_elapsed":240520,"internal_node_id":"0.0-3.0-0.43","subject_id":"601c1128034be9673e23d52d","study_id":"607de2837874a824e2e8c6ec","session_id":"608850d8b15a38af3a44ee27","correct":true},{"rt":1454.6600000467151,"stimulus":"\n      <p>How sure are you?</p>\n      <p>Rate your confidence in your answer from 1 (pure guess) to 5 (very sure) by pressing the corresponding button.</p>\n     ","response":4,"image":"img/glasses.jpg","task":"confidence","old_or_new":"old","trial_type":"html-button-response","trial_index":90,"time_elapsed":241978,"internal_node_id":"0.0-3.0-1.43","subject_id":"601c1128034be9673e23d52d","study_id":"607de2837874a824e2e8c6ec","session_id":"608850d8b15a38af3a44ee27"},{"rt":945.6550000468269,"stimulus":"img/coin.jpg","response":"y","image":"img/coin.jpg","old_or_new":"old","task":"recognition","trial_type":"image-keyboard-response","trial_index":91,"time_elapsed":243428,"internal_node_id":"0.0-3.0-0.44","subject_id":"601c1128034be9673e23d52d","study_id":"607de2837874a824e2e8c6ec","session_id":"608850d8b15a38af3a44ee27","correct":true},{"rt":1273.6799999838695,"stimulus":"\n      <p>How sure are you?</p>\n      <p>Rate your confidence in your answer from 1 (pure guess) to 5 (very sure) by pressing the corresponding button.</p>\n     ","response":4,"image":"img/coin.jpg","task":"confidence","old_or_new":"old","trial_type":"html-button-response","trial_index":92,"time_elapsed":244704,"internal_node_id":"0.0-3.0-1.44","subject_id":"601c1128034be9673e23d52d","study_id":"607de2837874a824e2e8c6ec","session_id":"608850d8b15a38af3a44ee27"},{"rt":934.6300000324845,"stimulus":"img/leaf.jpg","response":"y","image":"img/leaf.jpg","old_or_new":"old","task":"recognition","trial_type":"image-keyboard-response","trial_index":93,"time_elapsed":246143,"internal_node_id":"0.0-3.0-0.45","subject_id":"601c1128034be9673e23d52d","study_id":"607de2837874a824e2e8c6ec","session_id":"608850d8b15a38af3a44ee27","correct":true},{"rt":1381.3650000374764,"stimulus":"\n      <p>How sure are you?</p>\n      <p>Rate your confidence in your answer from 1 (pure guess) to 5 (very sure) by pressing the corresponding button.</p>\n     ","response":4,"image":"img/leaf.jpg","task":"confidence","old_or_new":"old","trial_type":"html-button-response","trial_index":94,"time_elapsed":247527,"internal_node_id":"0.0-3.0-1.45","subject_id":"601c1128034be9673e23d52d","study_id":"607de2837874a824e2e8c6ec","session_id":"608850d8b15a38af3a44ee27"},{"rt":1963.7400000356138,"stimulus":"img/coin_alternate.jpg","response":"n","image":"img/coin_alternate.jpg","old_or_new":"new","task":"recognition","trial_type":"image-keyboard-response","trial_index":95,"time_elapsed":249995,"internal_node_id":"0.0-3.0-0.46","subject_id":"601c1128034be9673e23d52d","study_id":"607de2837874a824e2e8c6ec","session_id":"608850d8b15a38af3a44ee27","correct":true},{"rt":1536.9649999774992,"stimulus":"\n      <p>How sure are you?</p>\n      <p>Rate your confidence in your answer from 1 (pure guess) to 5 (very sure) by pressing the corresponding button.</p>\n     ","response":3,"image":"img/coin_alternate.jpg","task":"confidence","old_or_new":"new","trial_type":"html-button-response","trial_index":96,"time_elapsed":251535,"internal_node_id":"0.0-3.0-1.46","subject_id":"601c1128034be9673e23d52d","study_id":"607de2837874a824e2e8c6ec","session_id":"608850d8b15a38af3a44ee27"},{"rt":1660.6100000208244,"stimulus":"img/bowl_alternate.jpg","response":"n","image":"img/bowl_alternate.jpg","old_or_new":"new","task":"recognition","trial_type":"image-keyboard-response","trial_index":97,"time_elapsed":253704,"internal_node_id":"0.0-3.0-0.47","subject_id":"601c1128034be9673e23d52d","study_id":"607de2837874a824e2e8c6ec","session_id":"608850d8b15a38af3a44ee27","correct":true},{"rt":1557.2000000393018,"stimulus":"\n      <p>How sure are you?</p>\n      <p>Rate your confidence in your answer from 1 (pure guess) to 5 (very sure) by pressing the corresponding button.</p>\n     ","response":4,"image":"img/bowl_alternate.jpg","task":"confidence","old_or_new":"new","trial_type":"html-button-response","trial_index":98,"time_elapsed":255264,"internal_node_id":"0.0-3.0-1.47","subject_id":"601c1128034be9673e23d52d","study_id":"607de2837874a824e2e8c6ec","session_id":"608850d8b15a38af3a44ee27"}]