[{"success":true,"timeout":false,"failed_images":[],"failed_audio":[],"failed_video":[],"trial_type":"preload","trial_index":0,"time_elapsed":6419,"internal_node_id":"0.0-0.0","subject_id":"60428bd1f468bb19539d1351","study_id":"607de2837874a824e2e8c6ec","session_id":"6088781eacfc02a336a25364"},{"rt":29867.914999995264,"stimulus":"\n      <div style=\"width:800px; text-align: left;\">\n        <p>Welcome to day 2 of the experiment! Thanks for coming back.</p>\n        <p>You will be presented with a series of images. Images will appear one at a time.</p>\n        <p>Each image will remain on the screen until you press either <span style=\"font-weight: bold;\">\"y\" to indicate you have seen the \n        exact same photo the day before or \"n\" to indicate you have not seen the exact same photo the day before.</span></p>\n        <p>After you answer yes (\"y\") or no (\"n\"), you will then be prompted to rate your certainty on a scale of\n        1 (pure guess) to 5 (very sure).</p>\n      </div>\n    ","response":0,"trial_type":"html-button-response","trial_index":1,"time_elapsed":36289,"internal_node_id":"0.0-1.0","subject_id":"60428bd1f468bb19539d1351","study_id":"607de2837874a824e2e8c6ec","session_id":"6088781eacfc02a336a25364"},{"success":true,"trial_type":"fullscreen","trial_index":2,"time_elapsed":39240,"internal_node_id":"0.0-2.0","subject_id":"60428bd1f468bb19539d1351","study_id":"607de2837874a824e2e8c6ec","session_id":"6088781eacfc02a336a25364"},{"rt":1853.1000000075437,"stimulus":"img/folder.jpg","response":"y","image":"img/folder.jpg","old_or_new":"old","task":"recognition","trial_type":"image-keyboard-response","trial_index":3,"time_elapsed":41102,"internal_node_id":"0.0-3.0-0.0","subject_id":"60428bd1f468bb19539d1351","study_id":"607de2837874a824e2e8c6ec","session_id":"6088781eacfc02a336a25364","correct":true},{"rt":1832.3200000013458,"stimulus":"\n      <p>How sure are you?</p>\n      <p>Rate your confidence in your answer from 1 (pure guess) to 5 (very sure) by pressing the corresponding button.</p>\n     ","response":4,"image":"img/folder.jpg","task":"confidence","old_or_new":"old","trial_type":"html-button-response","trial_index":4,"time_elapsed":42936,"internal_node_id":"0.0-3.0-1.0","subject_id":"60428bd1f468bb19539d1351","study_id":"607de2837874a824e2e8c6ec","session_id":"6088781eacfc02a336a25364"},{"rt":978.545000005397,"stimulus":"img/hairbrush_alternate.jpg","response":"n","image":"img/hairbrush_alternate.jpg","old_or_new":"new","task":"recognition","trial_type":"image-keyboard-response","trial_index":5,"time_elapsed":44416,"internal_node_id":"0.0-3.0-0.1","subject_id":"60428bd1f468bb19539d1351","study_id":"607de2837874a824e2e8c6ec","session_id":"6088781eacfc02a336a25364","correct":true},{"rt":1414.8549999954412,"stimulus":"\n      <p>How sure are you?</p>\n      <p>Rate your confidence in your answer from 1 (pure guess) to 5 (very sure) by pressing the corresponding button.</p>\n     ","response":4,"image":"img/hairbrush_alternate.jpg","task":"confidence","old_or_new":"new","trial_type":"html-button-response","trial_index":6,"time_elapsed":45832,"internal_node_id":"0.0-3.0-1.1","subject_id":"60428bd1f468bb19539d1351","study_id":"607de2837874a824e2e8c6ec","session_id":"6088781eacfc02a336a25364"},{"rt":662.7249999874039,"stimulus":"img/ladder.jpg","response":"y","image":"img/ladder.jpg","old_or_new":"old","task":"recognition","trial_type":"image-keyboard-response","trial_index":7,"time_elapsed":46998,"internal_node_id":"0.0-3.0-0.2","subject_id":"60428bd1f468bb19539d1351","study_id":"607de2837874a824e2e8c6ec","session_id":"6088781eacfc02a336a25364","correct":true},{"rt":969.1049999964889,"stimulus":"\n      <p>How sure are you?</p>\n      <p>Rate your confidence in your answer from 1 (pure guess) to 5 (very sure) by pressing the corresponding button.</p>\n     ","response":4,"image":"img/ladder.jpg","task":"confidence","old_or_new":"old","trial_type":"html-button-response","trial_index":8,"time_elapsed":47968,"internal_node_id":"0.0-3.0-1.2","subject_id":"60428bd1f468bb19539d1351","study_id":"607de2837874a824e2e8c6ec","session_id":"6088781eacfc02a336a25364"},{"rt":2247.6150000002235,"stimulus":"img/glasses_alternate.jpg","response":"y","image":"img/glasses_alternate.jpg","old_or_new":"new","task":"recognition","trial_type":"image-keyboard-response","trial_index":9,"time_elapsed":50718,"internal_node_id":"0.0-3.0-0.3","subject_id":"60428bd1f468bb19539d1351","study_id":"607de2837874a824e2e8c6ec","session_id":"6088781eacfc02a336a25364","correct":false},{"rt":1905.6350000028033,"stimulus":"\n      <p>How sure are you?</p>\n      <p>Rate your confidence in your answer from 1 (pure guess) to 5 (very sure) by pressing the corresponding button.</p>\n     ","response":2,"image":"img/glasses_alternate.jpg","task":"confidence","old_or_new":"new","trial_type":"html-button-response","trial_index":10,"time_elapsed":52624,"internal_node_id":"0.0-3.0-1.3","subject_id":"60428bd1f468bb19539d1351","study_id":"607de2837874a824e2e8c6ec","session_id":"6088781eacfc02a336a25364"},{"rt":2231.1350000090897,"stimulus":"img/coin_alternate.jpg","response":"n","image":"img/coin_alternate.jpg","old_or_new":"new","task":"recognition","trial_type":"image-keyboard-response","trial_index":11,"time_elapsed":55366,"internal_node_id":"0.0-3.0-0.4","subject_id":"60428bd1f468bb19539d1351","study_id":"607de2837874a824e2e8c6ec","session_id":"6088781eacfc02a336a25364","correct":true},{"rt":985.2649999957066,"stimulus":"\n      <p>How sure are you?</p>\n      <p>Rate your confidence in your answer from 1 (pure guess) to 5 (very sure) by pressing the corresponding button.</p>\n     ","response":4,"image":"img/coin_alternate.jpg","task":"confidence","old_or_new":"new","trial_type":"html-button-response","trial_index":12,"time_elapsed":56352,"internal_node_id":"0.0-3.0-1.4","subject_id":"60428bd1f468bb19539d1351","study_id":"607de2837874a824e2e8c6ec","session_id":"6088781eacfc02a336a25364"},{"rt":2770.074999993085,"stimulus":"img/key_alternate.jpg","response":"n","image":"img/key_alternate.jpg","old_or_new":"new","task":"recognition","trial_type":"image-keyboard-response","trial_index":13,"time_elapsed":59624,"internal_node_id":"0.0-3.0-0.5","subject_id":"60428bd1f468bb19539d1351","study_id":"607de2837874a824e2e8c6ec","session_id":"6088781eacfc02a336a25364","correct":true},{"rt":1022.9299999919022,"stimulus":"\n      <p>How sure are you?</p>\n      <p>Rate your confidence in your answer from 1 (pure guess) to 5 (very sure) by pressing the corresponding button.</p>\n     ","response":2,"image":"img/key_alternate.jpg","task":"confidence","old_or_new":"new","trial_type":"html-button-response","trial_index":14,"time_elapsed":60648,"internal_node_id":"0.0-3.0-1.5","subject_id":"60428bd1f468bb19539d1351","study_id":"607de2837874a824e2e8c6ec","session_id":"6088781eacfc02a336a25364"},{"rt":744.2799999989802,"stimulus":"img/chair_alternate.jpg","response":"n","image":"img/chair_alternate.jpg","old_or_new":"new","task":"recognition","trial_type":"image-keyboard-response","trial_index":15,"time_elapsed":61910,"internal_node_id":"0.0-3.0-0.6","subject_id":"60428bd1f468bb19539d1351","study_id":"607de2837874a824e2e8c6ec","session_id":"6088781eacfc02a336a25364","correct":true},{"rt":721.4600000006612,"stimulus":"\n      <p>How sure are you?</p>\n      <p>Rate your confidence in your answer from 1 (pure guess) to 5 (very sure) by pressing the corresponding button.</p>\n     ","response":4,"image":"img/chair_alternate.jpg","task":"confidence","old_or_new":"new","trial_type":"html-button-response","trial_index":16,"time_elapsed":62632,"internal_node_id":"0.0-3.0-1.6","subject_id":"60428bd1f468bb19539d1351","study_id":"607de2837874a824e2e8c6ec","session_id":"6088781eacfc02a336a25364"},{"rt":623.9650000061374,"stimulus":"img/calculator.jpg","response":"y","image":"img/calculator.jpg","old_or_new":"old","task":"recognition","trial_type":"image-keyboard-response","trial_index":17,"time_elapsed":63758,"internal_node_id":"0.0-3.0-0.7","subject_id":"60428bd1f468bb19539d1351","study_id":"607de2837874a824e2e8c6ec","session_id":"6088781eacfc02a336a25364","correct":true},{"rt":665.5549999995856,"stimulus":"\n      <p>How sure are you?</p>\n      <p>Rate your confidence in your answer from 1 (pure guess) to 5 (very sure) by pressing the corresponding button.</p>\n     ","response":4,"image":"img/calculator.jpg","task":"confidence","old_or_new":"old","trial_type":"html-button-response","trial_index":18,"time_elapsed":64424,"internal_node_id":"0.0-3.0-1.7","subject_id":"60428bd1f468bb19539d1351","study_id":"607de2837874a824e2e8c6ec","session_id":"6088781eacfc02a336a25364"},{"rt":913.765000004787,"stimulus":"img/lightbulb_alternate.jpg","response":"n","image":"img/lightbulb_alternate.jpg","old_or_new":"new","task":"recognition","trial_type":"image-keyboard-response","trial_index":19,"time_elapsed":65850,"internal_node_id":"0.0-3.0-0.8","subject_id":"60428bd1f468bb19539d1351","study_id":"607de2837874a824e2e8c6ec","session_id":"6088781eacfc02a336a25364","correct":true},{"rt":621.8599999992875,"stimulus":"\n      <p>How sure are you?</p>\n      <p>Rate your confidence in your answer from 1 (pure guess) to 5 (very sure) by pressing the corresponding button.</p>\n     ","response":4,"image":"img/lightbulb_alternate.jpg","task":"confidence","old_or_new":"new","trial_type":"html-button-response","trial_index":20,"time_elapsed":66473,"internal_node_id":"0.0-3.0-1.8","subject_id":"60428bd1f468bb19539d1351","study_id":"607de2837874a824e2e8c6ec","session_id":"6088781eacfc02a336a25364"},{"rt":945.1400000107242,"stimulus":"img/drum.jpg","response":"y","image":"img/drum.jpg","old_or_new":"old","task":"recognition","trial_type":"image-keyboard-response","trial_index":21,"time_elapsed":67927,"internal_node_id":"0.0-3.0-0.9","subject_id":"60428bd1f468bb19539d1351","study_id":"607de2837874a824e2e8c6ec","session_id":"6088781eacfc02a336a25364","correct":true},{"rt":488.2999999972526,"stimulus":"\n      <p>How sure are you?</p>\n      <p>Rate your confidence in your answer from 1 (pure guess) to 5 (very sure) by pressing the corresponding button.</p>\n     ","response":4,"image":"img/drum.jpg","task":"confidence","old_or_new":"old","trial_type":"html-button-response","trial_index":22,"time_elapsed":68416,"internal_node_id":"0.0-3.0-1.9","subject_id":"60428bd1f468bb19539d1351","study_id":"607de2837874a824e2e8c6ec","session_id":"6088781eacfc02a336a25364"},{"rt":1559.370000002673,"stimulus":"img/camera.jpg","response":"y","image":"img/camera.jpg","old_or_new":"old","task":"recognition","trial_type":"image-keyboard-response","trial_index":23,"time_elapsed":70477,"internal_node_id":"0.0-3.0-0.10","subject_id":"60428bd1f468bb19539d1351","study_id":"607de2837874a824e2e8c6ec","session_id":"6088781eacfc02a336a25364","correct":true},{"rt":466.4599999960046,"stimulus":"\n      <p>How sure are you?</p>\n      <p>Rate your confidence in your answer from 1 (pure guess) to 5 (very sure) by pressing the corresponding button.</p>\n     ","response":4,"image":"img/camera.jpg","task":"confidence","old_or_new":"old","trial_type":"html-button-response","trial_index":24,"time_elapsed":70944,"internal_node_id":"0.0-3.0-1.10","subject_id":"60428bd1f468bb19539d1351","study_id":"607de2837874a824e2e8c6ec","session_id":"6088781eacfc02a336a25364"},{"rt":726.9899999955669,"stimulus":"img/hat.jpg","response":"y","image":"img/hat.jpg","old_or_new":"old","task":"recognition","trial_type":"image-keyboard-response","trial_index":25,"time_elapsed":72180,"internal_node_id":"0.0-3.0-0.11","subject_id":"60428bd1f468bb19539d1351","study_id":"607de2837874a824e2e8c6ec","session_id":"6088781eacfc02a336a25364","correct":true},{"rt":451.5899999969406,"stimulus":"\n      <p>How sure are you?</p>\n      <p>Rate your confidence in your answer from 1 (pure guess) to 5 (very sure) by pressing the corresponding button.</p>\n     ","response":4,"image":"img/hat.jpg","task":"confidence","old_or_new":"old","trial_type":"html-button-response","trial_index":26,"time_elapsed":72632,"internal_node_id":"0.0-3.0-1.11","subject_id":"60428bd1f468bb19539d1351","study_id":"607de2837874a824e2e8c6ec","session_id":"6088781eacfc02a336a25364"},{"rt":781.0100000060629,"stimulus":"img/key.jpg","response":"y","image":"img/key.jpg","old_or_new":"old","task":"recognition","trial_type":"image-keyboard-response","trial_index":27,"time_elapsed":73930,"internal_node_id":"0.0-3.0-0.12","subject_id":"60428bd1f468bb19539d1351","study_id":"607de2837874a824e2e8c6ec","session_id":"6088781eacfc02a336a25364","correct":true},{"rt":460.68499999819323,"stimulus":"\n      <p>How sure are you?</p>\n      <p>Rate your confidence in your answer from 1 (pure guess) to 5 (very sure) by pressing the corresponding button.</p>\n     ","response":4,"image":"img/key.jpg","task":"confidence","old_or_new":"old","trial_type":"html-button-response","trial_index":28,"time_elapsed":74392,"internal_node_id":"0.0-3.0-1.12","subject_id":"60428bd1f468bb19539d1351","study_id":"607de2837874a824e2e8c6ec","session_id":"6088781eacfc02a336a25364"},{"rt":679.2399999976624,"stimulus":"img/hourglass.jpg","response":"y","image":"img/hourglass.jpg","old_or_new":"old","task":"recognition","trial_type":"image-keyboard-response","trial_index":29,"time_elapsed":75579,"internal_node_id":"0.0-3.0-0.13","subject_id":"60428bd1f468bb19539d1351","study_id":"607de2837874a824e2e8c6ec","session_id":"6088781eacfc02a336a25364","correct":true},{"rt":452.3450000124285,"stimulus":"\n      <p>How sure are you?</p>\n      <p>Rate your confidence in your answer from 1 (pure guess) to 5 (very sure) by pressing the corresponding button.</p>\n     ","response":4,"image":"img/hourglass.jpg","task":"confidence","old_or_new":"old","trial_type":"html-button-response","trial_index":30,"time_elapsed":76032,"internal_node_id":"0.0-3.0-1.13","subject_id":"60428bd1f468bb19539d1351","study_id":"607de2837874a824e2e8c6ec","session_id":"6088781eacfc02a336a25364"},{"rt":2124.0600000019185,"stimulus":"img/apple.jpg","response":"y","image":"img/apple.jpg","old_or_new":"old","task":"recognition","trial_type":"image-keyboard-response","trial_index":31,"time_elapsed":78671,"internal_node_id":"0.0-3.0-0.14","subject_id":"60428bd1f468bb19539d1351","study_id":"607de2837874a824e2e8c6ec","session_id":"6088781eacfc02a336a25364","correct":true},{"rt":423.9850000012666,"stimulus":"\n      <p>How sure are you?</p>\n      <p>Rate your confidence in your answer from 1 (pure guess) to 5 (very sure) by pressing the corresponding button.</p>\n     ","response":4,"image":"img/apple.jpg","task":"confidence","old_or_new":"old","trial_type":"html-button-response","trial_index":32,"time_elapsed":79096,"internal_node_id":"0.0-3.0-1.14","subject_id":"60428bd1f468bb19539d1351","study_id":"607de2837874a824e2e8c6ec","session_id":"6088781eacfc02a336a25364"},{"rt":538.2550000067567,"stimulus":"img/globe.jpg","response":"y","image":"img/globe.jpg","old_or_new":"old","task":"recognition","trial_type":"image-keyboard-response","trial_index":33,"time_elapsed":80145,"internal_node_id":"0.0-3.0-0.15","subject_id":"60428bd1f468bb19539d1351","study_id":"607de2837874a824e2e8c6ec","session_id":"6088781eacfc02a336a25364","correct":true},{"rt":421.95499999797903,"stimulus":"\n      <p>How sure are you?</p>\n      <p>Rate your confidence in your answer from 1 (pure guess) to 5 (very sure) by pressing the corresponding button.</p>\n     ","response":4,"image":"img/globe.jpg","task":"confidence","old_or_new":"old","trial_type":"html-button-response","trial_index":34,"time_elapsed":80568,"internal_node_id":"0.0-3.0-1.15","subject_id":"60428bd1f468bb19539d1351","study_id":"607de2837874a824e2e8c6ec","session_id":"6088781eacfc02a336a25364"},{"rt":2159.0699999942444,"stimulus":"img/hairbrush.jpg","response":"y","image":"img/hairbrush.jpg","old_or_new":"old","task":"recognition","trial_type":"image-keyboard-response","trial_index":35,"time_elapsed":83230,"internal_node_id":"0.0-3.0-0.16","subject_id":"60428bd1f468bb19539d1351","study_id":"607de2837874a824e2e8c6ec","session_id":"6088781eacfc02a336a25364","correct":true},{"rt":689.4449999963399,"stimulus":"\n      <p>How sure are you?</p>\n      <p>Rate your confidence in your answer from 1 (pure guess) to 5 (very sure) by pressing the corresponding button.</p>\n     ","response":3,"image":"img/hairbrush.jpg","task":"confidence","old_or_new":"old","trial_type":"html-button-response","trial_index":36,"time_elapsed":83920,"internal_node_id":"0.0-3.0-1.16","subject_id":"60428bd1f468bb19539d1351","study_id":"607de2837874a824e2e8c6ec","session_id":"6088781eacfc02a336a25364"},{"rt":700.6800000090152,"stimulus":"img/hat_alternate.jpg","response":"n","image":"img/hat_alternate.jpg","old_or_new":"new","task":"recognition","trial_type":"image-keyboard-response","trial_index":37,"time_elapsed":85130,"internal_node_id":"0.0-3.0-0.17","subject_id":"60428bd1f468bb19539d1351","study_id":"607de2837874a824e2e8c6ec","session_id":"6088781eacfc02a336a25364","correct":true},{"rt":661.775000000489,"stimulus":"\n      <p>How sure are you?</p>\n      <p>Rate your confidence in your answer from 1 (pure guess) to 5 (very sure) by pressing the corresponding button.</p>\n     ","response":4,"image":"img/hat_alternate.jpg","task":"confidence","old_or_new":"new","trial_type":"html-button-response","trial_index":38,"time_elapsed":85793,"internal_node_id":"0.0-3.0-1.17","subject_id":"60428bd1f468bb19539d1351","study_id":"607de2837874a824e2e8c6ec","session_id":"6088781eacfc02a336a25364"},{"rt":1755.6399999884889,"stimulus":"img/dryer_alternate.jpg","response":"n","image":"img/dryer_alternate.jpg","old_or_new":"new","task":"recognition","trial_type":"image-keyboard-response","trial_index":39,"time_elapsed":88058,"internal_node_id":"0.0-3.0-0.18","subject_id":"60428bd1f468bb19539d1351","study_id":"607de2837874a824e2e8c6ec","session_id":"6088781eacfc02a336a25364","correct":true},{"rt":1373.505000010482,"stimulus":"\n      <p>How sure are you?</p>\n      <p>Rate your confidence in your answer from 1 (pure guess) to 5 (very sure) by pressing the corresponding button.</p>\n     ","response":4,"image":"img/dryer_alternate.jpg","task":"confidence","old_or_new":"new","trial_type":"html-button-response","trial_index":40,"time_elapsed":89432,"internal_node_id":"0.0-3.0-1.18","subject_id":"60428bd1f468bb19539d1351","study_id":"607de2837874a824e2e8c6ec","session_id":"6088781eacfc02a336a25364"},{"rt":659.6649999992223,"stimulus":"img/helmet.jpg","response":"y","image":"img/helmet.jpg","old_or_new":"old","task":"recognition","trial_type":"image-keyboard-response","trial_index":41,"time_elapsed":90605,"internal_node_id":"0.0-3.0-0.19","subject_id":"60428bd1f468bb19539d1351","study_id":"607de2837874a824e2e8c6ec","session_id":"6088781eacfc02a336a25364","correct":true},{"rt":446.0350000008475,"stimulus":"\n      <p>How sure are you?</p>\n      <p>Rate your confidence in your answer from 1 (pure guess) to 5 (very sure) by pressing the corresponding button.</p>\n     ","response":4,"image":"img/helmet.jpg","task":"confidence","old_or_new":"old","trial_type":"html-button-response","trial_index":42,"time_elapsed":91052,"internal_node_id":"0.0-3.0-1.19","subject_id":"60428bd1f468bb19539d1351","study_id":"607de2837874a824e2e8c6ec","session_id":"6088781eacfc02a336a25364"},{"rt":678.71500000183,"stimulus":"img/dryer.jpg","response":"y","image":"img/dryer.jpg","old_or_new":"old","task":"recognition","trial_type":"image-keyboard-response","trial_index":43,"time_elapsed":92244,"internal_node_id":"0.0-3.0-0.20","subject_id":"60428bd1f468bb19539d1351","study_id":"607de2837874a824e2e8c6ec","session_id":"6088781eacfc02a336a25364","correct":true},{"rt":387.33500000671484,"stimulus":"\n      <p>How sure are you?</p>\n      <p>Rate your confidence in your answer from 1 (pure guess) to 5 (very sure) by pressing the corresponding button.</p>\n     ","response":4,"image":"img/dryer.jpg","task":"confidence","old_or_new":"old","trial_type":"html-button-response","trial_index":44,"time_elapsed":92632,"internal_node_id":"0.0-3.0-1.20","subject_id":"60428bd1f468bb19539d1351","study_id":"607de2837874a824e2e8c6ec","session_id":"6088781eacfc02a336a25364"},{"rt":1717.6850000105333,"stimulus":"img/glasses.jpg","response":"n","image":"img/glasses.jpg","old_or_new":"old","task":"recognition","trial_type":"image-keyboard-response","trial_index":45,"time_elapsed":94854,"internal_node_id":"0.0-3.0-0.21","subject_id":"60428bd1f468bb19539d1351","study_id":"607de2837874a824e2e8c6ec","session_id":"6088781eacfc02a336a25364","correct":false},{"rt":1264.9899999960326,"stimulus":"\n      <p>How sure are you?</p>\n      <p>Rate your confidence in your answer from 1 (pure guess) to 5 (very sure) by pressing the corresponding button.</p>\n     ","response":2,"image":"img/glasses.jpg","task":"confidence","old_or_new":"old","trial_type":"html-button-response","trial_index":46,"time_elapsed":96120,"internal_node_id":"0.0-3.0-1.21","subject_id":"60428bd1f468bb19539d1351","study_id":"607de2837874a824e2e8c6ec","session_id":"6088781eacfc02a336a25364"},{"rt":838.13000000373,"stimulus":"img/basket.jpg","response":"y","image":"img/basket.jpg","old_or_new":"old","task":"recognition","trial_type":"image-keyboard-response","trial_index":47,"time_elapsed":97469,"internal_node_id":"0.0-3.0-0.22","subject_id":"60428bd1f468bb19539d1351","study_id":"607de2837874a824e2e8c6ec","session_id":"6088781eacfc02a336a25364","correct":true},{"rt":1178.6600000050385,"stimulus":"\n      <p>How sure are you?</p>\n      <p>Rate your confidence in your answer from 1 (pure guess) to 5 (very sure) by pressing the corresponding button.</p>\n     ","response":4,"image":"img/basket.jpg","task":"confidence","old_or_new":"old","trial_type":"html-button-response","trial_index":48,"time_elapsed":98648,"internal_node_id":"0.0-3.0-1.22","subject_id":"60428bd1f468bb19539d1351","study_id":"607de2837874a824e2e8c6ec","session_id":"6088781eacfc02a336a25364"},{"rt":987.330000003567,"stimulus":"img/leaf_alternate.jpg","response":"n","image":"img/leaf_alternate.jpg","old_or_new":"new","task":"recognition","trial_type":"image-keyboard-response","trial_index":49,"time_elapsed":100149,"internal_node_id":"0.0-3.0-0.23","subject_id":"60428bd1f468bb19539d1351","study_id":"607de2837874a824e2e8c6ec","session_id":"6088781eacfc02a336a25364","correct":true},{"rt":419.2650000040885,"stimulus":"\n      <p>How sure are you?</p>\n      <p>Rate your confidence in your answer from 1 (pure guess) to 5 (very sure) by pressing the corresponding button.</p>\n     ","response":4,"image":"img/leaf_alternate.jpg","task":"confidence","old_or_new":"new","trial_type":"html-button-response","trial_index":50,"time_elapsed":100569,"internal_node_id":"0.0-3.0-1.23","subject_id":"60428bd1f468bb19539d1351","study_id":"607de2837874a824e2e8c6ec","session_id":"6088781eacfc02a336a25364"},{"rt":893.2600000116508,"stimulus":"img/leaf.jpg","response":"y","image":"img/leaf.jpg","old_or_new":"old","task":"recognition","trial_type":"image-keyboard-response","trial_index":51,"time_elapsed":101969,"internal_node_id":"0.0-3.0-0.24","subject_id":"60428bd1f468bb19539d1351","study_id":"607de2837874a824e2e8c6ec","session_id":"6088781eacfc02a336a25364","correct":true},{"rt":422.21499999868684,"stimulus":"\n      <p>How sure are you?</p>\n      <p>Rate your confidence in your answer from 1 (pure guess) to 5 (very sure) by pressing the corresponding button.</p>\n     ","response":4,"image":"img/leaf.jpg","task":"confidence","old_or_new":"old","trial_type":"html-button-response","trial_index":52,"time_elapsed":102392,"internal_node_id":"0.0-3.0-1.24","subject_id":"60428bd1f468bb19539d1351","study_id":"607de2837874a824e2e8c6ec","session_id":"6088781eacfc02a336a25364"},{"rt":867.790000003879,"stimulus":"img/basket_alternate.jpg","response":"n","image":"img/basket_alternate.jpg","old_or_new":"new","task":"recognition","trial_type":"image-keyboard-response","trial_index":53,"time_elapsed":103767,"internal_node_id":"0.0-3.0-0.25","subject_id":"60428bd1f468bb19539d1351","study_id":"607de2837874a824e2e8c6ec","session_id":"6088781eacfc02a336a25364","correct":true},{"rt":367.9600000032224,"stimulus":"\n      <p>How sure are you?</p>\n      <p>Rate your confidence in your answer from 1 (pure guess) to 5 (very sure) by pressing the corresponding button.</p>\n     ","response":4,"image":"img/basket_alternate.jpg","task":"confidence","old_or_new":"new","trial_type":"html-button-response","trial_index":54,"time_elapsed":104136,"internal_node_id":"0.0-3.0-1.25","subject_id":"60428bd1f468bb19539d1351","study_id":"607de2837874a824e2e8c6ec","session_id":"6088781eacfc02a336a25364"},{"rt":800.7199999992736,"stimulus":"img/hourglass_alternate.jpg","response":"n","image":"img/hourglass_alternate.jpg","old_or_new":"new","task":"recognition","trial_type":"image-keyboard-response","trial_index":55,"time_elapsed":105450,"internal_node_id":"0.0-3.0-0.26","subject_id":"60428bd1f468bb19539d1351","study_id":"607de2837874a824e2e8c6ec","session_id":"6088781eacfc02a336a25364","correct":true},{"rt":381.7049999925075,"stimulus":"\n      <p>How sure are you?</p>\n      <p>Rate your confidence in your answer from 1 (pure guess) to 5 (very sure) by pressing the corresponding button.</p>\n     ","response":4,"image":"img/hourglass_alternate.jpg","task":"confidence","old_or_new":"new","trial_type":"html-button-response","trial_index":56,"time_elapsed":105832,"internal_node_id":"0.0-3.0-1.26","subject_id":"60428bd1f468bb19539d1351","study_id":"607de2837874a824e2e8c6ec","session_id":"6088781eacfc02a336a25364"},{"rt":684.1350000031525,"stimulus":"img/chair.jpg","response":"y","image":"img/chair.jpg","old_or_new":"old","task":"recognition","trial_type":"image-keyboard-response","trial_index":57,"time_elapsed":107028,"internal_node_id":"0.0-3.0-0.27","subject_id":"60428bd1f468bb19539d1351","study_id":"607de2837874a824e2e8c6ec","session_id":"6088781eacfc02a336a25364","correct":true},{"rt":395.35999999498017,"stimulus":"\n      <p>How sure are you?</p>\n      <p>Rate your confidence in your answer from 1 (pure guess) to 5 (very sure) by pressing the corresponding button.</p>\n     ","response":4,"image":"img/chair.jpg","task":"confidence","old_or_new":"old","trial_type":"html-button-response","trial_index":58,"time_elapsed":107424,"internal_node_id":"0.0-3.0-1.27","subject_id":"60428bd1f468bb19539d1351","study_id":"607de2837874a824e2e8c6ec","session_id":"6088781eacfc02a336a25364"},{"rt":690.8350000012433,"stimulus":"img/grapes.jpg","response":"y","image":"img/grapes.jpg","old_or_new":"old","task":"recognition","trial_type":"image-keyboard-response","trial_index":59,"time_elapsed":108617,"internal_node_id":"0.0-3.0-0.28","subject_id":"60428bd1f468bb19539d1351","study_id":"607de2837874a824e2e8c6ec","session_id":"6088781eacfc02a336a25364","correct":true},{"rt":333.9249999989988,"stimulus":"\n      <p>How sure are you?</p>\n      <p>Rate your confidence in your answer from 1 (pure guess) to 5 (very sure) by pressing the corresponding button.</p>\n     ","response":4,"image":"img/grapes.jpg","task":"confidence","old_or_new":"old","trial_type":"html-button-response","trial_index":60,"time_elapsed":108952,"internal_node_id":"0.0-3.0-1.28","subject_id":"60428bd1f468bb19539d1351","study_id":"607de2837874a824e2e8c6ec","session_id":"6088781eacfc02a336a25364"},{"rt":750.4449999978533,"stimulus":"img/calculator_alternate.jpg","response":"n","image":"img/calculator_alternate.jpg","old_or_new":"new","task":"recognition","trial_type":"image-keyboard-response","trial_index":61,"time_elapsed":110210,"internal_node_id":"0.0-3.0-0.29","subject_id":"60428bd1f468bb19539d1351","study_id":"607de2837874a824e2e8c6ec","session_id":"6088781eacfc02a336a25364","correct":true},{"rt":381.1450000066543,"stimulus":"\n      <p>How sure are you?</p>\n      <p>Rate your confidence in your answer from 1 (pure guess) to 5 (very sure) by pressing the corresponding button.</p>\n     ","response":4,"image":"img/calculator_alternate.jpg","task":"confidence","old_or_new":"new","trial_type":"html-button-response","trial_index":62,"time_elapsed":110592,"internal_node_id":"0.0-3.0-1.29","subject_id":"60428bd1f468bb19539d1351","study_id":"607de2837874a824e2e8c6ec","session_id":"6088781eacfc02a336a25364"},{"rt":550.6299999979092,"stimulus":"img/lightbulb.jpg","response":"y","image":"img/lightbulb.jpg","old_or_new":"old","task":"recognition","trial_type":"image-keyboard-response","trial_index":63,"time_elapsed":111648,"internal_node_id":"0.0-3.0-0.30","subject_id":"60428bd1f468bb19539d1351","study_id":"607de2837874a824e2e8c6ec","session_id":"6088781eacfc02a336a25364","correct":true},{"rt":391.2550000095507,"stimulus":"\n      <p>How sure are you?</p>\n      <p>Rate your confidence in your answer from 1 (pure guess) to 5 (very sure) by pressing the corresponding button.</p>\n     ","response":4,"image":"img/lightbulb.jpg","task":"confidence","old_or_new":"old","trial_type":"html-button-response","trial_index":64,"time_elapsed":112040,"internal_node_id":"0.0-3.0-1.30","subject_id":"60428bd1f468bb19539d1351","study_id":"607de2837874a824e2e8c6ec","session_id":"6088781eacfc02a336a25364"},{"rt":822.3499999876367,"stimulus":"img/helmet_alternate.jpg","response":"n","image":"img/helmet_alternate.jpg","old_or_new":"new","task":"recognition","trial_type":"image-keyboard-response","trial_index":65,"time_elapsed":113377,"internal_node_id":"0.0-3.0-0.31","subject_id":"60428bd1f468bb19539d1351","study_id":"607de2837874a824e2e8c6ec","session_id":"6088781eacfc02a336a25364","correct":true},{"rt":354.2650000017602,"stimulus":"\n      <p>How sure are you?</p>\n      <p>Rate your confidence in your answer from 1 (pure guess) to 5 (very sure) by pressing the corresponding button.</p>\n     ","response":4,"image":"img/helmet_alternate.jpg","task":"confidence","old_or_new":"new","trial_type":"html-button-response","trial_index":66,"time_elapsed":113732,"internal_node_id":"0.0-3.0-1.31","subject_id":"60428bd1f468bb19539d1351","study_id":"607de2837874a824e2e8c6ec","session_id":"6088781eacfc02a336a25364"},{"rt":803.7449999974342,"stimulus":"img/grapes_alternate.jpg","response":"n","image":"img/grapes_alternate.jpg","old_or_new":"new","task":"recognition","trial_type":"image-keyboard-response","trial_index":67,"time_elapsed":115043,"internal_node_id":"0.0-3.0-0.32","subject_id":"60428bd1f468bb19539d1351","study_id":"607de2837874a824e2e8c6ec","session_id":"6088781eacfc02a336a25364","correct":true},{"rt":372.45500000426546,"stimulus":"\n      <p>How sure are you?</p>\n      <p>Rate your confidence in your answer from 1 (pure guess) to 5 (very sure) by pressing the corresponding button.</p>\n     ","response":4,"image":"img/grapes_alternate.jpg","task":"confidence","old_or_new":"new","trial_type":"html-button-response","trial_index":68,"time_elapsed":115416,"internal_node_id":"0.0-3.0-1.32","subject_id":"60428bd1f468bb19539d1351","study_id":"607de2837874a824e2e8c6ec","session_id":"6088781eacfc02a336a25364"},{"rt":730.7700000092154,"stimulus":"img/folder_alternate.jpg","response":"n","image":"img/folder_alternate.jpg","old_or_new":"new","task":"recognition","trial_type":"image-keyboard-response","trial_index":69,"time_elapsed":116660,"internal_node_id":"0.0-3.0-0.33","subject_id":"60428bd1f468bb19539d1351","study_id":"607de2837874a824e2e8c6ec","session_id":"6088781eacfc02a336a25364","correct":true},{"rt":363.4449999954086,"stimulus":"\n      <p>How sure are you?</p>\n      <p>Rate your confidence in your answer from 1 (pure guess) to 5 (very sure) by pressing the corresponding button.</p>\n     ","response":4,"image":"img/folder_alternate.jpg","task":"confidence","old_or_new":"new","trial_type":"html-button-response","trial_index":70,"time_elapsed":117024,"internal_node_id":"0.0-3.0-1.33","subject_id":"60428bd1f468bb19539d1351","study_id":"607de2837874a824e2e8c6ec","session_id":"6088781eacfc02a336a25364"},{"rt":652.4700000009034,"stimulus":"img/globe_alternate.jpg","response":"n","image":"img/globe_alternate.jpg","old_or_new":"new","task":"recognition","trial_type":"image-keyboard-response","trial_index":71,"time_elapsed":118186,"internal_node_id":"0.0-3.0-0.34","subject_id":"60428bd1f468bb19539d1351","study_id":"607de2837874a824e2e8c6ec","session_id":"6088781eacfc02a336a25364","correct":true},{"rt":373.1499999994412,"stimulus":"\n      <p>How sure are you?</p>\n      <p>Rate your confidence in your answer from 1 (pure guess) to 5 (very sure) by pressing the corresponding button.</p>\n     ","response":4,"image":"img/globe_alternate.jpg","task":"confidence","old_or_new":"new","trial_type":"html-button-response","trial_index":72,"time_elapsed":118560,"internal_node_id":"0.0-3.0-1.34","subject_id":"60428bd1f468bb19539d1351","study_id":"607de2837874a824e2e8c6ec","session_id":"6088781eacfc02a336a25364"},{"rt":782.3650000063935,"stimulus":"img/apple_alternate.jpg","response":"n","image":"img/apple_alternate.jpg","old_or_new":"new","task":"recognition","trial_type":"image-keyboard-response","trial_index":73,"time_elapsed":119852,"internal_node_id":"0.0-3.0-0.35","subject_id":"60428bd1f468bb19539d1351","study_id":"607de2837874a824e2e8c6ec","session_id":"6088781eacfc02a336a25364","correct":true},{"rt":378.89500000164844,"stimulus":"\n      <p>How sure are you?</p>\n      <p>Rate your confidence in your answer from 1 (pure guess) to 5 (very sure) by pressing the corresponding button.</p>\n     ","response":4,"image":"img/apple_alternate.jpg","task":"confidence","old_or_new":"new","trial_type":"html-button-response","trial_index":74,"time_elapsed":120232,"internal_node_id":"0.0-3.0-1.35","subject_id":"60428bd1f468bb19539d1351","study_id":"607de2837874a824e2e8c6ec","session_id":"6088781eacfc02a336a25364"},{"rt":745.005000004312,"stimulus":"img/hair_tie.jpg","response":"y","image":"img/hair_tie.jpg","old_or_new":"old","task":"recognition","trial_type":"image-keyboard-response","trial_index":75,"time_elapsed":121483,"internal_node_id":"0.0-3.0-0.36","subject_id":"60428bd1f468bb19539d1351","study_id":"607de2837874a824e2e8c6ec","session_id":"6088781eacfc02a336a25364","correct":true},{"rt":387.750000008964,"stimulus":"\n      <p>How sure are you?</p>\n      <p>Rate your confidence in your answer from 1 (pure guess) to 5 (very sure) by pressing the corresponding button.</p>\n     ","response":4,"image":"img/hair_tie.jpg","task":"confidence","old_or_new":"old","trial_type":"html-button-response","trial_index":76,"time_elapsed":121872,"internal_node_id":"0.0-3.0-1.36","subject_id":"60428bd1f468bb19539d1351","study_id":"607de2837874a824e2e8c6ec","session_id":"6088781eacfc02a336a25364"},{"rt":687.3300000006566,"stimulus":"img/hair_tie_alternate.jpg","response":"n","image":"img/hair_tie_alternate.jpg","old_or_new":"new","task":"recognition","trial_type":"image-keyboard-response","trial_index":77,"time_elapsed":123062,"internal_node_id":"0.0-3.0-0.37","subject_id":"60428bd1f468bb19539d1351","study_id":"607de2837874a824e2e8c6ec","session_id":"6088781eacfc02a336a25364","correct":true},{"rt":360.7100000081118,"stimulus":"\n      <p>How sure are you?</p>\n      <p>Rate your confidence in your answer from 1 (pure guess) to 5 (very sure) by pressing the corresponding button.</p>\n     ","response":4,"image":"img/hair_tie_alternate.jpg","task":"confidence","old_or_new":"new","trial_type":"html-button-response","trial_index":78,"time_elapsed":123424,"internal_node_id":"0.0-3.0-1.37","subject_id":"60428bd1f468bb19539d1351","study_id":"607de2837874a824e2e8c6ec","session_id":"6088781eacfc02a336a25364"},{"rt":2078.9050000021234,"stimulus":"img/drum_alternate.jpg","response":"n","image":"img/drum_alternate.jpg","old_or_new":"new","task":"recognition","trial_type":"image-keyboard-response","trial_index":79,"time_elapsed":126018,"internal_node_id":"0.0-3.0-0.38","subject_id":"60428bd1f468bb19539d1351","study_id":"607de2837874a824e2e8c6ec","session_id":"6088781eacfc02a336a25364","correct":true},{"rt":365.55000000225846,"stimulus":"\n      <p>How sure are you?</p>\n      <p>Rate your confidence in your answer from 1 (pure guess) to 5 (very sure) by pressing the corresponding button.</p>\n     ","response":4,"image":"img/drum_alternate.jpg","task":"confidence","old_or_new":"new","trial_type":"html-button-response","trial_index":80,"time_elapsed":126384,"internal_node_id":"0.0-3.0-1.38","subject_id":"60428bd1f468bb19539d1351","study_id":"607de2837874a824e2e8c6ec","session_id":"6088781eacfc02a336a25364"},{"rt":750.9350000036648,"stimulus":"img/bowl_alternate.jpg","response":"n","image":"img/bowl_alternate.jpg","old_or_new":"new","task":"recognition","trial_type":"image-keyboard-response","trial_index":81,"time_elapsed":127648,"internal_node_id":"0.0-3.0-0.39","subject_id":"60428bd1f468bb19539d1351","study_id":"607de2837874a824e2e8c6ec","session_id":"6088781eacfc02a336a25364","correct":true},{"rt":342.8100000019185,"stimulus":"\n      <p>How sure are you?</p>\n      <p>Rate your confidence in your answer from 1 (pure guess) to 5 (very sure) by pressing the corresponding button.</p>\n     ","response":4,"image":"img/bowl_alternate.jpg","task":"confidence","old_or_new":"new","trial_type":"html-button-response","trial_index":82,"time_elapsed":127991,"internal_node_id":"0.0-3.0-1.39","subject_id":"60428bd1f468bb19539d1351","study_id":"607de2837874a824e2e8c6ec","session_id":"6088781eacfc02a336a25364"},{"rt":377.69000000844244,"stimulus":"img/bowl.jpg","response":"y","image":"img/bowl.jpg","old_or_new":"old","task":"recognition","trial_type":"image-keyboard-response","trial_index":83,"time_elapsed":128881,"internal_node_id":"0.0-3.0-0.40","subject_id":"60428bd1f468bb19539d1351","study_id":"607de2837874a824e2e8c6ec","session_id":"6088781eacfc02a336a25364","correct":true},{"rt":405.50499998789746,"stimulus":"\n      <p>How sure are you?</p>\n      <p>Rate your confidence in your answer from 1 (pure guess) to 5 (very sure) by pressing the corresponding button.</p>\n     ","response":4,"image":"img/bowl.jpg","task":"confidence","old_or_new":"old","trial_type":"html-button-response","trial_index":84,"time_elapsed":129287,"internal_node_id":"0.0-3.0-1.40","subject_id":"60428bd1f468bb19539d1351","study_id":"607de2837874a824e2e8c6ec","session_id":"6088781eacfc02a336a25364"},{"rt":905.8499999955529,"stimulus":"img/camera_alternate.jpg","response":"n","image":"img/camera_alternate.jpg","old_or_new":"new","task":"recognition","trial_type":"image-keyboard-response","trial_index":85,"time_elapsed":130707,"internal_node_id":"0.0-3.0-0.41","subject_id":"60428bd1f468bb19539d1351","study_id":"607de2837874a824e2e8c6ec","session_id":"6088781eacfc02a336a25364","correct":true},{"rt":339.5499999896856,"stimulus":"\n      <p>How sure are you?</p>\n      <p>Rate your confidence in your answer from 1 (pure guess) to 5 (very sure) by pressing the corresponding button.</p>\n     ","response":4,"image":"img/camera_alternate.jpg","task":"confidence","old_or_new":"new","trial_type":"html-button-response","trial_index":86,"time_elapsed":131048,"internal_node_id":"0.0-3.0-1.41","subject_id":"60428bd1f468bb19539d1351","study_id":"607de2837874a824e2e8c6ec","session_id":"6088781eacfc02a336a25364"},{"rt":745.2849999972386,"stimulus":"img/backpack.jpg","response":"y","image":"img/backpack.jpg","old_or_new":"old","task":"recognition","trial_type":"image-keyboard-response","trial_index":87,"time_elapsed":132307,"internal_node_id":"0.0-3.0-0.42","subject_id":"60428bd1f468bb19539d1351","study_id":"607de2837874a824e2e8c6ec","session_id":"6088781eacfc02a336a25364","correct":true},{"rt":372.26999999256805,"stimulus":"\n      <p>How sure are you?</p>\n      <p>Rate your confidence in your answer from 1 (pure guess) to 5 (very sure) by pressing the corresponding button.</p>\n     ","response":4,"image":"img/backpack.jpg","task":"confidence","old_or_new":"old","trial_type":"html-button-response","trial_index":88,"time_elapsed":132680,"internal_node_id":"0.0-3.0-1.42","subject_id":"60428bd1f468bb19539d1351","study_id":"607de2837874a824e2e8c6ec","session_id":"6088781eacfc02a336a25364"},{"rt":1179.0150000015274,"stimulus":"img/coin.jpg","response":"y","image":"img/coin.jpg","old_or_new":"old","task":"recognition","trial_type":"image-keyboard-response","trial_index":89,"time_elapsed":134362,"internal_node_id":"0.0-3.0-0.43","subject_id":"60428bd1f468bb19539d1351","study_id":"607de2837874a824e2e8c6ec","session_id":"6088781eacfc02a336a25364","correct":true},{"rt":420.6200000044191,"stimulus":"\n      <p>How sure are you?</p>\n      <p>Rate your confidence in your answer from 1 (pure guess) to 5 (very sure) by pressing the corresponding button.</p>\n     ","response":4,"image":"img/coin.jpg","task":"confidence","old_or_new":"old","trial_type":"html-button-response","trial_index":90,"time_elapsed":134783,"internal_node_id":"0.0-3.0-1.43","subject_id":"60428bd1f468bb19539d1351","study_id":"607de2837874a824e2e8c6ec","session_id":"6088781eacfc02a336a25364"},{"rt":5386.77500000631,"stimulus":"img/fan_alternate.jpg","response":"y","image":"img/fan_alternate.jpg","old_or_new":"new","task":"recognition","trial_type":"image-keyboard-response","trial_index":91,"time_elapsed":140680,"internal_node_id":"0.0-3.0-0.44","subject_id":"60428bd1f468bb19539d1351","study_id":"607de2837874a824e2e8c6ec","session_id":"6088781eacfc02a336a25364","correct":false},{"rt":1470.58000000834,"stimulus":"\n      <p>How sure are you?</p>\n      <p>Rate your confidence in your answer from 1 (pure guess) to 5 (very sure) by pressing the corresponding button.</p>\n     ","response":3,"image":"img/fan_alternate.jpg","task":"confidence","old_or_new":"new","trial_type":"html-button-response","trial_index":92,"time_elapsed":142152,"internal_node_id":"0.0-3.0-1.44","subject_id":"60428bd1f468bb19539d1351","study_id":"607de2837874a824e2e8c6ec","session_id":"6088781eacfc02a336a25364"},{"rt":637.8649999969639,"stimulus":"img/backpack_alternate.jpg","response":"n","image":"img/backpack_alternate.jpg","old_or_new":"new","task":"recognition","trial_type":"image-keyboard-response","trial_index":93,"time_elapsed":143291,"internal_node_id":"0.0-3.0-0.45","subject_id":"60428bd1f468bb19539d1351","study_id":"607de2837874a824e2e8c6ec","session_id":"6088781eacfc02a336a25364","correct":true},{"rt":647.2800000046846,"stimulus":"\n      <p>How sure are you?</p>\n      <p>Rate your confidence in your answer from 1 (pure guess) to 5 (very sure) by pressing the corresponding button.</p>\n     ","response":4,"image":"img/backpack_alternate.jpg","task":"confidence","old_or_new":"new","trial_type":"html-button-response","trial_index":94,"time_elapsed":143939,"internal_node_id":"0.0-3.0-1.45","subject_id":"60428bd1f468bb19539d1351","study_id":"607de2837874a824e2e8c6ec","session_id":"6088781eacfc02a336a25364"},{"rt":719.8249999928521,"stimulus":"img/ladder_alternate.jpg","response":"n","image":"img/ladder_alternate.jpg","old_or_new":"new","task":"recognition","trial_type":"image-keyboard-response","trial_index":95,"time_elapsed":145166,"internal_node_id":"0.0-3.0-0.46","subject_id":"60428bd1f468bb19539d1351","study_id":"607de2837874a824e2e8c6ec","session_id":"6088781eacfc02a336a25364","correct":true},{"rt":364.4150000036461,"stimulus":"\n      <p>How sure are you?</p>\n      <p>Rate your confidence in your answer from 1 (pure guess) to 5 (very sure) by pressing the corresponding button.</p>\n     ","response":4,"image":"img/ladder_alternate.jpg","task":"confidence","old_or_new":"new","trial_type":"html-button-response","trial_index":96,"time_elapsed":145532,"internal_node_id":"0.0-3.0-1.46","subject_id":"60428bd1f468bb19539d1351","study_id":"607de2837874a824e2e8c6ec","session_id":"6088781eacfc02a336a25364"},{"rt":879.704999999376,"stimulus":"img/fan.jpg","response":"n","image":"img/fan.jpg","old_or_new":"old","task":"recognition","trial_type":"image-keyboard-response","trial_index":97,"time_elapsed":146916,"internal_node_id":"0.0-3.0-0.47","subject_id":"60428bd1f468bb19539d1351","study_id":"607de2837874a824e2e8c6ec","session_id":"6088781eacfc02a336a25364","correct":false},{"rt":371.05000000155997,"stimulus":"\n      <p>How sure are you?</p>\n      <p>Rate your confidence in your answer from 1 (pure guess) to 5 (very sure) by pressing the corresponding button.</p>\n     ","response":4,"image":"img/fan.jpg","task":"confidence","old_or_new":"old","trial_type":"html-button-response","trial_index":98,"time_elapsed":147288,"internal_node_id":"0.0-3.0-1.47","subject_id":"60428bd1f468bb19539d1351","study_id":"607de2837874a824e2e8c6ec","session_id":"6088781eacfc02a336a25364"}]