[{"success":true,"timeout":false,"failed_images":[],"failed_audio":[],"failed_video":[],"trial_type":"preload","trial_index":0,"time_elapsed":7147,"internal_node_id":"0.0-0.0","subject_id":"5e62fe137c6101095520a606","study_id":"607de2837874a824e2e8c6ec","session_id":"6088506bc71c0ad332c17e91"},{"rt":23138.644999999087,"stimulus":"\n      <div style=\"width:800px; text-align: left;\">\n        <p>Welcome to day 2 of the experiment! Thanks for coming back.</p>\n        <p>You will be presented with a series of images. Images will appear one at a time.</p>\n        <p>Each image will remain on the screen until you press either <span style=\"font-weight: bold;\">\"y\" to indicate you have seen the \n        exact same photo the day before or \"n\" to indicate you have not seen the exact same photo the day before.</span></p>\n        <p>After you answer yes (\"y\") or no (\"n\"), you will then be prompted to rate your certainty on a scale of\n        1 (pure guess) to 5 (very sure).</p>\n      </div>\n    ","response":0,"trial_type":"html-button-response","trial_index":1,"time_elapsed":30287,"internal_node_id":"0.0-1.0","subject_id":"5e62fe137c6101095520a606","study_id":"607de2837874a824e2e8c6ec","session_id":"6088506bc71c0ad332c17e91"},{"success":true,"trial_type":"fullscreen","trial_index":2,"time_elapsed":33924,"internal_node_id":"0.0-2.0","subject_id":"5e62fe137c6101095520a606","study_id":"607de2837874a824e2e8c6ec","session_id":"6088506bc71c0ad332c17e91"},{"rt":6474.150000023656,"stimulus":"img/coin_alternate.jpg","response":"n","image":"img/coin_alternate.jpg","old_or_new":"new","task":"recognition","trial_type":"image-keyboard-response","trial_index":3,"time_elapsed":40410,"internal_node_id":"0.0-3.0-0.0","subject_id":"5e62fe137c6101095520a606","study_id":"607de2837874a824e2e8c6ec","session_id":"6088506bc71c0ad332c17e91","correct":true},{"rt":4374.325000040699,"stimulus":"\n      <p>How sure are you?</p>\n      <p>Rate your confidence in your answer from 1 (pure guess) to 5 (very sure) by pressing the corresponding button.</p>\n     ","response":4,"image":"img/coin_alternate.jpg","task":"confidence","old_or_new":"new","trial_type":"html-button-response","trial_index":4,"time_elapsed":44785,"internal_node_id":"0.0-3.0-1.0","subject_id":"5e62fe137c6101095520a606","study_id":"607de2837874a824e2e8c6ec","session_id":"6088506bc71c0ad332c17e91"},{"rt":3244.1150000086054,"stimulus":"img/bowl.jpg","response":"n","image":"img/bowl.jpg","old_or_new":"old","task":"recognition","trial_type":"image-keyboard-response","trial_index":5,"time_elapsed":48536,"internal_node_id":"0.0-3.0-0.1","subject_id":"5e62fe137c6101095520a606","study_id":"607de2837874a824e2e8c6ec","session_id":"6088506bc71c0ad332c17e91","correct":false},{"rt":1198.2650000136346,"stimulus":"\n      <p>How sure are you?</p>\n      <p>Rate your confidence in your answer from 1 (pure guess) to 5 (very sure) by pressing the corresponding button.</p>\n     ","response":4,"image":"img/bowl.jpg","task":"confidence","old_or_new":"old","trial_type":"html-button-response","trial_index":6,"time_elapsed":49735,"internal_node_id":"0.0-3.0-1.1","subject_id":"5e62fe137c6101095520a606","study_id":"607de2837874a824e2e8c6ec","session_id":"6088506bc71c0ad332c17e91"},{"rt":1132.4150000000373,"stimulus":"img/drum_alternate.jpg","response":"n","image":"img/drum_alternate.jpg","old_or_new":"new","task":"recognition","trial_type":"image-keyboard-response","trial_index":7,"time_elapsed":51373,"internal_node_id":"0.0-3.0-0.2","subject_id":"5e62fe137c6101095520a606","study_id":"607de2837874a824e2e8c6ec","session_id":"6088506bc71c0ad332c17e91","correct":true},{"rt":826.8000000389293,"stimulus":"\n      <p>How sure are you?</p>\n      <p>Rate your confidence in your answer from 1 (pure guess) to 5 (very sure) by pressing the corresponding button.</p>\n     ","response":4,"image":"img/drum_alternate.jpg","task":"confidence","old_or_new":"new","trial_type":"html-button-response","trial_index":8,"time_elapsed":52201,"internal_node_id":"0.0-3.0-1.2","subject_id":"5e62fe137c6101095520a606","study_id":"607de2837874a824e2e8c6ec","session_id":"6088506bc71c0ad332c17e91"},{"rt":2651.8900000373833,"stimulus":"img/camera_alternate.jpg","response":"n","image":"img/camera_alternate.jpg","old_or_new":"new","task":"recognition","trial_type":"image-keyboard-response","trial_index":9,"time_elapsed":55368,"internal_node_id":"0.0-3.0-0.3","subject_id":"5e62fe137c6101095520a606","study_id":"607de2837874a824e2e8c6ec","session_id":"6088506bc71c0ad332c17e91","correct":true},{"rt":2426.900000020396,"stimulus":"\n      <p>How sure are you?</p>\n      <p>Rate your confidence in your answer from 1 (pure guess) to 5 (very sure) by pressing the corresponding button.</p>\n     ","response":1,"image":"img/camera_alternate.jpg","task":"confidence","old_or_new":"new","trial_type":"html-button-response","trial_index":10,"time_elapsed":57797,"internal_node_id":"0.0-3.0-1.3","subject_id":"5e62fe137c6101095520a606","study_id":"607de2837874a824e2e8c6ec","session_id":"6088506bc71c0ad332c17e91"},{"rt":1568.2849999866448,"stimulus":"img/coin.jpg","response":"y","image":"img/coin.jpg","old_or_new":"old","task":"recognition","trial_type":"image-keyboard-response","trial_index":11,"time_elapsed":59878,"internal_node_id":"0.0-3.0-0.4","subject_id":"5e62fe137c6101095520a606","study_id":"607de2837874a824e2e8c6ec","session_id":"6088506bc71c0ad332c17e91","correct":true},{"rt":2332.46499998495,"stimulus":"\n      <p>How sure are you?</p>\n      <p>Rate your confidence in your answer from 1 (pure guess) to 5 (very sure) by pressing the corresponding button.</p>\n     ","response":4,"image":"img/coin.jpg","task":"confidence","old_or_new":"old","trial_type":"html-button-response","trial_index":12,"time_elapsed":62211,"internal_node_id":"0.0-3.0-1.4","subject_id":"5e62fe137c6101095520a606","study_id":"607de2837874a824e2e8c6ec","session_id":"6088506bc71c0ad332c17e91"},{"rt":1505.1199999870732,"stimulus":"img/calculator_alternate.jpg","response":"n","image":"img/calculator_alternate.jpg","old_or_new":"new","task":"recognition","trial_type":"image-keyboard-response","trial_index":13,"time_elapsed":64227,"internal_node_id":"0.0-3.0-0.5","subject_id":"5e62fe137c6101095520a606","study_id":"607de2837874a824e2e8c6ec","session_id":"6088506bc71c0ad332c17e91","correct":true},{"rt":6054.215000011027,"stimulus":"\n      <p>How sure are you?</p>\n      <p>Rate your confidence in your answer from 1 (pure guess) to 5 (very sure) by pressing the corresponding button.</p>\n     ","response":2,"image":"img/calculator_alternate.jpg","task":"confidence","old_or_new":"new","trial_type":"html-button-response","trial_index":14,"time_elapsed":70282,"internal_node_id":"0.0-3.0-1.5","subject_id":"5e62fe137c6101095520a606","study_id":"607de2837874a824e2e8c6ec","session_id":"6088506bc71c0ad332c17e91"},{"rt":2508.514999994077,"stimulus":"img/calculator.jpg","response":"n","image":"img/calculator.jpg","old_or_new":"old","task":"recognition","trial_type":"image-keyboard-response","trial_index":15,"time_elapsed":73305,"internal_node_id":"0.0-3.0-0.6","subject_id":"5e62fe137c6101095520a606","study_id":"607de2837874a824e2e8c6ec","session_id":"6088506bc71c0ad332c17e91","correct":false},{"rt":3053.9349999744445,"stimulus":"\n      <p>How sure are you?</p>\n      <p>Rate your confidence in your answer from 1 (pure guess) to 5 (very sure) by pressing the corresponding button.</p>\n     ","response":1,"image":"img/calculator.jpg","task":"confidence","old_or_new":"old","trial_type":"html-button-response","trial_index":16,"time_elapsed":76360,"internal_node_id":"0.0-3.0-1.6","subject_id":"5e62fe137c6101095520a606","study_id":"607de2837874a824e2e8c6ec","session_id":"6088506bc71c0ad332c17e91"},{"rt":2239.400000020396,"stimulus":"img/leaf_alternate.jpg","response":"n","image":"img/leaf_alternate.jpg","old_or_new":"new","task":"recognition","trial_type":"image-keyboard-response","trial_index":17,"time_elapsed":79105,"internal_node_id":"0.0-3.0-0.7","subject_id":"5e62fe137c6101095520a606","study_id":"607de2837874a824e2e8c6ec","session_id":"6088506bc71c0ad332c17e91","correct":true},{"rt":5116.299999994226,"stimulus":"\n      <p>How sure are you?</p>\n      <p>Rate your confidence in your answer from 1 (pure guess) to 5 (very sure) by pressing the corresponding button.</p>\n     ","response":4,"image":"img/leaf_alternate.jpg","task":"confidence","old_or_new":"new","trial_type":"html-button-response","trial_index":18,"time_elapsed":84222,"internal_node_id":"0.0-3.0-1.7","subject_id":"5e62fe137c6101095520a606","study_id":"607de2837874a824e2e8c6ec","session_id":"6088506bc71c0ad332c17e91"},{"rt":1274.280000012368,"stimulus":"img/ladder.jpg","response":"y","image":"img/ladder.jpg","old_or_new":"old","task":"recognition","trial_type":"image-keyboard-response","trial_index":19,"time_elapsed":86014,"internal_node_id":"0.0-3.0-0.8","subject_id":"5e62fe137c6101095520a606","study_id":"607de2837874a824e2e8c6ec","session_id":"6088506bc71c0ad332c17e91","correct":true},{"rt":932.2850000462495,"stimulus":"\n      <p>How sure are you?</p>\n      <p>Rate your confidence in your answer from 1 (pure guess) to 5 (very sure) by pressing the corresponding button.</p>\n     ","response":4,"image":"img/ladder.jpg","task":"confidence","old_or_new":"old","trial_type":"html-button-response","trial_index":20,"time_elapsed":86947,"internal_node_id":"0.0-3.0-1.8","subject_id":"5e62fe137c6101095520a606","study_id":"607de2837874a824e2e8c6ec","session_id":"6088506bc71c0ad332c17e91"},{"rt":4256.9400000502355,"stimulus":"img/backpack_alternate.jpg","response":"n","image":"img/backpack_alternate.jpg","old_or_new":"new","task":"recognition","trial_type":"image-keyboard-response","trial_index":21,"time_elapsed":91708,"internal_node_id":"0.0-3.0-0.9","subject_id":"5e62fe137c6101095520a606","study_id":"607de2837874a824e2e8c6ec","session_id":"6088506bc71c0ad332c17e91","correct":true},{"rt":3014.9550000205636,"stimulus":"\n      <p>How sure are you?</p>\n      <p>Rate your confidence in your answer from 1 (pure guess) to 5 (very sure) by pressing the corresponding button.</p>\n     ","response":1,"image":"img/backpack_alternate.jpg","task":"confidence","old_or_new":"new","trial_type":"html-button-response","trial_index":22,"time_elapsed":94724,"internal_node_id":"0.0-3.0-1.9","subject_id":"5e62fe137c6101095520a606","study_id":"607de2837874a824e2e8c6ec","session_id":"6088506bc71c0ad332c17e91"},{"rt":1017.3399999621324,"stimulus":"img/key_alternate.jpg","response":"n","image":"img/key_alternate.jpg","old_or_new":"new","task":"recognition","trial_type":"image-keyboard-response","trial_index":23,"time_elapsed":96257,"internal_node_id":"0.0-3.0-0.10","subject_id":"5e62fe137c6101095520a606","study_id":"607de2837874a824e2e8c6ec","session_id":"6088506bc71c0ad332c17e91","correct":true},{"rt":1798.0549999629147,"stimulus":"\n      <p>How sure are you?</p>\n      <p>Rate your confidence in your answer from 1 (pure guess) to 5 (very sure) by pressing the corresponding button.</p>\n     ","response":4,"image":"img/key_alternate.jpg","task":"confidence","old_or_new":"new","trial_type":"html-button-response","trial_index":24,"time_elapsed":98056,"internal_node_id":"0.0-3.0-1.10","subject_id":"5e62fe137c6101095520a606","study_id":"607de2837874a824e2e8c6ec","session_id":"6088506bc71c0ad332c17e91"},{"rt":1054.390000004787,"stimulus":"img/hourglass.jpg","response":"y","image":"img/hourglass.jpg","old_or_new":"old","task":"recognition","trial_type":"image-keyboard-response","trial_index":25,"time_elapsed":99620,"internal_node_id":"0.0-3.0-0.11","subject_id":"5e62fe137c6101095520a606","study_id":"607de2837874a824e2e8c6ec","session_id":"6088506bc71c0ad332c17e91","correct":true},{"rt":584.4250000081956,"stimulus":"\n      <p>How sure are you?</p>\n      <p>Rate your confidence in your answer from 1 (pure guess) to 5 (very sure) by pressing the corresponding button.</p>\n     ","response":4,"image":"img/hourglass.jpg","task":"confidence","old_or_new":"old","trial_type":"html-button-response","trial_index":26,"time_elapsed":100205,"internal_node_id":"0.0-3.0-1.11","subject_id":"5e62fe137c6101095520a606","study_id":"607de2837874a824e2e8c6ec","session_id":"6088506bc71c0ad332c17e91"},{"rt":1012.6099999761209,"stimulus":"img/hair_tie.jpg","response":"y","image":"img/hair_tie.jpg","old_or_new":"old","task":"recognition","trial_type":"image-keyboard-response","trial_index":27,"time_elapsed":101721,"internal_node_id":"0.0-3.0-0.12","subject_id":"5e62fe137c6101095520a606","study_id":"607de2837874a824e2e8c6ec","session_id":"6088506bc71c0ad332c17e91","correct":true},{"rt":451.97499997448176,"stimulus":"\n      <p>How sure are you?</p>\n      <p>Rate your confidence in your answer from 1 (pure guess) to 5 (very sure) by pressing the corresponding button.</p>\n     ","response":4,"image":"img/hair_tie.jpg","task":"confidence","old_or_new":"old","trial_type":"html-button-response","trial_index":28,"time_elapsed":102174,"internal_node_id":"0.0-3.0-1.12","subject_id":"5e62fe137c6101095520a606","study_id":"607de2837874a824e2e8c6ec","session_id":"6088506bc71c0ad332c17e91"},{"rt":1013.5649999720044,"stimulus":"img/dryer.jpg","response":"y","image":"img/dryer.jpg","old_or_new":"old","task":"recognition","trial_type":"image-keyboard-response","trial_index":29,"time_elapsed":103691,"internal_node_id":"0.0-3.0-0.13","subject_id":"5e62fe137c6101095520a606","study_id":"607de2837874a824e2e8c6ec","session_id":"6088506bc71c0ad332c17e91","correct":true},{"rt":390.32499998575076,"stimulus":"\n      <p>How sure are you?</p>\n      <p>Rate your confidence in your answer from 1 (pure guess) to 5 (very sure) by pressing the corresponding button.</p>\n     ","response":4,"image":"img/dryer.jpg","task":"confidence","old_or_new":"old","trial_type":"html-button-response","trial_index":30,"time_elapsed":104082,"internal_node_id":"0.0-3.0-1.13","subject_id":"5e62fe137c6101095520a606","study_id":"607de2837874a824e2e8c6ec","session_id":"6088506bc71c0ad332c17e91"},{"rt":1215.1900000171736,"stimulus":"img/hourglass_alternate.jpg","response":"n","image":"img/hourglass_alternate.jpg","old_or_new":"new","task":"recognition","trial_type":"image-keyboard-response","trial_index":31,"time_elapsed":105809,"internal_node_id":"0.0-3.0-0.14","subject_id":"5e62fe137c6101095520a606","study_id":"607de2837874a824e2e8c6ec","session_id":"6088506bc71c0ad332c17e91","correct":true},{"rt":1304.3600000091828,"stimulus":"\n      <p>How sure are you?</p>\n      <p>Rate your confidence in your answer from 1 (pure guess) to 5 (very sure) by pressing the corresponding button.</p>\n     ","response":4,"image":"img/hourglass_alternate.jpg","task":"confidence","old_or_new":"new","trial_type":"html-button-response","trial_index":32,"time_elapsed":107114,"internal_node_id":"0.0-3.0-1.14","subject_id":"5e62fe137c6101095520a606","study_id":"607de2837874a824e2e8c6ec","session_id":"6088506bc71c0ad332c17e91"},{"rt":1066.8150000274181,"stimulus":"img/hairbrush.jpg","response":"n","image":"img/hairbrush.jpg","old_or_new":"old","task":"recognition","trial_type":"image-keyboard-response","trial_index":33,"time_elapsed":108692,"internal_node_id":"0.0-3.0-0.15","subject_id":"5e62fe137c6101095520a606","study_id":"607de2837874a824e2e8c6ec","session_id":"6088506bc71c0ad332c17e91","correct":false},{"rt":2468.7149999663234,"stimulus":"\n      <p>How sure are you?</p>\n      <p>Rate your confidence in your answer from 1 (pure guess) to 5 (very sure) by pressing the corresponding button.</p>\n     ","response":2,"image":"img/hairbrush.jpg","task":"confidence","old_or_new":"old","trial_type":"html-button-response","trial_index":34,"time_elapsed":111162,"internal_node_id":"0.0-3.0-1.15","subject_id":"5e62fe137c6101095520a606","study_id":"607de2837874a824e2e8c6ec","session_id":"6088506bc71c0ad332c17e91"},{"rt":1070.9000000497326,"stimulus":"img/glasses_alternate.jpg","response":"n","image":"img/glasses_alternate.jpg","old_or_new":"new","task":"recognition","trial_type":"image-keyboard-response","trial_index":35,"time_elapsed":112739,"internal_node_id":"0.0-3.0-0.16","subject_id":"5e62fe137c6101095520a606","study_id":"607de2837874a824e2e8c6ec","session_id":"6088506bc71c0ad332c17e91","correct":true},{"rt":2034.6349999890663,"stimulus":"\n      <p>How sure are you?</p>\n      <p>Rate your confidence in your answer from 1 (pure guess) to 5 (very sure) by pressing the corresponding button.</p>\n     ","response":1,"image":"img/glasses_alternate.jpg","task":"confidence","old_or_new":"new","trial_type":"html-button-response","trial_index":36,"time_elapsed":114774,"internal_node_id":"0.0-3.0-1.16","subject_id":"5e62fe137c6101095520a606","study_id":"607de2837874a824e2e8c6ec","session_id":"6088506bc71c0ad332c17e91"},{"rt":2097.8899999754503,"stimulus":"img/grapes_alternate.jpg","response":"n","image":"img/grapes_alternate.jpg","old_or_new":"new","task":"recognition","trial_type":"image-keyboard-response","trial_index":37,"time_elapsed":117386,"internal_node_id":"0.0-3.0-0.17","subject_id":"5e62fe137c6101095520a606","study_id":"607de2837874a824e2e8c6ec","session_id":"6088506bc71c0ad332c17e91","correct":true},{"rt":1294.7799999965355,"stimulus":"\n      <p>How sure are you?</p>\n      <p>Rate your confidence in your answer from 1 (pure guess) to 5 (very sure) by pressing the corresponding button.</p>\n     ","response":3,"image":"img/grapes_alternate.jpg","task":"confidence","old_or_new":"new","trial_type":"html-button-response","trial_index":38,"time_elapsed":118681,"internal_node_id":"0.0-3.0-1.17","subject_id":"5e62fe137c6101095520a606","study_id":"607de2837874a824e2e8c6ec","session_id":"6088506bc71c0ad332c17e91"},{"rt":818.5400000074878,"stimulus":"img/key.jpg","response":"y","image":"img/key.jpg","old_or_new":"old","task":"recognition","trial_type":"image-keyboard-response","trial_index":39,"time_elapsed":120010,"internal_node_id":"0.0-3.0-0.18","subject_id":"5e62fe137c6101095520a606","study_id":"607de2837874a824e2e8c6ec","session_id":"6088506bc71c0ad332c17e91","correct":true},{"rt":690.2750000008382,"stimulus":"\n      <p>How sure are you?</p>\n      <p>Rate your confidence in your answer from 1 (pure guess) to 5 (very sure) by pressing the corresponding button.</p>\n     ","response":4,"image":"img/key.jpg","task":"confidence","old_or_new":"old","trial_type":"html-button-response","trial_index":40,"time_elapsed":120702,"internal_node_id":"0.0-3.0-1.18","subject_id":"5e62fe137c6101095520a606","study_id":"607de2837874a824e2e8c6ec","session_id":"6088506bc71c0ad332c17e91"},{"rt":935.9999999869615,"stimulus":"img/hat_alternate.jpg","response":"y","image":"img/hat_alternate.jpg","old_or_new":"new","task":"recognition","trial_type":"image-keyboard-response","trial_index":41,"time_elapsed":122142,"internal_node_id":"0.0-3.0-0.19","subject_id":"5e62fe137c6101095520a606","study_id":"607de2837874a824e2e8c6ec","session_id":"6088506bc71c0ad332c17e91","correct":false},{"rt":5763.9450000133365,"stimulus":"\n      <p>How sure are you?</p>\n      <p>Rate your confidence in your answer from 1 (pure guess) to 5 (very sure) by pressing the corresponding button.</p>\n     ","response":0,"image":"img/hat_alternate.jpg","task":"confidence","old_or_new":"new","trial_type":"html-button-response","trial_index":42,"time_elapsed":127906,"internal_node_id":"0.0-3.0-1.19","subject_id":"5e62fe137c6101095520a606","study_id":"607de2837874a824e2e8c6ec","session_id":"6088506bc71c0ad332c17e91"},{"rt":1764.020000002347,"stimulus":"img/hairbrush_alternate.jpg","response":"n","image":"img/hairbrush_alternate.jpg","old_or_new":"new","task":"recognition","trial_type":"image-keyboard-response","trial_index":43,"time_elapsed":130178,"internal_node_id":"0.0-3.0-0.20","subject_id":"5e62fe137c6101095520a606","study_id":"607de2837874a824e2e8c6ec","session_id":"6088506bc71c0ad332c17e91","correct":true},{"rt":4726.2850000406615,"stimulus":"\n      <p>How sure are you?</p>\n      <p>Rate your confidence in your answer from 1 (pure guess) to 5 (very sure) by pressing the corresponding button.</p>\n     ","response":3,"image":"img/hairbrush_alternate.jpg","task":"confidence","old_or_new":"new","trial_type":"html-button-response","trial_index":44,"time_elapsed":134906,"internal_node_id":"0.0-3.0-1.20","subject_id":"5e62fe137c6101095520a606","study_id":"607de2837874a824e2e8c6ec","session_id":"6088506bc71c0ad332c17e91"},{"rt":1758.0200000084005,"stimulus":"img/hat.jpg","response":"n","image":"img/hat.jpg","old_or_new":"old","task":"recognition","trial_type":"image-keyboard-response","trial_index":45,"time_elapsed":137177,"internal_node_id":"0.0-3.0-0.21","subject_id":"5e62fe137c6101095520a606","study_id":"607de2837874a824e2e8c6ec","session_id":"6088506bc71c0ad332c17e91","correct":false},{"rt":783.400000014808,"stimulus":"\n      <p>How sure are you?</p>\n      <p>Rate your confidence in your answer from 1 (pure guess) to 5 (very sure) by pressing the corresponding button.</p>\n     ","response":3,"image":"img/hat.jpg","task":"confidence","old_or_new":"old","trial_type":"html-button-response","trial_index":46,"time_elapsed":137961,"internal_node_id":"0.0-3.0-1.21","subject_id":"5e62fe137c6101095520a606","study_id":"607de2837874a824e2e8c6ec","session_id":"6088506bc71c0ad332c17e91"},{"rt":829.4200000236742,"stimulus":"img/leaf.jpg","response":"y","image":"img/leaf.jpg","old_or_new":"old","task":"recognition","trial_type":"image-keyboard-response","trial_index":47,"time_elapsed":139298,"internal_node_id":"0.0-3.0-0.22","subject_id":"5e62fe137c6101095520a606","study_id":"607de2837874a824e2e8c6ec","session_id":"6088506bc71c0ad332c17e91","correct":true},{"rt":511.56499999342486,"stimulus":"\n      <p>How sure are you?</p>\n      <p>Rate your confidence in your answer from 1 (pure guess) to 5 (very sure) by pressing the corresponding button.</p>\n     ","response":4,"image":"img/leaf.jpg","task":"confidence","old_or_new":"old","trial_type":"html-button-response","trial_index":48,"time_elapsed":139811,"internal_node_id":"0.0-3.0-1.22","subject_id":"5e62fe137c6101095520a606","study_id":"607de2837874a824e2e8c6ec","session_id":"6088506bc71c0ad332c17e91"},{"rt":1818.2699999888428,"stimulus":"img/chair_alternate.jpg","response":"n","image":"img/chair_alternate.jpg","old_or_new":"new","task":"recognition","trial_type":"image-keyboard-response","trial_index":49,"time_elapsed":142144,"internal_node_id":"0.0-3.0-0.23","subject_id":"5e62fe137c6101095520a606","study_id":"607de2837874a824e2e8c6ec","session_id":"6088506bc71c0ad332c17e91","correct":true},{"rt":2761.270000017248,"stimulus":"\n      <p>How sure are you?</p>\n      <p>Rate your confidence in your answer from 1 (pure guess) to 5 (very sure) by pressing the corresponding button.</p>\n     ","response":3,"image":"img/chair_alternate.jpg","task":"confidence","old_or_new":"new","trial_type":"html-button-response","trial_index":50,"time_elapsed":144906,"internal_node_id":"0.0-3.0-1.23","subject_id":"5e62fe137c6101095520a606","study_id":"607de2837874a824e2e8c6ec","session_id":"6088506bc71c0ad332c17e91"},{"rt":1309.6950000035577,"stimulus":"img/glasses.jpg","response":"n","image":"img/glasses.jpg","old_or_new":"old","task":"recognition","trial_type":"image-keyboard-response","trial_index":51,"time_elapsed":146720,"internal_node_id":"0.0-3.0-0.24","subject_id":"5e62fe137c6101095520a606","study_id":"607de2837874a824e2e8c6ec","session_id":"6088506bc71c0ad332c17e91","correct":false},{"rt":539.3000000040047,"stimulus":"\n      <p>How sure are you?</p>\n      <p>Rate your confidence in your answer from 1 (pure guess) to 5 (very sure) by pressing the corresponding button.</p>\n     ","response":3,"image":"img/glasses.jpg","task":"confidence","old_or_new":"old","trial_type":"html-button-response","trial_index":52,"time_elapsed":147260,"internal_node_id":"0.0-3.0-1.24","subject_id":"5e62fe137c6101095520a606","study_id":"607de2837874a824e2e8c6ec","session_id":"6088506bc71c0ad332c17e91"},{"rt":1049.4049999979325,"stimulus":"img/dryer_alternate.jpg","response":"n","image":"img/dryer_alternate.jpg","old_or_new":"new","task":"recognition","trial_type":"image-keyboard-response","trial_index":53,"time_elapsed":148826,"internal_node_id":"0.0-3.0-0.25","subject_id":"5e62fe137c6101095520a606","study_id":"607de2837874a824e2e8c6ec","session_id":"6088506bc71c0ad332c17e91","correct":true},{"rt":644.109999993816,"stimulus":"\n      <p>How sure are you?</p>\n      <p>Rate your confidence in your answer from 1 (pure guess) to 5 (very sure) by pressing the corresponding button.</p>\n     ","response":4,"image":"img/dryer_alternate.jpg","task":"confidence","old_or_new":"new","trial_type":"html-button-response","trial_index":54,"time_elapsed":149470,"internal_node_id":"0.0-3.0-1.25","subject_id":"5e62fe137c6101095520a606","study_id":"607de2837874a824e2e8c6ec","session_id":"6088506bc71c0ad332c17e91"},{"rt":2828.4700000076555,"stimulus":"img/globe_alternate.jpg","response":"y","image":"img/globe_alternate.jpg","old_or_new":"new","task":"recognition","trial_type":"image-keyboard-response","trial_index":55,"time_elapsed":152802,"internal_node_id":"0.0-3.0-0.26","subject_id":"5e62fe137c6101095520a606","study_id":"607de2837874a824e2e8c6ec","session_id":"6088506bc71c0ad332c17e91","correct":false},{"rt":1327.3250000202097,"stimulus":"\n      <p>How sure are you?</p>\n      <p>Rate your confidence in your answer from 1 (pure guess) to 5 (very sure) by pressing the corresponding button.</p>\n     ","response":1,"image":"img/globe_alternate.jpg","task":"confidence","old_or_new":"new","trial_type":"html-button-response","trial_index":56,"time_elapsed":154130,"internal_node_id":"0.0-3.0-1.26","subject_id":"5e62fe137c6101095520a606","study_id":"607de2837874a824e2e8c6ec","session_id":"6088506bc71c0ad332c17e91"},{"rt":913.8800000073388,"stimulus":"img/helmet_alternate.jpg","response":"y","image":"img/helmet_alternate.jpg","old_or_new":"new","task":"recognition","trial_type":"image-keyboard-response","trial_index":57,"time_elapsed":155546,"internal_node_id":"0.0-3.0-0.27","subject_id":"5e62fe137c6101095520a606","study_id":"607de2837874a824e2e8c6ec","session_id":"6088506bc71c0ad332c17e91","correct":false},{"rt":1434.365000051912,"stimulus":"\n      <p>How sure are you?</p>\n      <p>Rate your confidence in your answer from 1 (pure guess) to 5 (very sure) by pressing the corresponding button.</p>\n     ","response":3,"image":"img/helmet_alternate.jpg","task":"confidence","old_or_new":"new","trial_type":"html-button-response","trial_index":58,"time_elapsed":156981,"internal_node_id":"0.0-3.0-1.27","subject_id":"5e62fe137c6101095520a606","study_id":"607de2837874a824e2e8c6ec","session_id":"6088506bc71c0ad332c17e91"},{"rt":1640.4549999861047,"stimulus":"img/helmet.jpg","response":"y","image":"img/helmet.jpg","old_or_new":"old","task":"recognition","trial_type":"image-keyboard-response","trial_index":59,"time_elapsed":159129,"internal_node_id":"0.0-3.0-0.28","subject_id":"5e62fe137c6101095520a606","study_id":"607de2837874a824e2e8c6ec","session_id":"6088506bc71c0ad332c17e91","correct":true},{"rt":493.0299999541603,"stimulus":"\n      <p>How sure are you?</p>\n      <p>Rate your confidence in your answer from 1 (pure guess) to 5 (very sure) by pressing the corresponding button.</p>\n     ","response":4,"image":"img/helmet.jpg","task":"confidence","old_or_new":"old","trial_type":"html-button-response","trial_index":60,"time_elapsed":159622,"internal_node_id":"0.0-3.0-1.28","subject_id":"5e62fe137c6101095520a606","study_id":"607de2837874a824e2e8c6ec","session_id":"6088506bc71c0ad332c17e91"},{"rt":1915.1549999951385,"stimulus":"img/bowl_alternate.jpg","response":"n","image":"img/bowl_alternate.jpg","old_or_new":"new","task":"recognition","trial_type":"image-keyboard-response","trial_index":61,"time_elapsed":162045,"internal_node_id":"0.0-3.0-0.29","subject_id":"5e62fe137c6101095520a606","study_id":"607de2837874a824e2e8c6ec","session_id":"6088506bc71c0ad332c17e91","correct":true},{"rt":1965.120000008028,"stimulus":"\n      <p>How sure are you?</p>\n      <p>Rate your confidence in your answer from 1 (pure guess) to 5 (very sure) by pressing the corresponding button.</p>\n     ","response":4,"image":"img/bowl_alternate.jpg","task":"confidence","old_or_new":"new","trial_type":"html-button-response","trial_index":62,"time_elapsed":164011,"internal_node_id":"0.0-3.0-1.29","subject_id":"5e62fe137c6101095520a606","study_id":"607de2837874a824e2e8c6ec","session_id":"6088506bc71c0ad332c17e91"},{"rt":1289.9700000416487,"stimulus":"img/ladder_alternate.jpg","response":"n","image":"img/ladder_alternate.jpg","old_or_new":"new","task":"recognition","trial_type":"image-keyboard-response","trial_index":63,"time_elapsed":165807,"internal_node_id":"0.0-3.0-0.30","subject_id":"5e62fe137c6101095520a606","study_id":"607de2837874a824e2e8c6ec","session_id":"6088506bc71c0ad332c17e91","correct":true},{"rt":1600.3299999865703,"stimulus":"\n      <p>How sure are you?</p>\n      <p>Rate your confidence in your answer from 1 (pure guess) to 5 (very sure) by pressing the corresponding button.</p>\n     ","response":3,"image":"img/ladder_alternate.jpg","task":"confidence","old_or_new":"new","trial_type":"html-button-response","trial_index":64,"time_elapsed":167408,"internal_node_id":"0.0-3.0-1.30","subject_id":"5e62fe137c6101095520a606","study_id":"607de2837874a824e2e8c6ec","session_id":"6088506bc71c0ad332c17e91"},{"rt":1082.410000031814,"stimulus":"img/hair_tie_alternate.jpg","response":"n","image":"img/hair_tie_alternate.jpg","old_or_new":"new","task":"recognition","trial_type":"image-keyboard-response","trial_index":65,"time_elapsed":168996,"internal_node_id":"0.0-3.0-0.31","subject_id":"5e62fe137c6101095520a606","study_id":"607de2837874a824e2e8c6ec","session_id":"6088506bc71c0ad332c17e91","correct":true},{"rt":1341.439999989234,"stimulus":"\n      <p>How sure are you?</p>\n      <p>Rate your confidence in your answer from 1 (pure guess) to 5 (very sure) by pressing the corresponding button.</p>\n     ","response":3,"image":"img/hair_tie_alternate.jpg","task":"confidence","old_or_new":"new","trial_type":"html-button-response","trial_index":66,"time_elapsed":170338,"internal_node_id":"0.0-3.0-1.31","subject_id":"5e62fe137c6101095520a606","study_id":"607de2837874a824e2e8c6ec","session_id":"6088506bc71c0ad332c17e91"},{"rt":956.160000001546,"stimulus":"img/drum.jpg","response":"y","image":"img/drum.jpg","old_or_new":"old","task":"recognition","trial_type":"image-keyboard-response","trial_index":67,"time_elapsed":171807,"internal_node_id":"0.0-3.0-0.32","subject_id":"5e62fe137c6101095520a606","study_id":"607de2837874a824e2e8c6ec","session_id":"6088506bc71c0ad332c17e91","correct":true},{"rt":490.40499998955056,"stimulus":"\n      <p>How sure are you?</p>\n      <p>Rate your confidence in your answer from 1 (pure guess) to 5 (very sure) by pressing the corresponding button.</p>\n     ","response":4,"image":"img/drum.jpg","task":"confidence","old_or_new":"old","trial_type":"html-button-response","trial_index":68,"time_elapsed":172298,"internal_node_id":"0.0-3.0-1.32","subject_id":"5e62fe137c6101095520a606","study_id":"607de2837874a824e2e8c6ec","session_id":"6088506bc71c0ad332c17e91"},{"rt":729.6649999916553,"stimulus":"img/chair.jpg","response":"y","image":"img/chair.jpg","old_or_new":"old","task":"recognition","trial_type":"image-keyboard-response","trial_index":69,"time_elapsed":173546,"internal_node_id":"0.0-3.0-0.33","subject_id":"5e62fe137c6101095520a606","study_id":"607de2837874a824e2e8c6ec","session_id":"6088506bc71c0ad332c17e91","correct":true},{"rt":424.15499995695427,"stimulus":"\n      <p>How sure are you?</p>\n      <p>Rate your confidence in your answer from 1 (pure guess) to 5 (very sure) by pressing the corresponding button.</p>\n     ","response":4,"image":"img/chair.jpg","task":"confidence","old_or_new":"old","trial_type":"html-button-response","trial_index":70,"time_elapsed":173971,"internal_node_id":"0.0-3.0-1.33","subject_id":"5e62fe137c6101095520a606","study_id":"607de2837874a824e2e8c6ec","session_id":"6088506bc71c0ad332c17e91"},{"rt":862.1649999986403,"stimulus":"img/folder.jpg","response":"y","image":"img/folder.jpg","old_or_new":"old","task":"recognition","trial_type":"image-keyboard-response","trial_index":71,"time_elapsed":175347,"internal_node_id":"0.0-3.0-0.34","subject_id":"5e62fe137c6101095520a606","study_id":"607de2837874a824e2e8c6ec","session_id":"6088506bc71c0ad332c17e91","correct":true},{"rt":432.26999999023974,"stimulus":"\n      <p>How sure are you?</p>\n      <p>Rate your confidence in your answer from 1 (pure guess) to 5 (very sure) by pressing the corresponding button.</p>\n     ","response":4,"image":"img/folder.jpg","task":"confidence","old_or_new":"old","trial_type":"html-button-response","trial_index":72,"time_elapsed":175780,"internal_node_id":"0.0-3.0-1.34","subject_id":"5e62fe137c6101095520a606","study_id":"607de2837874a824e2e8c6ec","session_id":"6088506bc71c0ad332c17e91"},{"rt":988.7850000523031,"stimulus":"img/lightbulb_alternate.jpg","response":"n","image":"img/lightbulb_alternate.jpg","old_or_new":"new","task":"recognition","trial_type":"image-keyboard-response","trial_index":73,"time_elapsed":177285,"internal_node_id":"0.0-3.0-0.35","subject_id":"5e62fe137c6101095520a606","study_id":"607de2837874a824e2e8c6ec","session_id":"6088506bc71c0ad332c17e91","correct":true},{"rt":1705.2999999723397,"stimulus":"\n      <p>How sure are you?</p>\n      <p>Rate your confidence in your answer from 1 (pure guess) to 5 (very sure) by pressing the corresponding button.</p>\n     ","response":4,"image":"img/lightbulb_alternate.jpg","task":"confidence","old_or_new":"new","trial_type":"html-button-response","trial_index":74,"time_elapsed":178991,"internal_node_id":"0.0-3.0-1.35","subject_id":"5e62fe137c6101095520a606","study_id":"607de2837874a824e2e8c6ec","session_id":"6088506bc71c0ad332c17e91"},{"rt":2537.9200000315905,"stimulus":"img/grapes.jpg","response":"n","image":"img/grapes.jpg","old_or_new":"old","task":"recognition","trial_type":"image-keyboard-response","trial_index":75,"time_elapsed":182041,"internal_node_id":"0.0-3.0-0.36","subject_id":"5e62fe137c6101095520a606","study_id":"607de2837874a824e2e8c6ec","session_id":"6088506bc71c0ad332c17e91","correct":false},{"rt":707.0299999904819,"stimulus":"\n      <p>How sure are you?</p>\n      <p>Rate your confidence in your answer from 1 (pure guess) to 5 (very sure) by pressing the corresponding button.</p>\n     ","response":1,"image":"img/grapes.jpg","task":"confidence","old_or_new":"old","trial_type":"html-button-response","trial_index":76,"time_elapsed":182749,"internal_node_id":"0.0-3.0-1.36","subject_id":"5e62fe137c6101095520a606","study_id":"607de2837874a824e2e8c6ec","session_id":"6088506bc71c0ad332c17e91"},{"rt":1272.1550000132993,"stimulus":"img/fan.jpg","response":"y","image":"img/fan.jpg","old_or_new":"old","task":"recognition","trial_type":"image-keyboard-response","trial_index":77,"time_elapsed":184530,"internal_node_id":"0.0-3.0-0.37","subject_id":"5e62fe137c6101095520a606","study_id":"607de2837874a824e2e8c6ec","session_id":"6088506bc71c0ad332c17e91","correct":true},{"rt":668.805000022985,"stimulus":"\n      <p>How sure are you?</p>\n      <p>Rate your confidence in your answer from 1 (pure guess) to 5 (very sure) by pressing the corresponding button.</p>\n     ","response":4,"image":"img/fan.jpg","task":"confidence","old_or_new":"old","trial_type":"html-button-response","trial_index":78,"time_elapsed":185199,"internal_node_id":"0.0-3.0-1.37","subject_id":"5e62fe137c6101095520a606","study_id":"607de2837874a824e2e8c6ec","session_id":"6088506bc71c0ad332c17e91"},{"rt":681.0050000203773,"stimulus":"img/backpack.jpg","response":"y","image":"img/backpack.jpg","old_or_new":"old","task":"recognition","trial_type":"image-keyboard-response","trial_index":79,"time_elapsed":186383,"internal_node_id":"0.0-3.0-0.38","subject_id":"5e62fe137c6101095520a606","study_id":"607de2837874a824e2e8c6ec","session_id":"6088506bc71c0ad332c17e91","correct":true},{"rt":439.50500001665205,"stimulus":"\n      <p>How sure are you?</p>\n      <p>Rate your confidence in your answer from 1 (pure guess) to 5 (very sure) by pressing the corresponding button.</p>\n     ","response":4,"image":"img/backpack.jpg","task":"confidence","old_or_new":"old","trial_type":"html-button-response","trial_index":80,"time_elapsed":186823,"internal_node_id":"0.0-3.0-1.38","subject_id":"5e62fe137c6101095520a606","study_id":"607de2837874a824e2e8c6ec","session_id":"6088506bc71c0ad332c17e91"},{"rt":703.7700000219047,"stimulus":"img/camera.jpg","response":"y","image":"img/camera.jpg","old_or_new":"old","task":"recognition","trial_type":"image-keyboard-response","trial_index":81,"time_elapsed":188037,"internal_node_id":"0.0-3.0-0.39","subject_id":"5e62fe137c6101095520a606","study_id":"607de2837874a824e2e8c6ec","session_id":"6088506bc71c0ad332c17e91","correct":true},{"rt":388.5250000166707,"stimulus":"\n      <p>How sure are you?</p>\n      <p>Rate your confidence in your answer from 1 (pure guess) to 5 (very sure) by pressing the corresponding button.</p>\n     ","response":4,"image":"img/camera.jpg","task":"confidence","old_or_new":"old","trial_type":"html-button-response","trial_index":82,"time_elapsed":188426,"internal_node_id":"0.0-3.0-1.39","subject_id":"5e62fe137c6101095520a606","study_id":"607de2837874a824e2e8c6ec","session_id":"6088506bc71c0ad332c17e91"},{"rt":1065.4549999744631,"stimulus":"img/apple_alternate.jpg","response":"n","image":"img/apple_alternate.jpg","old_or_new":"new","task":"recognition","trial_type":"image-keyboard-response","trial_index":83,"time_elapsed":190002,"internal_node_id":"0.0-3.0-0.40","subject_id":"5e62fe137c6101095520a606","study_id":"607de2837874a824e2e8c6ec","session_id":"6088506bc71c0ad332c17e91","correct":true},{"rt":683.5450000362471,"stimulus":"\n      <p>How sure are you?</p>\n      <p>Rate your confidence in your answer from 1 (pure guess) to 5 (very sure) by pressing the corresponding button.</p>\n     ","response":1,"image":"img/apple_alternate.jpg","task":"confidence","old_or_new":"new","trial_type":"html-button-response","trial_index":84,"time_elapsed":190686,"internal_node_id":"0.0-3.0-1.40","subject_id":"5e62fe137c6101095520a606","study_id":"607de2837874a824e2e8c6ec","session_id":"6088506bc71c0ad332c17e91"},{"rt":1756.519999995362,"stimulus":"img/fan_alternate.jpg","response":"n","image":"img/fan_alternate.jpg","old_or_new":"new","task":"recognition","trial_type":"image-keyboard-response","trial_index":85,"time_elapsed":192956,"internal_node_id":"0.0-3.0-0.41","subject_id":"5e62fe137c6101095520a606","study_id":"607de2837874a824e2e8c6ec","session_id":"6088506bc71c0ad332c17e91","correct":true},{"rt":445.09500003186986,"stimulus":"\n      <p>How sure are you?</p>\n      <p>Rate your confidence in your answer from 1 (pure guess) to 5 (very sure) by pressing the corresponding button.</p>\n     ","response":1,"image":"img/fan_alternate.jpg","task":"confidence","old_or_new":"new","trial_type":"html-button-response","trial_index":86,"time_elapsed":193402,"internal_node_id":"0.0-3.0-1.41","subject_id":"5e62fe137c6101095520a606","study_id":"607de2837874a824e2e8c6ec","session_id":"6088506bc71c0ad332c17e91"},{"rt":1469.249999965541,"stimulus":"img/apple.jpg","response":"n","image":"img/apple.jpg","old_or_new":"old","task":"recognition","trial_type":"image-keyboard-response","trial_index":87,"time_elapsed":195389,"internal_node_id":"0.0-3.0-0.42","subject_id":"5e62fe137c6101095520a606","study_id":"607de2837874a824e2e8c6ec","session_id":"6088506bc71c0ad332c17e91","correct":false},{"rt":9600.670000014361,"stimulus":"\n      <p>How sure are you?</p>\n      <p>Rate your confidence in your answer from 1 (pure guess) to 5 (very sure) by pressing the corresponding button.</p>\n     ","response":0,"image":"img/apple.jpg","task":"confidence","old_or_new":"old","trial_type":"html-button-response","trial_index":88,"time_elapsed":204990,"internal_node_id":"0.0-3.0-1.42","subject_id":"5e62fe137c6101095520a606","study_id":"607de2837874a824e2e8c6ec","session_id":"6088506bc71c0ad332c17e91"},{"rt":1093.9650000073016,"stimulus":"img/basket.jpg","response":"y","image":"img/basket.jpg","old_or_new":"old","task":"recognition","trial_type":"image-keyboard-response","trial_index":89,"time_elapsed":206597,"internal_node_id":"0.0-3.0-0.43","subject_id":"5e62fe137c6101095520a606","study_id":"607de2837874a824e2e8c6ec","session_id":"6088506bc71c0ad332c17e91","correct":true},{"rt":687.6450000563636,"stimulus":"\n      <p>How sure are you?</p>\n      <p>Rate your confidence in your answer from 1 (pure guess) to 5 (very sure) by pressing the corresponding button.</p>\n     ","response":4,"image":"img/basket.jpg","task":"confidence","old_or_new":"old","trial_type":"html-button-response","trial_index":90,"time_elapsed":207285,"internal_node_id":"0.0-3.0-1.43","subject_id":"5e62fe137c6101095520a606","study_id":"607de2837874a824e2e8c6ec","session_id":"6088506bc71c0ad332c17e91"},{"rt":943.1249999906868,"stimulus":"img/lightbulb.jpg","response":"n","image":"img/lightbulb.jpg","old_or_new":"old","task":"recognition","trial_type":"image-keyboard-response","trial_index":91,"time_elapsed":208732,"internal_node_id":"0.0-3.0-0.44","subject_id":"5e62fe137c6101095520a606","study_id":"607de2837874a824e2e8c6ec","session_id":"6088506bc71c0ad332c17e91","correct":false},{"rt":2936.710000038147,"stimulus":"\n      <p>How sure are you?</p>\n      <p>Rate your confidence in your answer from 1 (pure guess) to 5 (very sure) by pressing the corresponding button.</p>\n     ","response":1,"image":"img/lightbulb.jpg","task":"confidence","old_or_new":"old","trial_type":"html-button-response","trial_index":92,"time_elapsed":211669,"internal_node_id":"0.0-3.0-1.44","subject_id":"5e62fe137c6101095520a606","study_id":"607de2837874a824e2e8c6ec","session_id":"6088506bc71c0ad332c17e91"},{"rt":912.7849999931641,"stimulus":"img/globe.jpg","response":"y","image":"img/globe.jpg","old_or_new":"old","task":"recognition","trial_type":"image-keyboard-response","trial_index":93,"time_elapsed":213092,"internal_node_id":"0.0-3.0-0.45","subject_id":"5e62fe137c6101095520a606","study_id":"607de2837874a824e2e8c6ec","session_id":"6088506bc71c0ad332c17e91","correct":true},{"rt":875.2300000051036,"stimulus":"\n      <p>How sure are you?</p>\n      <p>Rate your confidence in your answer from 1 (pure guess) to 5 (very sure) by pressing the corresponding button.</p>\n     ","response":4,"image":"img/globe.jpg","task":"confidence","old_or_new":"old","trial_type":"html-button-response","trial_index":94,"time_elapsed":213968,"internal_node_id":"0.0-3.0-1.45","subject_id":"5e62fe137c6101095520a606","study_id":"607de2837874a824e2e8c6ec","session_id":"6088506bc71c0ad332c17e91"},{"rt":1792.3550000414252,"stimulus":"img/folder_alternate.jpg","response":"n","image":"img/folder_alternate.jpg","old_or_new":"new","task":"recognition","trial_type":"image-keyboard-response","trial_index":95,"time_elapsed":216267,"internal_node_id":"0.0-3.0-0.46","subject_id":"5e62fe137c6101095520a606","study_id":"607de2837874a824e2e8c6ec","session_id":"6088506bc71c0ad332c17e91","correct":true},{"rt":1634.169999975711,"stimulus":"\n      <p>How sure are you?</p>\n      <p>Rate your confidence in your answer from 1 (pure guess) to 5 (very sure) by pressing the corresponding button.</p>\n     ","response":3,"image":"img/folder_alternate.jpg","task":"confidence","old_or_new":"new","trial_type":"html-button-response","trial_index":96,"time_elapsed":217902,"internal_node_id":"0.0-3.0-1.46","subject_id":"5e62fe137c6101095520a606","study_id":"607de2837874a824e2e8c6ec","session_id":"6088506bc71c0ad332c17e91"},{"rt":1148.9399999845773,"stimulus":"img/basket_alternate.jpg","response":"n","image":"img/basket_alternate.jpg","old_or_new":"new","task":"recognition","trial_type":"image-keyboard-response","trial_index":97,"time_elapsed":219559,"internal_node_id":"0.0-3.0-0.47","subject_id":"5e62fe137c6101095520a606","study_id":"607de2837874a824e2e8c6ec","session_id":"6088506bc71c0ad332c17e91","correct":true},{"rt":496.259999985341,"stimulus":"\n      <p>How sure are you?</p>\n      <p>Rate your confidence in your answer from 1 (pure guess) to 5 (very sure) by pressing the corresponding button.</p>\n     ","response":3,"image":"img/basket_alternate.jpg","task":"confidence","old_or_new":"new","trial_type":"html-button-response","trial_index":98,"time_elapsed":220056,"internal_node_id":"0.0-3.0-1.47","subject_id":"5e62fe137c6101095520a606","study_id":"607de2837874a824e2e8c6ec","session_id":"6088506bc71c0ad332c17e91"}]