[{"success":true,"timeout":false,"failed_images":[],"failed_audio":[],"failed_video":[],"trial_type":"preload","trial_index":0,"time_elapsed":5780,"internal_node_id":"0.0-0.0","subject_id":"5fc6dc05e27b9c3fcd90c3c2","study_id":"607de2837874a824e2e8c6ec","session_id":"6088504812513218dbf2d8c7"},{"rt":2526.7450000101235,"stimulus":"\n      <div style=\"width:800px; text-align: left;\">\n        <p>Welcome to day 2 of the experiment! Thanks for coming back.</p>\n        <p>You will be presented with a series of images. Images will appear one at a time.</p>\n        <p>Each image will remain on the screen until you press either <span style=\"font-weight: bold;\">\"y\" to indicate you have seen the \n        exact same photo the day before or \"n\" to indicate you have not seen the exact same photo the day before.</span></p>\n        <p>After you answer yes (\"y\") or no (\"n\"), you will then be prompted to rate your certainty on a scale of\n        1 (pure guess) to 5 (very sure).</p>\n      </div>\n    ","response":0,"trial_type":"html-button-response","trial_index":1,"time_elapsed":8309,"internal_node_id":"0.0-1.0","subject_id":"5fc6dc05e27b9c3fcd90c3c2","study_id":"607de2837874a824e2e8c6ec","session_id":"6088504812513218dbf2d8c7"},{"success":true,"trial_type":"fullscreen","trial_index":2,"time_elapsed":10991,"internal_node_id":"0.0-2.0","subject_id":"5fc6dc05e27b9c3fcd90c3c2","study_id":"607de2837874a824e2e8c6ec","session_id":"6088504812513218dbf2d8c7"},{"rt":10217.40999998292,"stimulus":"img/grapes.jpg","response":"y","image":"img/grapes.jpg","old_or_new":"old","task":"recognition","trial_type":"image-keyboard-response","trial_index":3,"time_elapsed":21218,"internal_node_id":"0.0-3.0-0.0","subject_id":"5fc6dc05e27b9c3fcd90c3c2","study_id":"607de2837874a824e2e8c6ec","session_id":"6088504812513218dbf2d8c7","correct":true},{"rt":2957.7400000125635,"stimulus":"\n      <p>How sure are you?</p>\n      <p>Rate your confidence in your answer from 1 (pure guess) to 5 (very sure) by pressing the corresponding button.</p>\n     ","response":4,"image":"img/grapes.jpg","task":"confidence","old_or_new":"old","trial_type":"html-button-response","trial_index":4,"time_elapsed":24177,"internal_node_id":"0.0-3.0-1.0","subject_id":"5fc6dc05e27b9c3fcd90c3c2","study_id":"607de2837874a824e2e8c6ec","session_id":"6088504812513218dbf2d8c7"},{"rt":3984.8750000237487,"stimulus":"img/backpack_alternate.jpg","response":"n","image":"img/backpack_alternate.jpg","old_or_new":"new","task":"recognition","trial_type":"image-keyboard-response","trial_index":5,"time_elapsed":28665,"internal_node_id":"0.0-3.0-0.1","subject_id":"5fc6dc05e27b9c3fcd90c3c2","study_id":"607de2837874a824e2e8c6ec","session_id":"6088504812513218dbf2d8c7","correct":true},{"rt":2256.065000023227,"stimulus":"\n      <p>How sure are you?</p>\n      <p>Rate your confidence in your answer from 1 (pure guess) to 5 (very sure) by pressing the corresponding button.</p>\n     ","response":4,"image":"img/backpack_alternate.jpg","task":"confidence","old_or_new":"new","trial_type":"html-button-response","trial_index":6,"time_elapsed":30923,"internal_node_id":"0.0-3.0-1.1","subject_id":"5fc6dc05e27b9c3fcd90c3c2","study_id":"607de2837874a824e2e8c6ec","session_id":"6088504812513218dbf2d8c7"},{"rt":3005.219999991823,"stimulus":"img/camera_alternate.jpg","response":"n","image":"img/camera_alternate.jpg","old_or_new":"new","task":"recognition","trial_type":"image-keyboard-response","trial_index":7,"time_elapsed":34438,"internal_node_id":"0.0-3.0-0.2","subject_id":"5fc6dc05e27b9c3fcd90c3c2","study_id":"607de2837874a824e2e8c6ec","session_id":"6088504812513218dbf2d8c7","correct":true},{"rt":1761.884999985341,"stimulus":"\n      <p>How sure are you?</p>\n      <p>Rate your confidence in your answer from 1 (pure guess) to 5 (very sure) by pressing the corresponding button.</p>\n     ","response":4,"image":"img/camera_alternate.jpg","task":"confidence","old_or_new":"new","trial_type":"html-button-response","trial_index":8,"time_elapsed":36201,"internal_node_id":"0.0-3.0-1.2","subject_id":"5fc6dc05e27b9c3fcd90c3c2","study_id":"607de2837874a824e2e8c6ec","session_id":"6088504812513218dbf2d8c7"},{"rt":1806.3149999943562,"stimulus":"img/drum_alternate.jpg","response":"n","image":"img/drum_alternate.jpg","old_or_new":"new","task":"recognition","trial_type":"image-keyboard-response","trial_index":9,"time_elapsed":38510,"internal_node_id":"0.0-3.0-0.3","subject_id":"5fc6dc05e27b9c3fcd90c3c2","study_id":"607de2837874a824e2e8c6ec","session_id":"6088504812513218dbf2d8c7","correct":true},{"rt":1742.7000000025146,"stimulus":"\n      <p>How sure are you?</p>\n      <p>Rate your confidence in your answer from 1 (pure guess) to 5 (very sure) by pressing the corresponding button.</p>\n     ","response":4,"image":"img/drum_alternate.jpg","task":"confidence","old_or_new":"new","trial_type":"html-button-response","trial_index":10,"time_elapsed":40254,"internal_node_id":"0.0-3.0-1.3","subject_id":"5fc6dc05e27b9c3fcd90c3c2","study_id":"607de2837874a824e2e8c6ec","session_id":"6088504812513218dbf2d8c7"},{"rt":7096.554999996442,"stimulus":"img/fan_alternate.jpg","response":"n","image":"img/fan_alternate.jpg","old_or_new":"new","task":"recognition","trial_type":"image-keyboard-response","trial_index":11,"time_elapsed":47854,"internal_node_id":"0.0-3.0-0.4","subject_id":"5fc6dc05e27b9c3fcd90c3c2","study_id":"607de2837874a824e2e8c6ec","session_id":"6088504812513218dbf2d8c7","correct":true},{"rt":1643.3650000253692,"stimulus":"\n      <p>How sure are you?</p>\n      <p>Rate your confidence in your answer from 1 (pure guess) to 5 (very sure) by pressing the corresponding button.</p>\n     ","response":4,"image":"img/fan_alternate.jpg","task":"confidence","old_or_new":"new","trial_type":"html-button-response","trial_index":12,"time_elapsed":49499,"internal_node_id":"0.0-3.0-1.4","subject_id":"5fc6dc05e27b9c3fcd90c3c2","study_id":"607de2837874a824e2e8c6ec","session_id":"6088504812513218dbf2d8c7"},{"rt":2039.8299999942537,"stimulus":"img/hair_tie.jpg","response":"y","image":"img/hair_tie.jpg","old_or_new":"old","task":"recognition","trial_type":"image-keyboard-response","trial_index":13,"time_elapsed":52053,"internal_node_id":"0.0-3.0-0.5","subject_id":"5fc6dc05e27b9c3fcd90c3c2","study_id":"607de2837874a824e2e8c6ec","session_id":"6088504812513218dbf2d8c7","correct":true},{"rt":1766.299999988405,"stimulus":"\n      <p>How sure are you?</p>\n      <p>Rate your confidence in your answer from 1 (pure guess) to 5 (very sure) by pressing the corresponding button.</p>\n     ","response":4,"image":"img/hair_tie.jpg","task":"confidence","old_or_new":"old","trial_type":"html-button-response","trial_index":14,"time_elapsed":53820,"internal_node_id":"0.0-3.0-1.5","subject_id":"5fc6dc05e27b9c3fcd90c3c2","study_id":"607de2837874a824e2e8c6ec","session_id":"6088504812513218dbf2d8c7"},{"rt":1696.7099999892525,"stimulus":"img/leaf_alternate.jpg","response":"n","image":"img/leaf_alternate.jpg","old_or_new":"new","task":"recognition","trial_type":"image-keyboard-response","trial_index":15,"time_elapsed":56030,"internal_node_id":"0.0-3.0-0.6","subject_id":"5fc6dc05e27b9c3fcd90c3c2","study_id":"607de2837874a824e2e8c6ec","session_id":"6088504812513218dbf2d8c7","correct":true},{"rt":1532.7500000130385,"stimulus":"\n      <p>How sure are you?</p>\n      <p>Rate your confidence in your answer from 1 (pure guess) to 5 (very sure) by pressing the corresponding button.</p>\n     ","response":4,"image":"img/leaf_alternate.jpg","task":"confidence","old_or_new":"new","trial_type":"html-button-response","trial_index":16,"time_elapsed":57564,"internal_node_id":"0.0-3.0-1.6","subject_id":"5fc6dc05e27b9c3fcd90c3c2","study_id":"607de2837874a824e2e8c6ec","session_id":"6088504812513218dbf2d8c7"},{"rt":1717.0599999953993,"stimulus":"img/ladder.jpg","response":"y","image":"img/ladder.jpg","old_or_new":"old","task":"recognition","trial_type":"image-keyboard-response","trial_index":17,"time_elapsed":59787,"internal_node_id":"0.0-3.0-0.7","subject_id":"5fc6dc05e27b9c3fcd90c3c2","study_id":"607de2837874a824e2e8c6ec","session_id":"6088504812513218dbf2d8c7","correct":true},{"rt":1547.259999992093,"stimulus":"\n      <p>How sure are you?</p>\n      <p>Rate your confidence in your answer from 1 (pure guess) to 5 (very sure) by pressing the corresponding button.</p>\n     ","response":4,"image":"img/ladder.jpg","task":"confidence","old_or_new":"old","trial_type":"html-button-response","trial_index":18,"time_elapsed":61335,"internal_node_id":"0.0-3.0-1.7","subject_id":"5fc6dc05e27b9c3fcd90c3c2","study_id":"607de2837874a824e2e8c6ec","session_id":"6088504812513218dbf2d8c7"},{"rt":2714.3299999879673,"stimulus":"img/hairbrush_alternate.jpg","response":"n","image":"img/hairbrush_alternate.jpg","old_or_new":"new","task":"recognition","trial_type":"image-keyboard-response","trial_index":19,"time_elapsed":64566,"internal_node_id":"0.0-3.0-0.8","subject_id":"5fc6dc05e27b9c3fcd90c3c2","study_id":"607de2837874a824e2e8c6ec","session_id":"6088504812513218dbf2d8c7","correct":true},{"rt":1716.0900000017136,"stimulus":"\n      <p>How sure are you?</p>\n      <p>Rate your confidence in your answer from 1 (pure guess) to 5 (very sure) by pressing the corresponding button.</p>\n     ","response":3,"image":"img/hairbrush_alternate.jpg","task":"confidence","old_or_new":"new","trial_type":"html-button-response","trial_index":20,"time_elapsed":66283,"internal_node_id":"0.0-3.0-1.8","subject_id":"5fc6dc05e27b9c3fcd90c3c2","study_id":"607de2837874a824e2e8c6ec","session_id":"6088504812513218dbf2d8c7"},{"rt":1845.8099999988917,"stimulus":"img/grapes_alternate.jpg","response":"n","image":"img/grapes_alternate.jpg","old_or_new":"new","task":"recognition","trial_type":"image-keyboard-response","trial_index":21,"time_elapsed":68643,"internal_node_id":"0.0-3.0-0.9","subject_id":"5fc6dc05e27b9c3fcd90c3c2","study_id":"607de2837874a824e2e8c6ec","session_id":"6088504812513218dbf2d8c7","correct":true},{"rt":1682.555000006687,"stimulus":"\n      <p>How sure are you?</p>\n      <p>Rate your confidence in your answer from 1 (pure guess) to 5 (very sure) by pressing the corresponding button.</p>\n     ","response":4,"image":"img/grapes_alternate.jpg","task":"confidence","old_or_new":"new","trial_type":"html-button-response","trial_index":22,"time_elapsed":70327,"internal_node_id":"0.0-3.0-1.9","subject_id":"5fc6dc05e27b9c3fcd90c3c2","study_id":"607de2837874a824e2e8c6ec","session_id":"6088504812513218dbf2d8c7"},{"rt":1298.274999979185,"stimulus":"img/apple.jpg","response":"y","image":"img/apple.jpg","old_or_new":"old","task":"recognition","trial_type":"image-keyboard-response","trial_index":23,"time_elapsed":72127,"internal_node_id":"0.0-3.0-0.10","subject_id":"5fc6dc05e27b9c3fcd90c3c2","study_id":"607de2837874a824e2e8c6ec","session_id":"6088504812513218dbf2d8c7","correct":true},{"rt":2419.7350000031292,"stimulus":"\n      <p>How sure are you?</p>\n      <p>Rate your confidence in your answer from 1 (pure guess) to 5 (very sure) by pressing the corresponding button.</p>\n     ","response":4,"image":"img/apple.jpg","task":"confidence","old_or_new":"old","trial_type":"html-button-response","trial_index":24,"time_elapsed":74548,"internal_node_id":"0.0-3.0-1.10","subject_id":"5fc6dc05e27b9c3fcd90c3c2","study_id":"607de2837874a824e2e8c6ec","session_id":"6088504812513218dbf2d8c7"},{"rt":2740.3599999961443,"stimulus":"img/globe.jpg","response":"y","image":"img/globe.jpg","old_or_new":"old","task":"recognition","trial_type":"image-keyboard-response","trial_index":25,"time_elapsed":77791,"internal_node_id":"0.0-3.0-0.11","subject_id":"5fc6dc05e27b9c3fcd90c3c2","study_id":"607de2837874a824e2e8c6ec","session_id":"6088504812513218dbf2d8c7","correct":true},{"rt":1555.8399999863468,"stimulus":"\n      <p>How sure are you?</p>\n      <p>Rate your confidence in your answer from 1 (pure guess) to 5 (very sure) by pressing the corresponding button.</p>\n     ","response":3,"image":"img/globe.jpg","task":"confidence","old_or_new":"old","trial_type":"html-button-response","trial_index":26,"time_elapsed":79348,"internal_node_id":"0.0-3.0-1.11","subject_id":"5fc6dc05e27b9c3fcd90c3c2","study_id":"607de2837874a824e2e8c6ec","session_id":"6088504812513218dbf2d8c7"},{"rt":2259.044999984326,"stimulus":"img/lightbulb_alternate.jpg","response":"n","image":"img/lightbulb_alternate.jpg","old_or_new":"new","task":"recognition","trial_type":"image-keyboard-response","trial_index":27,"time_elapsed":82109,"internal_node_id":"0.0-3.0-0.12","subject_id":"5fc6dc05e27b9c3fcd90c3c2","study_id":"607de2837874a824e2e8c6ec","session_id":"6088504812513218dbf2d8c7","correct":true},{"rt":1567.3449999885634,"stimulus":"\n      <p>How sure are you?</p>\n      <p>Rate your confidence in your answer from 1 (pure guess) to 5 (very sure) by pressing the corresponding button.</p>\n     ","response":3,"image":"img/lightbulb_alternate.jpg","task":"confidence","old_or_new":"new","trial_type":"html-button-response","trial_index":28,"time_elapsed":83678,"internal_node_id":"0.0-3.0-1.12","subject_id":"5fc6dc05e27b9c3fcd90c3c2","study_id":"607de2837874a824e2e8c6ec","session_id":"6088504812513218dbf2d8c7"},{"rt":1851.5999999945052,"stimulus":"img/basket.jpg","response":"y","image":"img/basket.jpg","old_or_new":"old","task":"recognition","trial_type":"image-keyboard-response","trial_index":29,"time_elapsed":86033,"internal_node_id":"0.0-3.0-0.13","subject_id":"5fc6dc05e27b9c3fcd90c3c2","study_id":"607de2837874a824e2e8c6ec","session_id":"6088504812513218dbf2d8c7","correct":true},{"rt":1934.339999977965,"stimulus":"\n      <p>How sure are you?</p>\n      <p>Rate your confidence in your answer from 1 (pure guess) to 5 (very sure) by pressing the corresponding button.</p>\n     ","response":4,"image":"img/basket.jpg","task":"confidence","old_or_new":"old","trial_type":"html-button-response","trial_index":30,"time_elapsed":87968,"internal_node_id":"0.0-3.0-1.13","subject_id":"5fc6dc05e27b9c3fcd90c3c2","study_id":"607de2837874a824e2e8c6ec","session_id":"6088504812513218dbf2d8c7"},{"rt":1248.9749999949709,"stimulus":"img/calculator.jpg","response":"y","image":"img/calculator.jpg","old_or_new":"old","task":"recognition","trial_type":"image-keyboard-response","trial_index":31,"time_elapsed":89719,"internal_node_id":"0.0-3.0-0.14","subject_id":"5fc6dc05e27b9c3fcd90c3c2","study_id":"607de2837874a824e2e8c6ec","session_id":"6088504812513218dbf2d8c7","correct":true},{"rt":1659.0399999986403,"stimulus":"\n      <p>How sure are you?</p>\n      <p>Rate your confidence in your answer from 1 (pure guess) to 5 (very sure) by pressing the corresponding button.</p>\n     ","response":4,"image":"img/calculator.jpg","task":"confidence","old_or_new":"old","trial_type":"html-button-response","trial_index":32,"time_elapsed":91379,"internal_node_id":"0.0-3.0-1.14","subject_id":"5fc6dc05e27b9c3fcd90c3c2","study_id":"607de2837874a824e2e8c6ec","session_id":"6088504812513218dbf2d8c7"},{"rt":1157.4499999987893,"stimulus":"img/basket_alternate.jpg","response":"n","image":"img/basket_alternate.jpg","old_or_new":"new","task":"recognition","trial_type":"image-keyboard-response","trial_index":33,"time_elapsed":93044,"internal_node_id":"0.0-3.0-0.15","subject_id":"5fc6dc05e27b9c3fcd90c3c2","study_id":"607de2837874a824e2e8c6ec","session_id":"6088504812513218dbf2d8c7","correct":true},{"rt":1126.2849999766331,"stimulus":"\n      <p>How sure are you?</p>\n      <p>Rate your confidence in your answer from 1 (pure guess) to 5 (very sure) by pressing the corresponding button.</p>\n     ","response":4,"image":"img/basket_alternate.jpg","task":"confidence","old_or_new":"new","trial_type":"html-button-response","trial_index":34,"time_elapsed":94172,"internal_node_id":"0.0-3.0-1.15","subject_id":"5fc6dc05e27b9c3fcd90c3c2","study_id":"607de2837874a824e2e8c6ec","session_id":"6088504812513218dbf2d8c7"},{"rt":1566.9400000188034,"stimulus":"img/coin.jpg","response":"y","image":"img/coin.jpg","old_or_new":"old","task":"recognition","trial_type":"image-keyboard-response","trial_index":35,"time_elapsed":96249,"internal_node_id":"0.0-3.0-0.16","subject_id":"5fc6dc05e27b9c3fcd90c3c2","study_id":"607de2837874a824e2e8c6ec","session_id":"6088504812513218dbf2d8c7","correct":true},{"rt":1904.195000010077,"stimulus":"\n      <p>How sure are you?</p>\n      <p>Rate your confidence in your answer from 1 (pure guess) to 5 (very sure) by pressing the corresponding button.</p>\n     ","response":4,"image":"img/coin.jpg","task":"confidence","old_or_new":"old","trial_type":"html-button-response","trial_index":36,"time_elapsed":98154,"internal_node_id":"0.0-3.0-1.16","subject_id":"5fc6dc05e27b9c3fcd90c3c2","study_id":"607de2837874a824e2e8c6ec","session_id":"6088504812513218dbf2d8c7"},{"rt":1886.255000019446,"stimulus":"img/hourglass.jpg","response":"y","image":"img/hourglass.jpg","old_or_new":"old","task":"recognition","trial_type":"image-keyboard-response","trial_index":37,"time_elapsed":100557,"internal_node_id":"0.0-3.0-0.17","subject_id":"5fc6dc05e27b9c3fcd90c3c2","study_id":"607de2837874a824e2e8c6ec","session_id":"6088504812513218dbf2d8c7","correct":true},{"rt":2109.2849999840837,"stimulus":"\n      <p>How sure are you?</p>\n      <p>Rate your confidence in your answer from 1 (pure guess) to 5 (very sure) by pressing the corresponding button.</p>\n     ","response":4,"image":"img/hourglass.jpg","task":"confidence","old_or_new":"old","trial_type":"html-button-response","trial_index":38,"time_elapsed":102667,"internal_node_id":"0.0-3.0-1.17","subject_id":"5fc6dc05e27b9c3fcd90c3c2","study_id":"607de2837874a824e2e8c6ec","session_id":"6088504812513218dbf2d8c7"},{"rt":1252.150000014808,"stimulus":"img/chair_alternate.jpg","response":"n","image":"img/chair_alternate.jpg","old_or_new":"new","task":"recognition","trial_type":"image-keyboard-response","trial_index":39,"time_elapsed":104434,"internal_node_id":"0.0-3.0-0.18","subject_id":"5fc6dc05e27b9c3fcd90c3c2","study_id":"607de2837874a824e2e8c6ec","session_id":"6088504812513218dbf2d8c7","correct":true},{"rt":1071.6100000136066,"stimulus":"\n      <p>How sure are you?</p>\n      <p>Rate your confidence in your answer from 1 (pure guess) to 5 (very sure) by pressing the corresponding button.</p>\n     ","response":4,"image":"img/chair_alternate.jpg","task":"confidence","old_or_new":"new","trial_type":"html-button-response","trial_index":40,"time_elapsed":105507,"internal_node_id":"0.0-3.0-1.18","subject_id":"5fc6dc05e27b9c3fcd90c3c2","study_id":"607de2837874a824e2e8c6ec","session_id":"6088504812513218dbf2d8c7"},{"rt":1411.2150000000838,"stimulus":"img/hair_tie_alternate.jpg","response":"n","image":"img/hair_tie_alternate.jpg","old_or_new":"new","task":"recognition","trial_type":"image-keyboard-response","trial_index":41,"time_elapsed":107429,"internal_node_id":"0.0-3.0-0.19","subject_id":"5fc6dc05e27b9c3fcd90c3c2","study_id":"607de2837874a824e2e8c6ec","session_id":"6088504812513218dbf2d8c7","correct":true},{"rt":1078.4599999897182,"stimulus":"\n      <p>How sure are you?</p>\n      <p>Rate your confidence in your answer from 1 (pure guess) to 5 (very sure) by pressing the corresponding button.</p>\n     ","response":4,"image":"img/hair_tie_alternate.jpg","task":"confidence","old_or_new":"new","trial_type":"html-button-response","trial_index":42,"time_elapsed":108509,"internal_node_id":"0.0-3.0-1.19","subject_id":"5fc6dc05e27b9c3fcd90c3c2","study_id":"607de2837874a824e2e8c6ec","session_id":"6088504812513218dbf2d8c7"},{"rt":1303.955000010319,"stimulus":"img/fan.jpg","response":"y","image":"img/fan.jpg","old_or_new":"old","task":"recognition","trial_type":"image-keyboard-response","trial_index":43,"time_elapsed":110326,"internal_node_id":"0.0-3.0-0.20","subject_id":"5fc6dc05e27b9c3fcd90c3c2","study_id":"607de2837874a824e2e8c6ec","session_id":"6088504812513218dbf2d8c7","correct":true},{"rt":2618.959999992512,"stimulus":"\n      <p>How sure are you?</p>\n      <p>Rate your confidence in your answer from 1 (pure guess) to 5 (very sure) by pressing the corresponding button.</p>\n     ","response":4,"image":"img/fan.jpg","task":"confidence","old_or_new":"old","trial_type":"html-button-response","trial_index":44,"time_elapsed":112946,"internal_node_id":"0.0-3.0-1.20","subject_id":"5fc6dc05e27b9c3fcd90c3c2","study_id":"607de2837874a824e2e8c6ec","session_id":"6088504812513218dbf2d8c7"},{"rt":4270.389999990584,"stimulus":"img/dryer_alternate.jpg","response":"n","image":"img/dryer_alternate.jpg","old_or_new":"new","task":"recognition","trial_type":"image-keyboard-response","trial_index":45,"time_elapsed":117732,"internal_node_id":"0.0-3.0-0.21","subject_id":"5fc6dc05e27b9c3fcd90c3c2","study_id":"607de2837874a824e2e8c6ec","session_id":"6088504812513218dbf2d8c7","correct":true},{"rt":1909.6900000004098,"stimulus":"\n      <p>How sure are you?</p>\n      <p>Rate your confidence in your answer from 1 (pure guess) to 5 (very sure) by pressing the corresponding button.</p>\n     ","response":4,"image":"img/dryer_alternate.jpg","task":"confidence","old_or_new":"new","trial_type":"html-button-response","trial_index":46,"time_elapsed":119643,"internal_node_id":"0.0-3.0-1.21","subject_id":"5fc6dc05e27b9c3fcd90c3c2","study_id":"607de2837874a824e2e8c6ec","session_id":"6088504812513218dbf2d8c7"},{"rt":1273.6799999838695,"stimulus":"img/key_alternate.jpg","response":"n","image":"img/key_alternate.jpg","old_or_new":"new","task":"recognition","trial_type":"image-keyboard-response","trial_index":47,"time_elapsed":121431,"internal_node_id":"0.0-3.0-0.22","subject_id":"5fc6dc05e27b9c3fcd90c3c2","study_id":"607de2837874a824e2e8c6ec","session_id":"6088504812513218dbf2d8c7","correct":true},{"rt":1398.0250000022352,"stimulus":"\n      <p>How sure are you?</p>\n      <p>Rate your confidence in your answer from 1 (pure guess) to 5 (very sure) by pressing the corresponding button.</p>\n     ","response":4,"image":"img/key_alternate.jpg","task":"confidence","old_or_new":"new","trial_type":"html-button-response","trial_index":48,"time_elapsed":122830,"internal_node_id":"0.0-3.0-1.22","subject_id":"5fc6dc05e27b9c3fcd90c3c2","study_id":"607de2837874a824e2e8c6ec","session_id":"6088504812513218dbf2d8c7"},{"rt":1210.224999987986,"stimulus":"img/key.jpg","response":"y","image":"img/key.jpg","old_or_new":"old","task":"recognition","trial_type":"image-keyboard-response","trial_index":49,"time_elapsed":124563,"internal_node_id":"0.0-3.0-0.23","subject_id":"5fc6dc05e27b9c3fcd90c3c2","study_id":"607de2837874a824e2e8c6ec","session_id":"6088504812513218dbf2d8c7","correct":true},{"rt":1105.390000011539,"stimulus":"\n      <p>How sure are you?</p>\n      <p>Rate your confidence in your answer from 1 (pure guess) to 5 (very sure) by pressing the corresponding button.</p>\n     ","response":4,"image":"img/key.jpg","task":"confidence","old_or_new":"old","trial_type":"html-button-response","trial_index":50,"time_elapsed":125670,"internal_node_id":"0.0-3.0-1.23","subject_id":"5fc6dc05e27b9c3fcd90c3c2","study_id":"607de2837874a824e2e8c6ec","session_id":"6088504812513218dbf2d8c7"},{"rt":1481.804999988526,"stimulus":"img/globe_alternate.jpg","response":"n","image":"img/globe_alternate.jpg","old_or_new":"new","task":"recognition","trial_type":"image-keyboard-response","trial_index":51,"time_elapsed":127666,"internal_node_id":"0.0-3.0-0.24","subject_id":"5fc6dc05e27b9c3fcd90c3c2","study_id":"607de2837874a824e2e8c6ec","session_id":"6088504812513218dbf2d8c7","correct":true},{"rt":1736.5999999747146,"stimulus":"\n      <p>How sure are you?</p>\n      <p>Rate your confidence in your answer from 1 (pure guess) to 5 (very sure) by pressing the corresponding button.</p>\n     ","response":4,"image":"img/globe_alternate.jpg","task":"confidence","old_or_new":"new","trial_type":"html-button-response","trial_index":52,"time_elapsed":129404,"internal_node_id":"0.0-3.0-1.24","subject_id":"5fc6dc05e27b9c3fcd90c3c2","study_id":"607de2837874a824e2e8c6ec","session_id":"6088504812513218dbf2d8c7"},{"rt":1291.319999989355,"stimulus":"img/folder_alternate.jpg","response":"n","image":"img/folder_alternate.jpg","old_or_new":"new","task":"recognition","trial_type":"image-keyboard-response","trial_index":53,"time_elapsed":131201,"internal_node_id":"0.0-3.0-0.25","subject_id":"5fc6dc05e27b9c3fcd90c3c2","study_id":"607de2837874a824e2e8c6ec","session_id":"6088504812513218dbf2d8c7","correct":true},{"rt":1566.5250000020023,"stimulus":"\n      <p>How sure are you?</p>\n      <p>Rate your confidence in your answer from 1 (pure guess) to 5 (very sure) by pressing the corresponding button.</p>\n     ","response":4,"image":"img/folder_alternate.jpg","task":"confidence","old_or_new":"new","trial_type":"html-button-response","trial_index":54,"time_elapsed":132769,"internal_node_id":"0.0-3.0-1.25","subject_id":"5fc6dc05e27b9c3fcd90c3c2","study_id":"607de2837874a824e2e8c6ec","session_id":"6088504812513218dbf2d8c7"},{"rt":1270.9200000099372,"stimulus":"img/apple_alternate.jpg","response":"n","image":"img/apple_alternate.jpg","old_or_new":"new","task":"recognition","trial_type":"image-keyboard-response","trial_index":55,"time_elapsed":134552,"internal_node_id":"0.0-3.0-0.26","subject_id":"5fc6dc05e27b9c3fcd90c3c2","study_id":"607de2837874a824e2e8c6ec","session_id":"6088504812513218dbf2d8c7","correct":true},{"rt":1417.4500000081025,"stimulus":"\n      <p>How sure are you?</p>\n      <p>Rate your confidence in your answer from 1 (pure guess) to 5 (very sure) by pressing the corresponding button.</p>\n     ","response":4,"image":"img/apple_alternate.jpg","task":"confidence","old_or_new":"new","trial_type":"html-button-response","trial_index":56,"time_elapsed":135970,"internal_node_id":"0.0-3.0-1.26","subject_id":"5fc6dc05e27b9c3fcd90c3c2","study_id":"607de2837874a824e2e8c6ec","session_id":"6088504812513218dbf2d8c7"},{"rt":1360.5199999874458,"stimulus":"img/hourglass_alternate.jpg","response":"n","image":"img/hourglass_alternate.jpg","old_or_new":"new","task":"recognition","trial_type":"image-keyboard-response","trial_index":57,"time_elapsed":137841,"internal_node_id":"0.0-3.0-0.27","subject_id":"5fc6dc05e27b9c3fcd90c3c2","study_id":"607de2837874a824e2e8c6ec","session_id":"6088504812513218dbf2d8c7","correct":true},{"rt":1461.0149999789428,"stimulus":"\n      <p>How sure are you?</p>\n      <p>Rate your confidence in your answer from 1 (pure guess) to 5 (very sure) by pressing the corresponding button.</p>\n     ","response":4,"image":"img/hourglass_alternate.jpg","task":"confidence","old_or_new":"new","trial_type":"html-button-response","trial_index":58,"time_elapsed":139303,"internal_node_id":"0.0-3.0-1.27","subject_id":"5fc6dc05e27b9c3fcd90c3c2","study_id":"607de2837874a824e2e8c6ec","session_id":"6088504812513218dbf2d8c7"},{"rt":1114.0500000037719,"stimulus":"img/leaf.jpg","response":"y","image":"img/leaf.jpg","old_or_new":"old","task":"recognition","trial_type":"image-keyboard-response","trial_index":59,"time_elapsed":140932,"internal_node_id":"0.0-3.0-0.28","subject_id":"5fc6dc05e27b9c3fcd90c3c2","study_id":"607de2837874a824e2e8c6ec","session_id":"6088504812513218dbf2d8c7","correct":true},{"rt":1626.1750000121538,"stimulus":"\n      <p>How sure are you?</p>\n      <p>Rate your confidence in your answer from 1 (pure guess) to 5 (very sure) by pressing the corresponding button.</p>\n     ","response":4,"image":"img/leaf.jpg","task":"confidence","old_or_new":"old","trial_type":"html-button-response","trial_index":60,"time_elapsed":142559,"internal_node_id":"0.0-3.0-1.28","subject_id":"5fc6dc05e27b9c3fcd90c3c2","study_id":"607de2837874a824e2e8c6ec","session_id":"6088504812513218dbf2d8c7"},{"rt":1303.2399999792688,"stimulus":"img/drum.jpg","response":"y","image":"img/drum.jpg","old_or_new":"old","task":"recognition","trial_type":"image-keyboard-response","trial_index":61,"time_elapsed":144378,"internal_node_id":"0.0-3.0-0.29","subject_id":"5fc6dc05e27b9c3fcd90c3c2","study_id":"607de2837874a824e2e8c6ec","session_id":"6088504812513218dbf2d8c7","correct":true},{"rt":1412.7099999750499,"stimulus":"\n      <p>How sure are you?</p>\n      <p>Rate your confidence in your answer from 1 (pure guess) to 5 (very sure) by pressing the corresponding button.</p>\n     ","response":4,"image":"img/drum.jpg","task":"confidence","old_or_new":"old","trial_type":"html-button-response","trial_index":62,"time_elapsed":145792,"internal_node_id":"0.0-3.0-1.29","subject_id":"5fc6dc05e27b9c3fcd90c3c2","study_id":"607de2837874a824e2e8c6ec","session_id":"6088504812513218dbf2d8c7"},{"rt":3172.580000013113,"stimulus":"img/glasses_alternate.jpg","response":"n","image":"img/glasses_alternate.jpg","old_or_new":"new","task":"recognition","trial_type":"image-keyboard-response","trial_index":63,"time_elapsed":149473,"internal_node_id":"0.0-3.0-0.30","subject_id":"5fc6dc05e27b9c3fcd90c3c2","study_id":"607de2837874a824e2e8c6ec","session_id":"6088504812513218dbf2d8c7","correct":true},{"rt":1262.9499999748077,"stimulus":"\n      <p>How sure are you?</p>\n      <p>Rate your confidence in your answer from 1 (pure guess) to 5 (very sure) by pressing the corresponding button.</p>\n     ","response":4,"image":"img/glasses_alternate.jpg","task":"confidence","old_or_new":"new","trial_type":"html-button-response","trial_index":64,"time_elapsed":150737,"internal_node_id":"0.0-3.0-1.30","subject_id":"5fc6dc05e27b9c3fcd90c3c2","study_id":"607de2837874a824e2e8c6ec","session_id":"6088504812513218dbf2d8c7"},{"rt":1181.4650000014808,"stimulus":"img/hat.jpg","response":"y","image":"img/hat.jpg","old_or_new":"old","task":"recognition","trial_type":"image-keyboard-response","trial_index":65,"time_elapsed":152429,"internal_node_id":"0.0-3.0-0.31","subject_id":"5fc6dc05e27b9c3fcd90c3c2","study_id":"607de2837874a824e2e8c6ec","session_id":"6088504812513218dbf2d8c7","correct":true},{"rt":1562.4150000221562,"stimulus":"\n      <p>How sure are you?</p>\n      <p>Rate your confidence in your answer from 1 (pure guess) to 5 (very sure) by pressing the corresponding button.</p>\n     ","response":4,"image":"img/hat.jpg","task":"confidence","old_or_new":"old","trial_type":"html-button-response","trial_index":66,"time_elapsed":153993,"internal_node_id":"0.0-3.0-1.31","subject_id":"5fc6dc05e27b9c3fcd90c3c2","study_id":"607de2837874a824e2e8c6ec","session_id":"6088504812513218dbf2d8c7"},{"rt":879.4950000010431,"stimulus":"img/backpack.jpg","response":"y","image":"img/backpack.jpg","old_or_new":"old","task":"recognition","trial_type":"image-keyboard-response","trial_index":67,"time_elapsed":155384,"internal_node_id":"0.0-3.0-0.32","subject_id":"5fc6dc05e27b9c3fcd90c3c2","study_id":"607de2837874a824e2e8c6ec","session_id":"6088504812513218dbf2d8c7","correct":true},{"rt":1315.4600000125356,"stimulus":"\n      <p>How sure are you?</p>\n      <p>Rate your confidence in your answer from 1 (pure guess) to 5 (very sure) by pressing the corresponding button.</p>\n     ","response":4,"image":"img/backpack.jpg","task":"confidence","old_or_new":"old","trial_type":"html-button-response","trial_index":68,"time_elapsed":156701,"internal_node_id":"0.0-3.0-1.32","subject_id":"5fc6dc05e27b9c3fcd90c3c2","study_id":"607de2837874a824e2e8c6ec","session_id":"6088504812513218dbf2d8c7"},{"rt":1069.759999983944,"stimulus":"img/helmet.jpg","response":"y","image":"img/helmet.jpg","old_or_new":"old","task":"recognition","trial_type":"image-keyboard-response","trial_index":69,"time_elapsed":158282,"internal_node_id":"0.0-3.0-0.33","subject_id":"5fc6dc05e27b9c3fcd90c3c2","study_id":"607de2837874a824e2e8c6ec","session_id":"6088504812513218dbf2d8c7","correct":true},{"rt":1542.4200000124983,"stimulus":"\n      <p>How sure are you?</p>\n      <p>Rate your confidence in your answer from 1 (pure guess) to 5 (very sure) by pressing the corresponding button.</p>\n     ","response":4,"image":"img/helmet.jpg","task":"confidence","old_or_new":"old","trial_type":"html-button-response","trial_index":70,"time_elapsed":159825,"internal_node_id":"0.0-3.0-1.33","subject_id":"5fc6dc05e27b9c3fcd90c3c2","study_id":"607de2837874a824e2e8c6ec","session_id":"6088504812513218dbf2d8c7"},{"rt":1163.059999991674,"stimulus":"img/calculator_alternate.jpg","response":"n","image":"img/calculator_alternate.jpg","old_or_new":"new","task":"recognition","trial_type":"image-keyboard-response","trial_index":71,"time_elapsed":161491,"internal_node_id":"0.0-3.0-0.34","subject_id":"5fc6dc05e27b9c3fcd90c3c2","study_id":"607de2837874a824e2e8c6ec","session_id":"6088504812513218dbf2d8c7","correct":true},{"rt":1225.8199999923818,"stimulus":"\n      <p>How sure are you?</p>\n      <p>Rate your confidence in your answer from 1 (pure guess) to 5 (very sure) by pressing the corresponding button.</p>\n     ","response":4,"image":"img/calculator_alternate.jpg","task":"confidence","old_or_new":"new","trial_type":"html-button-response","trial_index":72,"time_elapsed":162718,"internal_node_id":"0.0-3.0-1.34","subject_id":"5fc6dc05e27b9c3fcd90c3c2","study_id":"607de2837874a824e2e8c6ec","session_id":"6088504812513218dbf2d8c7"},{"rt":2242.1850000100676,"stimulus":"img/camera.jpg","response":"y","image":"img/camera.jpg","old_or_new":"old","task":"recognition","trial_type":"image-keyboard-response","trial_index":73,"time_elapsed":165466,"internal_node_id":"0.0-3.0-0.35","subject_id":"5fc6dc05e27b9c3fcd90c3c2","study_id":"607de2837874a824e2e8c6ec","session_id":"6088504812513218dbf2d8c7","correct":true},{"rt":1433.1550000060815,"stimulus":"\n      <p>How sure are you?</p>\n      <p>Rate your confidence in your answer from 1 (pure guess) to 5 (very sure) by pressing the corresponding button.</p>\n     ","response":3,"image":"img/camera.jpg","task":"confidence","old_or_new":"old","trial_type":"html-button-response","trial_index":74,"time_elapsed":166901,"internal_node_id":"0.0-3.0-1.35","subject_id":"5fc6dc05e27b9c3fcd90c3c2","study_id":"607de2837874a824e2e8c6ec","session_id":"6088504812513218dbf2d8c7"},{"rt":1206.480000022566,"stimulus":"img/hairbrush.jpg","response":"y","image":"img/hairbrush.jpg","old_or_new":"old","task":"recognition","trial_type":"image-keyboard-response","trial_index":75,"time_elapsed":168609,"internal_node_id":"0.0-3.0-0.36","subject_id":"5fc6dc05e27b9c3fcd90c3c2","study_id":"607de2837874a824e2e8c6ec","session_id":"6088504812513218dbf2d8c7","correct":true},{"rt":1175.4650000075344,"stimulus":"\n      <p>How sure are you?</p>\n      <p>Rate your confidence in your answer from 1 (pure guess) to 5 (very sure) by pressing the corresponding button.</p>\n     ","response":4,"image":"img/hairbrush.jpg","task":"confidence","old_or_new":"old","trial_type":"html-button-response","trial_index":76,"time_elapsed":169786,"internal_node_id":"0.0-3.0-1.36","subject_id":"5fc6dc05e27b9c3fcd90c3c2","study_id":"607de2837874a824e2e8c6ec","session_id":"6088504812513218dbf2d8c7"},{"rt":1209.8349999869242,"stimulus":"img/bowl_alternate.jpg","response":"n","image":"img/bowl_alternate.jpg","old_or_new":"new","task":"recognition","trial_type":"image-keyboard-response","trial_index":77,"time_elapsed":171513,"internal_node_id":"0.0-3.0-0.37","subject_id":"5fc6dc05e27b9c3fcd90c3c2","study_id":"607de2837874a824e2e8c6ec","session_id":"6088504812513218dbf2d8c7","correct":true},{"rt":1318.2300000044052,"stimulus":"\n      <p>How sure are you?</p>\n      <p>Rate your confidence in your answer from 1 (pure guess) to 5 (very sure) by pressing the corresponding button.</p>\n     ","response":4,"image":"img/bowl_alternate.jpg","task":"confidence","old_or_new":"new","trial_type":"html-button-response","trial_index":78,"time_elapsed":172832,"internal_node_id":"0.0-3.0-1.37","subject_id":"5fc6dc05e27b9c3fcd90c3c2","study_id":"607de2837874a824e2e8c6ec","session_id":"6088504812513218dbf2d8c7"},{"rt":1255.2450000075623,"stimulus":"img/coin_alternate.jpg","response":"n","image":"img/coin_alternate.jpg","old_or_new":"new","task":"recognition","trial_type":"image-keyboard-response","trial_index":79,"time_elapsed":174602,"internal_node_id":"0.0-3.0-0.38","subject_id":"5fc6dc05e27b9c3fcd90c3c2","study_id":"607de2837874a824e2e8c6ec","session_id":"6088504812513218dbf2d8c7","correct":true},{"rt":1067.5249999912921,"stimulus":"\n      <p>How sure are you?</p>\n      <p>Rate your confidence in your answer from 1 (pure guess) to 5 (very sure) by pressing the corresponding button.</p>\n     ","response":4,"image":"img/coin_alternate.jpg","task":"confidence","old_or_new":"new","trial_type":"html-button-response","trial_index":80,"time_elapsed":175671,"internal_node_id":"0.0-3.0-1.38","subject_id":"5fc6dc05e27b9c3fcd90c3c2","study_id":"607de2837874a824e2e8c6ec","session_id":"6088504812513218dbf2d8c7"},{"rt":1102.1999999938998,"stimulus":"img/folder.jpg","response":"y","image":"img/folder.jpg","old_or_new":"old","task":"recognition","trial_type":"image-keyboard-response","trial_index":81,"time_elapsed":177278,"internal_node_id":"0.0-3.0-0.39","subject_id":"5fc6dc05e27b9c3fcd90c3c2","study_id":"607de2837874a824e2e8c6ec","session_id":"6088504812513218dbf2d8c7","correct":true},{"rt":1686.0149999847636,"stimulus":"\n      <p>How sure are you?</p>\n      <p>Rate your confidence in your answer from 1 (pure guess) to 5 (very sure) by pressing the corresponding button.</p>\n     ","response":4,"image":"img/folder.jpg","task":"confidence","old_or_new":"old","trial_type":"html-button-response","trial_index":82,"time_elapsed":178966,"internal_node_id":"0.0-3.0-1.39","subject_id":"5fc6dc05e27b9c3fcd90c3c2","study_id":"607de2837874a824e2e8c6ec","session_id":"6088504812513218dbf2d8c7"},{"rt":1077.1200000017416,"stimulus":"img/chair.jpg","response":"y","image":"img/chair.jpg","old_or_new":"old","task":"recognition","trial_type":"image-keyboard-response","trial_index":83,"time_elapsed":180555,"internal_node_id":"0.0-3.0-0.40","subject_id":"5fc6dc05e27b9c3fcd90c3c2","study_id":"607de2837874a824e2e8c6ec","session_id":"6088504812513218dbf2d8c7","correct":true},{"rt":1456.5350000048056,"stimulus":"\n      <p>How sure are you?</p>\n      <p>Rate your confidence in your answer from 1 (pure guess) to 5 (very sure) by pressing the corresponding button.</p>\n     ","response":4,"image":"img/chair.jpg","task":"confidence","old_or_new":"old","trial_type":"html-button-response","trial_index":84,"time_elapsed":182012,"internal_node_id":"0.0-3.0-1.40","subject_id":"5fc6dc05e27b9c3fcd90c3c2","study_id":"607de2837874a824e2e8c6ec","session_id":"6088504812513218dbf2d8c7"},{"rt":1026.4399999869056,"stimulus":"img/bowl.jpg","response":"y","image":"img/bowl.jpg","old_or_new":"old","task":"recognition","trial_type":"image-keyboard-response","trial_index":85,"time_elapsed":183556,"internal_node_id":"0.0-3.0-0.41","subject_id":"5fc6dc05e27b9c3fcd90c3c2","study_id":"607de2837874a824e2e8c6ec","session_id":"6088504812513218dbf2d8c7","correct":true},{"rt":1232.3750000214204,"stimulus":"\n      <p>How sure are you?</p>\n      <p>Rate your confidence in your answer from 1 (pure guess) to 5 (very sure) by pressing the corresponding button.</p>\n     ","response":4,"image":"img/bowl.jpg","task":"confidence","old_or_new":"old","trial_type":"html-button-response","trial_index":86,"time_elapsed":184789,"internal_node_id":"0.0-3.0-1.41","subject_id":"5fc6dc05e27b9c3fcd90c3c2","study_id":"607de2837874a824e2e8c6ec","session_id":"6088504812513218dbf2d8c7"},{"rt":1052.5550000020303,"stimulus":"img/ladder_alternate.jpg","response":"n","image":"img/ladder_alternate.jpg","old_or_new":"new","task":"recognition","trial_type":"image-keyboard-response","trial_index":87,"time_elapsed":186354,"internal_node_id":"0.0-3.0-0.42","subject_id":"5fc6dc05e27b9c3fcd90c3c2","study_id":"607de2837874a824e2e8c6ec","session_id":"6088504812513218dbf2d8c7","correct":true},{"rt":1674.8249999945983,"stimulus":"\n      <p>How sure are you?</p>\n      <p>Rate your confidence in your answer from 1 (pure guess) to 5 (very sure) by pressing the corresponding button.</p>\n     ","response":4,"image":"img/ladder_alternate.jpg","task":"confidence","old_or_new":"new","trial_type":"html-button-response","trial_index":88,"time_elapsed":188030,"internal_node_id":"0.0-3.0-1.42","subject_id":"5fc6dc05e27b9c3fcd90c3c2","study_id":"607de2837874a824e2e8c6ec","session_id":"6088504812513218dbf2d8c7"},{"rt":1396.0599999991246,"stimulus":"img/helmet_alternate.jpg","response":"n","image":"img/helmet_alternate.jpg","old_or_new":"new","task":"recognition","trial_type":"image-keyboard-response","trial_index":89,"time_elapsed":189928,"internal_node_id":"0.0-3.0-0.43","subject_id":"5fc6dc05e27b9c3fcd90c3c2","study_id":"607de2837874a824e2e8c6ec","session_id":"6088504812513218dbf2d8c7","correct":true},{"rt":1055.1900000136811,"stimulus":"\n      <p>How sure are you?</p>\n      <p>Rate your confidence in your answer from 1 (pure guess) to 5 (very sure) by pressing the corresponding button.</p>\n     ","response":4,"image":"img/helmet_alternate.jpg","task":"confidence","old_or_new":"new","trial_type":"html-button-response","trial_index":90,"time_elapsed":190984,"internal_node_id":"0.0-3.0-1.43","subject_id":"5fc6dc05e27b9c3fcd90c3c2","study_id":"607de2837874a824e2e8c6ec","session_id":"6088504812513218dbf2d8c7"},{"rt":2163.8349999848288,"stimulus":"img/hat_alternate.jpg","response":"n","image":"img/hat_alternate.jpg","old_or_new":"new","task":"recognition","trial_type":"image-keyboard-response","trial_index":91,"time_elapsed":193652,"internal_node_id":"0.0-3.0-0.44","subject_id":"5fc6dc05e27b9c3fcd90c3c2","study_id":"607de2837874a824e2e8c6ec","session_id":"6088504812513218dbf2d8c7","correct":true},{"rt":1575.0499999849126,"stimulus":"\n      <p>How sure are you?</p>\n      <p>Rate your confidence in your answer from 1 (pure guess) to 5 (very sure) by pressing the corresponding button.</p>\n     ","response":3,"image":"img/hat_alternate.jpg","task":"confidence","old_or_new":"new","trial_type":"html-button-response","trial_index":92,"time_elapsed":195228,"internal_node_id":"0.0-3.0-1.44","subject_id":"5fc6dc05e27b9c3fcd90c3c2","study_id":"607de2837874a824e2e8c6ec","session_id":"6088504812513218dbf2d8c7"},{"rt":2248.475000000326,"stimulus":"img/dryer.jpg","response":"y","image":"img/dryer.jpg","old_or_new":"old","task":"recognition","trial_type":"image-keyboard-response","trial_index":93,"time_elapsed":197979,"internal_node_id":"0.0-3.0-0.45","subject_id":"5fc6dc05e27b9c3fcd90c3c2","study_id":"607de2837874a824e2e8c6ec","session_id":"6088504812513218dbf2d8c7","correct":true},{"rt":1328.8900000043213,"stimulus":"\n      <p>How sure are you?</p>\n      <p>Rate your confidence in your answer from 1 (pure guess) to 5 (very sure) by pressing the corresponding button.</p>\n     ","response":4,"image":"img/dryer.jpg","task":"confidence","old_or_new":"old","trial_type":"html-button-response","trial_index":94,"time_elapsed":199309,"internal_node_id":"0.0-3.0-1.45","subject_id":"5fc6dc05e27b9c3fcd90c3c2","study_id":"607de2837874a824e2e8c6ec","session_id":"6088504812513218dbf2d8c7"},{"rt":1211.7399999988265,"stimulus":"img/lightbulb.jpg","response":"y","image":"img/lightbulb.jpg","old_or_new":"old","task":"recognition","trial_type":"image-keyboard-response","trial_index":95,"time_elapsed":201023,"internal_node_id":"0.0-3.0-0.46","subject_id":"5fc6dc05e27b9c3fcd90c3c2","study_id":"607de2837874a824e2e8c6ec","session_id":"6088504812513218dbf2d8c7","correct":true},{"rt":1632.7600000076927,"stimulus":"\n      <p>How sure are you?</p>\n      <p>Rate your confidence in your answer from 1 (pure guess) to 5 (very sure) by pressing the corresponding button.</p>\n     ","response":4,"image":"img/lightbulb.jpg","task":"confidence","old_or_new":"old","trial_type":"html-button-response","trial_index":96,"time_elapsed":202657,"internal_node_id":"0.0-3.0-1.46","subject_id":"5fc6dc05e27b9c3fcd90c3c2","study_id":"607de2837874a824e2e8c6ec","session_id":"6088504812513218dbf2d8c7"},{"rt":958.310000016354,"stimulus":"img/glasses.jpg","response":"y","image":"img/glasses.jpg","old_or_new":"old","task":"recognition","trial_type":"image-keyboard-response","trial_index":97,"time_elapsed":204123,"internal_node_id":"0.0-3.0-0.47","subject_id":"5fc6dc05e27b9c3fcd90c3c2","study_id":"607de2837874a824e2e8c6ec","session_id":"6088504812513218dbf2d8c7","correct":true},{"rt":1379.5300000056159,"stimulus":"\n      <p>How sure are you?</p>\n      <p>Rate your confidence in your answer from 1 (pure guess) to 5 (very sure) by pressing the corresponding button.</p>\n     ","response":4,"image":"img/glasses.jpg","task":"confidence","old_or_new":"old","trial_type":"html-button-response","trial_index":98,"time_elapsed":205504,"internal_node_id":"0.0-3.0-1.47","subject_id":"5fc6dc05e27b9c3fcd90c3c2","study_id":"607de2837874a824e2e8c6ec","session_id":"6088504812513218dbf2d8c7"}]