[{"success":true,"timeout":false,"failed_images":[],"failed_audio":[],"failed_video":[],"trial_type":"preload","trial_index":0,"time_elapsed":10943,"internal_node_id":"0.0-0.0","subject_id":"605211b8ebd0a5605f0f961b","study_id":"606233c0e42b980319b6a18e","session_id":"608838a68412db48b6b0fbe0"},{"rt":25360.78500000076,"stimulus":"\n      <div style=\"width:800px; text-align: left;\">\n        <p>Welcome to day 2 of the experiment! Thanks for coming back.</p>\n        <p>You will be presented with a series of images. Images will appear one at a time.</p>\n        <p>Each image will remain on the screen until you press either <span style=\"font-weight: bold;\">\"y\" to indicate you have seen the \n        exact same photo the day before or \"n\" to indicate you have not seen the exact same photo the day before.</span></p>\n        <p>After you answer yes (\"y\") or no (\"n\"), you will then be prompted to rate your certainty on a scale of\n        1 (pure guess) to 5 (very sure).</p>\n      </div>\n    ","response":0,"trial_type":"html-button-response","trial_index":1,"time_elapsed":36306,"internal_node_id":"0.0-1.0","subject_id":"605211b8ebd0a5605f0f961b","study_id":"606233c0e42b980319b6a18e","session_id":"608838a68412db48b6b0fbe0"},{"success":true,"trial_type":"fullscreen","trial_index":2,"time_elapsed":38288,"internal_node_id":"0.0-2.0","subject_id":"605211b8ebd0a5605f0f961b","study_id":"606233c0e42b980319b6a18e","session_id":"608838a68412db48b6b0fbe0"},{"rt":1434.150000000045,"stimulus":"img/yarn.jpg","response":"y","image":"img/yarn.jpg","old_or_new":"old","task":"recognition","trial_type":"image-keyboard-response","trial_index":3,"time_elapsed":39740,"internal_node_id":"0.0-3.0-0.0","subject_id":"605211b8ebd0a5605f0f961b","study_id":"606233c0e42b980319b6a18e","session_id":"608838a68412db48b6b0fbe0","correct":true},{"rt":1882.4650000005931,"stimulus":"\n      <p>How sure are you?</p>\n      <p>Rate your confidence in your answer from 1 (pure guess) to 5 (very sure) by pressing the corresponding button.</p>\n     ","response":4,"image":"img/yarn.jpg","task":"confidence","old_or_new":"old","trial_type":"html-button-response","trial_index":4,"time_elapsed":41624,"internal_node_id":"0.0-3.0-1.0","subject_id":"605211b8ebd0a5605f0f961b","study_id":"606233c0e42b980319b6a18e","session_id":"608838a68412db48b6b0fbe0"},{"rt":1235.569999999825,"stimulus":"img/umbrella.jpg","response":"y","image":"img/umbrella.jpg","old_or_new":"old","task":"recognition","trial_type":"image-keyboard-response","trial_index":5,"time_elapsed":43362,"internal_node_id":"0.0-3.0-0.1","subject_id":"605211b8ebd0a5605f0f961b","study_id":"606233c0e42b980319b6a18e","session_id":"608838a68412db48b6b0fbe0","correct":true},{"rt":1466.2349999998696,"stimulus":"\n      <p>How sure are you?</p>\n      <p>Rate your confidence in your answer from 1 (pure guess) to 5 (very sure) by pressing the corresponding button.</p>\n     ","response":4,"image":"img/umbrella.jpg","task":"confidence","old_or_new":"old","trial_type":"html-button-response","trial_index":6,"time_elapsed":44830,"internal_node_id":"0.0-3.0-1.1","subject_id":"605211b8ebd0a5605f0f961b","study_id":"606233c0e42b980319b6a18e","session_id":"608838a68412db48b6b0fbe0"},{"rt":1591.0499999999956,"stimulus":"img/rolling_pin_alternate.jpg","response":"n","image":"img/rolling_pin_alternate.jpg","old_or_new":"new","task":"recognition","trial_type":"image-keyboard-response","trial_index":7,"time_elapsed":46923,"internal_node_id":"0.0-3.0-0.2","subject_id":"605211b8ebd0a5605f0f961b","study_id":"606233c0e42b980319b6a18e","session_id":"608838a68412db48b6b0fbe0","correct":true},{"rt":1246.8950000002224,"stimulus":"\n      <p>How sure are you?</p>\n      <p>Rate your confidence in your answer from 1 (pure guess) to 5 (very sure) by pressing the corresponding button.</p>\n     ","response":4,"image":"img/rolling_pin_alternate.jpg","task":"confidence","old_or_new":"new","trial_type":"html-button-response","trial_index":8,"time_elapsed":48172,"internal_node_id":"0.0-3.0-1.2","subject_id":"605211b8ebd0a5605f0f961b","study_id":"606233c0e42b980319b6a18e","session_id":"608838a68412db48b6b0fbe0"},{"rt":1376.0249999995722,"stimulus":"img/spoon_alternate.jpg","response":"n","image":"img/spoon_alternate.jpg","old_or_new":"new","task":"recognition","trial_type":"image-keyboard-response","trial_index":9,"time_elapsed":50059,"internal_node_id":"0.0-3.0-0.3","subject_id":"605211b8ebd0a5605f0f961b","study_id":"606233c0e42b980319b6a18e","session_id":"608838a68412db48b6b0fbe0","correct":true},{"rt":1025.9449999994104,"stimulus":"\n      <p>How sure are you?</p>\n      <p>Rate your confidence in your answer from 1 (pure guess) to 5 (very sure) by pressing the corresponding button.</p>\n     ","response":4,"image":"img/spoon_alternate.jpg","task":"confidence","old_or_new":"new","trial_type":"html-button-response","trial_index":10,"time_elapsed":51086,"internal_node_id":"0.0-3.0-1.3","subject_id":"605211b8ebd0a5605f0f961b","study_id":"606233c0e42b980319b6a18e","session_id":"608838a68412db48b6b0fbe0"},{"rt":2343.565000000126,"stimulus":"img/pizza_alternate.jpg","response":"n","image":"img/pizza_alternate.jpg","old_or_new":"new","task":"recognition","trial_type":"image-keyboard-response","trial_index":11,"time_elapsed":53932,"internal_node_id":"0.0-3.0-0.4","subject_id":"605211b8ebd0a5605f0f961b","study_id":"606233c0e42b980319b6a18e","session_id":"608838a68412db48b6b0fbe0","correct":true},{"rt":1557.0200000001932,"stimulus":"\n      <p>How sure are you?</p>\n      <p>Rate your confidence in your answer from 1 (pure guess) to 5 (very sure) by pressing the corresponding button.</p>\n     ","response":4,"image":"img/pizza_alternate.jpg","task":"confidence","old_or_new":"new","trial_type":"html-button-response","trial_index":12,"time_elapsed":55490,"internal_node_id":"0.0-3.0-1.4","subject_id":"605211b8ebd0a5605f0f961b","study_id":"606233c0e42b980319b6a18e","session_id":"608838a68412db48b6b0fbe0"},{"rt":1424.9399999998786,"stimulus":"img/toothbrush_alternate.jpg","response":"y","image":"img/toothbrush_alternate.jpg","old_or_new":"new","task":"recognition","trial_type":"image-keyboard-response","trial_index":13,"time_elapsed":57419,"internal_node_id":"0.0-3.0-0.5","subject_id":"605211b8ebd0a5605f0f961b","study_id":"606233c0e42b980319b6a18e","session_id":"608838a68412db48b6b0fbe0","correct":false},{"rt":1274.9549999998635,"stimulus":"\n      <p>How sure are you?</p>\n      <p>Rate your confidence in your answer from 1 (pure guess) to 5 (very sure) by pressing the corresponding button.</p>\n     ","response":4,"image":"img/toothbrush_alternate.jpg","task":"confidence","old_or_new":"new","trial_type":"html-button-response","trial_index":14,"time_elapsed":58695,"internal_node_id":"0.0-3.0-1.5","subject_id":"605211b8ebd0a5605f0f961b","study_id":"606233c0e42b980319b6a18e","session_id":"608838a68412db48b6b0fbe0"},{"rt":1029.25999999934,"stimulus":"img/skates_alternate.jpg","response":"n","image":"img/skates_alternate.jpg","old_or_new":"new","task":"recognition","trial_type":"image-keyboard-response","trial_index":15,"time_elapsed":60226,"internal_node_id":"0.0-3.0-0.6","subject_id":"605211b8ebd0a5605f0f961b","study_id":"606233c0e42b980319b6a18e","session_id":"608838a68412db48b6b0fbe0","correct":true},{"rt":1491.0949999994045,"stimulus":"\n      <p>How sure are you?</p>\n      <p>Rate your confidence in your answer from 1 (pure guess) to 5 (very sure) by pressing the corresponding button.</p>\n     ","response":4,"image":"img/skates_alternate.jpg","task":"confidence","old_or_new":"new","trial_type":"html-button-response","trial_index":16,"time_elapsed":61719,"internal_node_id":"0.0-3.0-1.6","subject_id":"605211b8ebd0a5605f0f961b","study_id":"606233c0e42b980319b6a18e","session_id":"608838a68412db48b6b0fbe0"},{"rt":1292.265000000043,"stimulus":"img/scissors_alternate.jpg","response":"n","image":"img/scissors_alternate.jpg","old_or_new":"new","task":"recognition","trial_type":"image-keyboard-response","trial_index":17,"time_elapsed":63513,"internal_node_id":"0.0-3.0-0.7","subject_id":"605211b8ebd0a5605f0f961b","study_id":"606233c0e42b980319b6a18e","session_id":"608838a68412db48b6b0fbe0","correct":true},{"rt":1328.139999999621,"stimulus":"\n      <p>How sure are you?</p>\n      <p>Rate your confidence in your answer from 1 (pure guess) to 5 (very sure) by pressing the corresponding button.</p>\n     ","response":4,"image":"img/scissors_alternate.jpg","task":"confidence","old_or_new":"new","trial_type":"html-button-response","trial_index":18,"time_elapsed":64843,"internal_node_id":"0.0-3.0-1.7","subject_id":"605211b8ebd0a5605f0f961b","study_id":"606233c0e42b980319b6a18e","session_id":"608838a68412db48b6b0fbe0"},{"rt":2922.16499999995,"stimulus":"img/pencil_sharpener_alternate.jpg","response":"n","image":"img/pencil_sharpener_alternate.jpg","old_or_new":"new","task":"recognition","trial_type":"image-keyboard-response","trial_index":19,"time_elapsed":68274,"internal_node_id":"0.0-3.0-0.8","subject_id":"605211b8ebd0a5605f0f961b","study_id":"606233c0e42b980319b6a18e","session_id":"608838a68412db48b6b0fbe0","correct":true},{"rt":2259.4450000006036,"stimulus":"\n      <p>How sure are you?</p>\n      <p>Rate your confidence in your answer from 1 (pure guess) to 5 (very sure) by pressing the corresponding button.</p>\n     ","response":2,"image":"img/pencil_sharpener_alternate.jpg","task":"confidence","old_or_new":"new","trial_type":"html-button-response","trial_index":20,"time_elapsed":70535,"internal_node_id":"0.0-3.0-1.8","subject_id":"605211b8ebd0a5605f0f961b","study_id":"606233c0e42b980319b6a18e","session_id":"608838a68412db48b6b0fbe0"},{"rt":1166.1350000004022,"stimulus":"img/power_cord.jpg","response":"y","image":"img/power_cord.jpg","old_or_new":"old","task":"recognition","trial_type":"image-keyboard-response","trial_index":21,"time_elapsed":72218,"internal_node_id":"0.0-3.0-0.9","subject_id":"605211b8ebd0a5605f0f961b","study_id":"606233c0e42b980319b6a18e","session_id":"608838a68412db48b6b0fbe0","correct":true},{"rt":1135.920000000624,"stimulus":"\n      <p>How sure are you?</p>\n      <p>Rate your confidence in your answer from 1 (pure guess) to 5 (very sure) by pressing the corresponding button.</p>\n     ","response":4,"image":"img/power_cord.jpg","task":"confidence","old_or_new":"old","trial_type":"html-button-response","trial_index":22,"time_elapsed":73355,"internal_node_id":"0.0-3.0-1.9","subject_id":"605211b8ebd0a5605f0f961b","study_id":"606233c0e42b980319b6a18e","session_id":"608838a68412db48b6b0fbe0"},{"rt":1143.0849999997008,"stimulus":"img/shirt_alternate.jpg","response":"n","image":"img/shirt_alternate.jpg","old_or_new":"new","task":"recognition","trial_type":"image-keyboard-response","trial_index":23,"time_elapsed":75003,"internal_node_id":"0.0-3.0-0.10","subject_id":"605211b8ebd0a5605f0f961b","study_id":"606233c0e42b980319b6a18e","session_id":"608838a68412db48b6b0fbe0","correct":true},{"rt":901.3350000004866,"stimulus":"\n      <p>How sure are you?</p>\n      <p>Rate your confidence in your answer from 1 (pure guess) to 5 (very sure) by pressing the corresponding button.</p>\n     ","response":4,"image":"img/shirt_alternate.jpg","task":"confidence","old_or_new":"new","trial_type":"html-button-response","trial_index":24,"time_elapsed":75905,"internal_node_id":"0.0-3.0-1.10","subject_id":"605211b8ebd0a5605f0f961b","study_id":"606233c0e42b980319b6a18e","session_id":"608838a68412db48b6b0fbe0"},{"rt":993.759999999369,"stimulus":"img/plane_alternate.jpg","response":"n","image":"img/plane_alternate.jpg","old_or_new":"new","task":"recognition","trial_type":"image-keyboard-response","trial_index":25,"time_elapsed":77401,"internal_node_id":"0.0-3.0-0.11","subject_id":"605211b8ebd0a5605f0f961b","study_id":"606233c0e42b980319b6a18e","session_id":"608838a68412db48b6b0fbe0","correct":true},{"rt":1070.5950000001467,"stimulus":"\n      <p>How sure are you?</p>\n      <p>Rate your confidence in your answer from 1 (pure guess) to 5 (very sure) by pressing the corresponding button.</p>\n     ","response":4,"image":"img/plane_alternate.jpg","task":"confidence","old_or_new":"new","trial_type":"html-button-response","trial_index":26,"time_elapsed":78473,"internal_node_id":"0.0-3.0-1.11","subject_id":"605211b8ebd0a5605f0f961b","study_id":"606233c0e42b980319b6a18e","session_id":"608838a68412db48b6b0fbe0"},{"rt":938.6599999997998,"stimulus":"img/sink_alternate.jpg","response":"n","image":"img/sink_alternate.jpg","old_or_new":"new","task":"recognition","trial_type":"image-keyboard-response","trial_index":27,"time_elapsed":79915,"internal_node_id":"0.0-3.0-0.12","subject_id":"605211b8ebd0a5605f0f961b","study_id":"606233c0e42b980319b6a18e","session_id":"608838a68412db48b6b0fbe0","correct":true},{"rt":1150.3000000002357,"stimulus":"\n      <p>How sure are you?</p>\n      <p>Rate your confidence in your answer from 1 (pure guess) to 5 (very sure) by pressing the corresponding button.</p>\n     ","response":4,"image":"img/sink_alternate.jpg","task":"confidence","old_or_new":"new","trial_type":"html-button-response","trial_index":28,"time_elapsed":81066,"internal_node_id":"0.0-3.0-1.12","subject_id":"605211b8ebd0a5605f0f961b","study_id":"606233c0e42b980319b6a18e","session_id":"608838a68412db48b6b0fbe0"},{"rt":1507.5900000001566,"stimulus":"img/tv.jpg","response":"y","image":"img/tv.jpg","old_or_new":"old","task":"recognition","trial_type":"image-keyboard-response","trial_index":29,"time_elapsed":83084,"internal_node_id":"0.0-3.0-0.13","subject_id":"605211b8ebd0a5605f0f961b","study_id":"606233c0e42b980319b6a18e","session_id":"608838a68412db48b6b0fbe0","correct":true},{"rt":886.2949999993289,"stimulus":"\n      <p>How sure are you?</p>\n      <p>Rate your confidence in your answer from 1 (pure guess) to 5 (very sure) by pressing the corresponding button.</p>\n     ","response":4,"image":"img/tv.jpg","task":"confidence","old_or_new":"old","trial_type":"html-button-response","trial_index":30,"time_elapsed":83972,"internal_node_id":"0.0-3.0-1.13","subject_id":"605211b8ebd0a5605f0f961b","study_id":"606233c0e42b980319b6a18e","session_id":"608838a68412db48b6b0fbe0"},{"rt":1102.1149999996705,"stimulus":"img/power_cord_alternate.jpg","response":"n","image":"img/power_cord_alternate.jpg","old_or_new":"new","task":"recognition","trial_type":"image-keyboard-response","trial_index":31,"time_elapsed":85579,"internal_node_id":"0.0-3.0-0.14","subject_id":"605211b8ebd0a5605f0f961b","study_id":"606233c0e42b980319b6a18e","session_id":"608838a68412db48b6b0fbe0","correct":true},{"rt":820.3700000003591,"stimulus":"\n      <p>How sure are you?</p>\n      <p>Rate your confidence in your answer from 1 (pure guess) to 5 (very sure) by pressing the corresponding button.</p>\n     ","response":4,"image":"img/power_cord_alternate.jpg","task":"confidence","old_or_new":"new","trial_type":"html-button-response","trial_index":32,"time_elapsed":86401,"internal_node_id":"0.0-3.0-1.14","subject_id":"605211b8ebd0a5605f0f961b","study_id":"606233c0e42b980319b6a18e","session_id":"608838a68412db48b6b0fbe0"},{"rt":878.6250000002765,"stimulus":"img/seashell_alternate.jpg","response":"n","image":"img/seashell_alternate.jpg","old_or_new":"new","task":"recognition","trial_type":"image-keyboard-response","trial_index":33,"time_elapsed":87794,"internal_node_id":"0.0-3.0-0.15","subject_id":"605211b8ebd0a5605f0f961b","study_id":"606233c0e42b980319b6a18e","session_id":"608838a68412db48b6b0fbe0","correct":true},{"rt":745.4950000001263,"stimulus":"\n      <p>How sure are you?</p>\n      <p>Rate your confidence in your answer from 1 (pure guess) to 5 (very sure) by pressing the corresponding button.</p>\n     ","response":4,"image":"img/seashell_alternate.jpg","task":"confidence","old_or_new":"new","trial_type":"html-button-response","trial_index":34,"time_elapsed":88541,"internal_node_id":"0.0-3.0-1.15","subject_id":"605211b8ebd0a5605f0f961b","study_id":"606233c0e42b980319b6a18e","session_id":"608838a68412db48b6b0fbe0"},{"rt":1115.7649999995483,"stimulus":"img/toaster.jpg","response":"n","image":"img/toaster.jpg","old_or_new":"old","task":"recognition","trial_type":"image-keyboard-response","trial_index":35,"time_elapsed":90171,"internal_node_id":"0.0-3.0-0.16","subject_id":"605211b8ebd0a5605f0f961b","study_id":"606233c0e42b980319b6a18e","session_id":"608838a68412db48b6b0fbe0","correct":false},{"rt":2438.349999999453,"stimulus":"\n      <p>How sure are you?</p>\n      <p>Rate your confidence in your answer from 1 (pure guess) to 5 (very sure) by pressing the corresponding button.</p>\n     ","response":1,"image":"img/toaster.jpg","task":"confidence","old_or_new":"old","trial_type":"html-button-response","trial_index":36,"time_elapsed":92611,"internal_node_id":"0.0-3.0-1.16","subject_id":"605211b8ebd0a5605f0f961b","study_id":"606233c0e42b980319b6a18e","session_id":"608838a68412db48b6b0fbe0"},{"rt":998.9999999997963,"stimulus":"img/sink.jpg","response":"y","image":"img/sink.jpg","old_or_new":"old","task":"recognition","trial_type":"image-keyboard-response","trial_index":37,"time_elapsed":94114,"internal_node_id":"0.0-3.0-0.17","subject_id":"605211b8ebd0a5605f0f961b","study_id":"606233c0e42b980319b6a18e","session_id":"608838a68412db48b6b0fbe0","correct":true},{"rt":1257.3999999994994,"stimulus":"\n      <p>How sure are you?</p>\n      <p>Rate your confidence in your answer from 1 (pure guess) to 5 (very sure) by pressing the corresponding button.</p>\n     ","response":4,"image":"img/sink.jpg","task":"confidence","old_or_new":"old","trial_type":"html-button-response","trial_index":38,"time_elapsed":95373,"internal_node_id":"0.0-3.0-1.17","subject_id":"605211b8ebd0a5605f0f961b","study_id":"606233c0e42b980319b6a18e","session_id":"608838a68412db48b6b0fbe0"},{"rt":983.7900000002264,"stimulus":"img/rolling_pin.jpg","response":"y","image":"img/rolling_pin.jpg","old_or_new":"old","task":"recognition","trial_type":"image-keyboard-response","trial_index":39,"time_elapsed":96874,"internal_node_id":"0.0-3.0-0.18","subject_id":"605211b8ebd0a5605f0f961b","study_id":"606233c0e42b980319b6a18e","session_id":"608838a68412db48b6b0fbe0","correct":true},{"rt":983.0250000004453,"stimulus":"\n      <p>How sure are you?</p>\n      <p>Rate your confidence in your answer from 1 (pure guess) to 5 (very sure) by pressing the corresponding button.</p>\n     ","response":4,"image":"img/rolling_pin.jpg","task":"confidence","old_or_new":"old","trial_type":"html-button-response","trial_index":40,"time_elapsed":97858,"internal_node_id":"0.0-3.0-1.18","subject_id":"605211b8ebd0a5605f0f961b","study_id":"606233c0e42b980319b6a18e","session_id":"608838a68412db48b6b0fbe0"},{"rt":3065.150000000358,"stimulus":"img/toaster_alternate.jpg","response":"n","image":"img/toaster_alternate.jpg","old_or_new":"new","task":"recognition","trial_type":"image-keyboard-response","trial_index":41,"time_elapsed":101434,"internal_node_id":"0.0-3.0-0.19","subject_id":"605211b8ebd0a5605f0f961b","study_id":"606233c0e42b980319b6a18e","session_id":"608838a68412db48b6b0fbe0","correct":true},{"rt":897.834999999759,"stimulus":"\n      <p>How sure are you?</p>\n      <p>Rate your confidence in your answer from 1 (pure guess) to 5 (very sure) by pressing the corresponding button.</p>\n     ","response":4,"image":"img/toaster_alternate.jpg","task":"confidence","old_or_new":"new","trial_type":"html-button-response","trial_index":42,"time_elapsed":102333,"internal_node_id":"0.0-3.0-1.19","subject_id":"605211b8ebd0a5605f0f961b","study_id":"606233c0e42b980319b6a18e","session_id":"608838a68412db48b6b0fbe0"},{"rt":590.1400000002468,"stimulus":"img/watch.jpg","response":"y","image":"img/watch.jpg","old_or_new":"old","task":"recognition","trial_type":"image-keyboard-response","trial_index":43,"time_elapsed":103426,"internal_node_id":"0.0-3.0-0.20","subject_id":"605211b8ebd0a5605f0f961b","study_id":"606233c0e42b980319b6a18e","session_id":"608838a68412db48b6b0fbe0","correct":true},{"rt":547.9949999998935,"stimulus":"\n      <p>How sure are you?</p>\n      <p>Rate your confidence in your answer from 1 (pure guess) to 5 (very sure) by pressing the corresponding button.</p>\n     ","response":4,"image":"img/watch.jpg","task":"confidence","old_or_new":"old","trial_type":"html-button-response","trial_index":44,"time_elapsed":103975,"internal_node_id":"0.0-3.0-1.20","subject_id":"605211b8ebd0a5605f0f961b","study_id":"606233c0e42b980319b6a18e","session_id":"608838a68412db48b6b0fbe0"},{"rt":844.9799999998504,"stimulus":"img/seashell.jpg","response":"y","image":"img/seashell.jpg","old_or_new":"old","task":"recognition","trial_type":"image-keyboard-response","trial_index":45,"time_elapsed":105322,"internal_node_id":"0.0-3.0-0.21","subject_id":"605211b8ebd0a5605f0f961b","study_id":"606233c0e42b980319b6a18e","session_id":"608838a68412db48b6b0fbe0","correct":true},{"rt":2014.1300000004849,"stimulus":"\n      <p>How sure are you?</p>\n      <p>Rate your confidence in your answer from 1 (pure guess) to 5 (very sure) by pressing the corresponding button.</p>\n     ","response":2,"image":"img/seashell.jpg","task":"confidence","old_or_new":"old","trial_type":"html-button-response","trial_index":46,"time_elapsed":107337,"internal_node_id":"0.0-3.0-1.21","subject_id":"605211b8ebd0a5605f0f961b","study_id":"606233c0e42b980319b6a18e","session_id":"608838a68412db48b6b0fbe0"},{"rt":738.1050000003597,"stimulus":"img/trophy_alternate.jpg","response":"n","image":"img/trophy_alternate.jpg","old_or_new":"new","task":"recognition","trial_type":"image-keyboard-response","trial_index":47,"time_elapsed":108578,"internal_node_id":"0.0-3.0-0.22","subject_id":"605211b8ebd0a5605f0f961b","study_id":"606233c0e42b980319b6a18e","session_id":"608838a68412db48b6b0fbe0","correct":true},{"rt":510.185000000085,"stimulus":"\n      <p>How sure are you?</p>\n      <p>Rate your confidence in your answer from 1 (pure guess) to 5 (very sure) by pressing the corresponding button.</p>\n     ","response":4,"image":"img/trophy_alternate.jpg","task":"confidence","old_or_new":"new","trial_type":"html-button-response","trial_index":48,"time_elapsed":109089,"internal_node_id":"0.0-3.0-1.22","subject_id":"605211b8ebd0a5605f0f961b","study_id":"606233c0e42b980319b6a18e","session_id":"608838a68412db48b6b0fbe0"},{"rt":1434.1700000004494,"stimulus":"img/toothbrush.jpg","response":"n","image":"img/toothbrush.jpg","old_or_new":"old","task":"recognition","trial_type":"image-keyboard-response","trial_index":49,"time_elapsed":111026,"internal_node_id":"0.0-3.0-0.23","subject_id":"605211b8ebd0a5605f0f961b","study_id":"606233c0e42b980319b6a18e","session_id":"608838a68412db48b6b0fbe0","correct":false},{"rt":3785.3249999998225,"stimulus":"\n      <p>How sure are you?</p>\n      <p>Rate your confidence in your answer from 1 (pure guess) to 5 (very sure) by pressing the corresponding button.</p>\n     ","response":3,"image":"img/toothbrush.jpg","task":"confidence","old_or_new":"old","trial_type":"html-button-response","trial_index":50,"time_elapsed":114813,"internal_node_id":"0.0-3.0-1.23","subject_id":"605211b8ebd0a5605f0f961b","study_id":"606233c0e42b980319b6a18e","session_id":"608838a68412db48b6b0fbe0"},{"rt":716.4499999998952,"stimulus":"img/knife.jpg","response":"y","image":"img/knife.jpg","old_or_new":"old","task":"recognition","trial_type":"image-keyboard-response","trial_index":51,"time_elapsed":116034,"internal_node_id":"0.0-3.0-0.24","subject_id":"605211b8ebd0a5605f0f961b","study_id":"606233c0e42b980319b6a18e","session_id":"608838a68412db48b6b0fbe0","correct":true},{"rt":490.1800000006915,"stimulus":"\n      <p>How sure are you?</p>\n      <p>Rate your confidence in your answer from 1 (pure guess) to 5 (very sure) by pressing the corresponding button.</p>\n     ","response":4,"image":"img/knife.jpg","task":"confidence","old_or_new":"old","trial_type":"html-button-response","trial_index":52,"time_elapsed":116525,"internal_node_id":"0.0-3.0-1.24","subject_id":"605211b8ebd0a5605f0f961b","study_id":"606233c0e42b980319b6a18e","session_id":"608838a68412db48b6b0fbe0"},{"rt":558.7199999999866,"stimulus":"img/skates.jpg","response":"y","image":"img/skates.jpg","old_or_new":"old","task":"recognition","trial_type":"image-keyboard-response","trial_index":53,"time_elapsed":117586,"internal_node_id":"0.0-3.0-0.25","subject_id":"605211b8ebd0a5605f0f961b","study_id":"606233c0e42b980319b6a18e","session_id":"608838a68412db48b6b0fbe0","correct":true},{"rt":435.6899999993475,"stimulus":"\n      <p>How sure are you?</p>\n      <p>Rate your confidence in your answer from 1 (pure guess) to 5 (very sure) by pressing the corresponding button.</p>\n     ","response":4,"image":"img/skates.jpg","task":"confidence","old_or_new":"old","trial_type":"html-button-response","trial_index":54,"time_elapsed":118023,"internal_node_id":"0.0-3.0-1.25","subject_id":"605211b8ebd0a5605f0f961b","study_id":"606233c0e42b980319b6a18e","session_id":"608838a68412db48b6b0fbe0"},{"rt":734.9750000003114,"stimulus":"img/wheel_barrow_alternate.jpg","response":"n","image":"img/wheel_barrow_alternate.jpg","old_or_new":"new","task":"recognition","trial_type":"image-keyboard-response","trial_index":55,"time_elapsed":119274,"internal_node_id":"0.0-3.0-0.26","subject_id":"605211b8ebd0a5605f0f961b","study_id":"606233c0e42b980319b6a18e","session_id":"608838a68412db48b6b0fbe0","correct":true},{"rt":356.32499999973516,"stimulus":"\n      <p>How sure are you?</p>\n      <p>Rate your confidence in your answer from 1 (pure guess) to 5 (very sure) by pressing the corresponding button.</p>\n     ","response":4,"image":"img/wheel_barrow_alternate.jpg","task":"confidence","old_or_new":"new","trial_type":"html-button-response","trial_index":56,"time_elapsed":119632,"internal_node_id":"0.0-3.0-1.26","subject_id":"605211b8ebd0a5605f0f961b","study_id":"606233c0e42b980319b6a18e","session_id":"608838a68412db48b6b0fbe0"},{"rt":696.6650000003865,"stimulus":"img/umbrella_alternate.jpg","response":"n","image":"img/umbrella_alternate.jpg","old_or_new":"new","task":"recognition","trial_type":"image-keyboard-response","trial_index":57,"time_elapsed":120842,"internal_node_id":"0.0-3.0-0.27","subject_id":"605211b8ebd0a5605f0f961b","study_id":"606233c0e42b980319b6a18e","session_id":"608838a68412db48b6b0fbe0","correct":true},{"rt":270.1200000001263,"stimulus":"\n      <p>How sure are you?</p>\n      <p>Rate your confidence in your answer from 1 (pure guess) to 5 (very sure) by pressing the corresponding button.</p>\n     ","response":4,"image":"img/umbrella_alternate.jpg","task":"confidence","old_or_new":"new","trial_type":"html-button-response","trial_index":58,"time_elapsed":121113,"internal_node_id":"0.0-3.0-1.27","subject_id":"605211b8ebd0a5605f0f961b","study_id":"606233c0e42b980319b6a18e","session_id":"608838a68412db48b6b0fbe0"},{"rt":714.4900000002817,"stimulus":"img/trophy.jpg","response":"y","image":"img/trophy.jpg","old_or_new":"old","task":"recognition","trial_type":"image-keyboard-response","trial_index":59,"time_elapsed":122340,"internal_node_id":"0.0-3.0-0.28","subject_id":"605211b8ebd0a5605f0f961b","study_id":"606233c0e42b980319b6a18e","session_id":"608838a68412db48b6b0fbe0","correct":true},{"rt":294.5850000005594,"stimulus":"\n      <p>How sure are you?</p>\n      <p>Rate your confidence in your answer from 1 (pure guess) to 5 (very sure) by pressing the corresponding button.</p>\n     ","response":4,"image":"img/trophy.jpg","task":"confidence","old_or_new":"old","trial_type":"html-button-response","trial_index":60,"time_elapsed":122636,"internal_node_id":"0.0-3.0-1.28","subject_id":"605211b8ebd0a5605f0f961b","study_id":"606233c0e42b980319b6a18e","session_id":"608838a68412db48b6b0fbe0"},{"rt":684.6299999997427,"stimulus":"img/parfait.jpg","response":"y","image":"img/parfait.jpg","old_or_new":"old","task":"recognition","trial_type":"image-keyboard-response","trial_index":61,"time_elapsed":123834,"internal_node_id":"0.0-3.0-0.29","subject_id":"605211b8ebd0a5605f0f961b","study_id":"606233c0e42b980319b6a18e","session_id":"608838a68412db48b6b0fbe0","correct":true},{"rt":299.92500000026484,"stimulus":"\n      <p>How sure are you?</p>\n      <p>Rate your confidence in your answer from 1 (pure guess) to 5 (very sure) by pressing the corresponding button.</p>\n     ","response":4,"image":"img/parfait.jpg","task":"confidence","old_or_new":"old","trial_type":"html-button-response","trial_index":62,"time_elapsed":124136,"internal_node_id":"0.0-3.0-1.29","subject_id":"605211b8ebd0a5605f0f961b","study_id":"606233c0e42b980319b6a18e","session_id":"608838a68412db48b6b0fbe0"},{"rt":573.445000000007,"stimulus":"img/scissors.jpg","response":"y","image":"img/scissors.jpg","old_or_new":"old","task":"recognition","trial_type":"image-keyboard-response","trial_index":63,"time_elapsed":125226,"internal_node_id":"0.0-3.0-0.30","subject_id":"605211b8ebd0a5605f0f961b","study_id":"606233c0e42b980319b6a18e","session_id":"608838a68412db48b6b0fbe0","correct":true},{"rt":330.32999999978347,"stimulus":"\n      <p>How sure are you?</p>\n      <p>Rate your confidence in your answer from 1 (pure guess) to 5 (very sure) by pressing the corresponding button.</p>\n     ","response":4,"image":"img/scissors.jpg","task":"confidence","old_or_new":"old","trial_type":"html-button-response","trial_index":64,"time_elapsed":125558,"internal_node_id":"0.0-3.0-1.30","subject_id":"605211b8ebd0a5605f0f961b","study_id":"606233c0e42b980319b6a18e","session_id":"608838a68412db48b6b0fbe0"},{"rt":597.1149999995687,"stimulus":"img/plate.jpg","response":"y","image":"img/plate.jpg","old_or_new":"old","task":"recognition","trial_type":"image-keyboard-response","trial_index":65,"time_elapsed":126660,"internal_node_id":"0.0-3.0-0.31","subject_id":"605211b8ebd0a5605f0f961b","study_id":"606233c0e42b980319b6a18e","session_id":"608838a68412db48b6b0fbe0","correct":true},{"rt":274.26000000012573,"stimulus":"\n      <p>How sure are you?</p>\n      <p>Rate your confidence in your answer from 1 (pure guess) to 5 (very sure) by pressing the corresponding button.</p>\n     ","response":4,"image":"img/plate.jpg","task":"confidence","old_or_new":"old","trial_type":"html-button-response","trial_index":66,"time_elapsed":126935,"internal_node_id":"0.0-3.0-1.31","subject_id":"605211b8ebd0a5605f0f961b","study_id":"606233c0e42b980319b6a18e","session_id":"608838a68412db48b6b0fbe0"},{"rt":1021.230000000287,"stimulus":"img/spoon.jpg","response":"y","image":"img/spoon.jpg","old_or_new":"old","task":"recognition","trial_type":"image-keyboard-response","trial_index":67,"time_elapsed":128462,"internal_node_id":"0.0-3.0-0.32","subject_id":"605211b8ebd0a5605f0f961b","study_id":"606233c0e42b980319b6a18e","session_id":"608838a68412db48b6b0fbe0","correct":true},{"rt":291.7850000003382,"stimulus":"\n      <p>How sure are you?</p>\n      <p>Rate your confidence in your answer from 1 (pure guess) to 5 (very sure) by pressing the corresponding button.</p>\n     ","response":4,"image":"img/spoon.jpg","task":"confidence","old_or_new":"old","trial_type":"html-button-response","trial_index":68,"time_elapsed":128755,"internal_node_id":"0.0-3.0-1.32","subject_id":"605211b8ebd0a5605f0f961b","study_id":"606233c0e42b980319b6a18e","session_id":"608838a68412db48b6b0fbe0"},{"rt":734.9400000002643,"stimulus":"img/tv_alternate.jpg","response":"n","image":"img/tv_alternate.jpg","old_or_new":"new","task":"recognition","trial_type":"image-keyboard-response","trial_index":69,"time_elapsed":130003,"internal_node_id":"0.0-3.0-0.33","subject_id":"605211b8ebd0a5605f0f961b","study_id":"606233c0e42b980319b6a18e","session_id":"608838a68412db48b6b0fbe0","correct":true},{"rt":299.9149999996298,"stimulus":"\n      <p>How sure are you?</p>\n      <p>Rate your confidence in your answer from 1 (pure guess) to 5 (very sure) by pressing the corresponding button.</p>\n     ","response":4,"image":"img/tv_alternate.jpg","task":"confidence","old_or_new":"new","trial_type":"html-button-response","trial_index":70,"time_elapsed":130304,"internal_node_id":"0.0-3.0-1.33","subject_id":"605211b8ebd0a5605f0f961b","study_id":"606233c0e42b980319b6a18e","session_id":"608838a68412db48b6b0fbe0"},{"rt":775.8750000002619,"stimulus":"img/parfait_alternate.jpg","response":"n","image":"img/parfait_alternate.jpg","old_or_new":"new","task":"recognition","trial_type":"image-keyboard-response","trial_index":71,"time_elapsed":131586,"internal_node_id":"0.0-3.0-0.34","subject_id":"605211b8ebd0a5605f0f961b","study_id":"606233c0e42b980319b6a18e","session_id":"608838a68412db48b6b0fbe0","correct":true},{"rt":265.6849999994156,"stimulus":"\n      <p>How sure are you?</p>\n      <p>Rate your confidence in your answer from 1 (pure guess) to 5 (very sure) by pressing the corresponding button.</p>\n     ","response":4,"image":"img/parfait_alternate.jpg","task":"confidence","old_or_new":"new","trial_type":"html-button-response","trial_index":72,"time_elapsed":131853,"internal_node_id":"0.0-3.0-1.34","subject_id":"605211b8ebd0a5605f0f961b","study_id":"606233c0e42b980319b6a18e","session_id":"608838a68412db48b6b0fbe0"},{"rt":1754.29999999961,"stimulus":"img/shovel.jpg","response":"n","image":"img/shovel.jpg","old_or_new":"old","task":"recognition","trial_type":"image-keyboard-response","trial_index":73,"time_elapsed":134123,"internal_node_id":"0.0-3.0-0.35","subject_id":"605211b8ebd0a5605f0f961b","study_id":"606233c0e42b980319b6a18e","session_id":"608838a68412db48b6b0fbe0","correct":false},{"rt":2341.449999999895,"stimulus":"\n      <p>How sure are you?</p>\n      <p>Rate your confidence in your answer from 1 (pure guess) to 5 (very sure) by pressing the corresponding button.</p>\n     ","response":1,"image":"img/shovel.jpg","task":"confidence","old_or_new":"old","trial_type":"html-button-response","trial_index":74,"time_elapsed":136465,"internal_node_id":"0.0-3.0-1.35","subject_id":"605211b8ebd0a5605f0f961b","study_id":"606233c0e42b980319b6a18e","session_id":"608838a68412db48b6b0fbe0"},{"rt":1551.6749999997264,"stimulus":"img/knife_alternate.jpg","response":"n","image":"img/knife_alternate.jpg","old_or_new":"new","task":"recognition","trial_type":"image-keyboard-response","trial_index":75,"time_elapsed":138530,"internal_node_id":"0.0-3.0-0.36","subject_id":"605211b8ebd0a5605f0f961b","study_id":"606233c0e42b980319b6a18e","session_id":"608838a68412db48b6b0fbe0","correct":true},{"rt":1016.6550000003772,"stimulus":"\n      <p>How sure are you?</p>\n      <p>Rate your confidence in your answer from 1 (pure guess) to 5 (very sure) by pressing the corresponding button.</p>\n     ","response":3,"image":"img/knife_alternate.jpg","task":"confidence","old_or_new":"new","trial_type":"html-button-response","trial_index":76,"time_elapsed":139548,"internal_node_id":"0.0-3.0-1.36","subject_id":"605211b8ebd0a5605f0f961b","study_id":"606233c0e42b980319b6a18e","session_id":"608838a68412db48b6b0fbe0"},{"rt":551.5349999996251,"stimulus":"img/plane.jpg","response":"y","image":"img/plane.jpg","old_or_new":"old","task":"recognition","trial_type":"image-keyboard-response","trial_index":77,"time_elapsed":140602,"internal_node_id":"0.0-3.0-0.37","subject_id":"605211b8ebd0a5605f0f961b","study_id":"606233c0e42b980319b6a18e","session_id":"608838a68412db48b6b0fbe0","correct":true},{"rt":342.2900000005029,"stimulus":"\n      <p>How sure are you?</p>\n      <p>Rate your confidence in your answer from 1 (pure guess) to 5 (very sure) by pressing the corresponding button.</p>\n     ","response":4,"image":"img/plane.jpg","task":"confidence","old_or_new":"old","trial_type":"html-button-response","trial_index":78,"time_elapsed":140945,"internal_node_id":"0.0-3.0-1.37","subject_id":"605211b8ebd0a5605f0f961b","study_id":"606233c0e42b980319b6a18e","session_id":"608838a68412db48b6b0fbe0"},{"rt":5431.704999999958,"stimulus":"img/shovel_alternate.jpg","response":"y","image":"img/shovel_alternate.jpg","old_or_new":"new","task":"recognition","trial_type":"image-keyboard-response","trial_index":79,"time_elapsed":146882,"internal_node_id":"0.0-3.0-0.38","subject_id":"605211b8ebd0a5605f0f961b","study_id":"606233c0e42b980319b6a18e","session_id":"608838a68412db48b6b0fbe0","correct":false},{"rt":3201.449999999575,"stimulus":"\n      <p>How sure are you?</p>\n      <p>Rate your confidence in your answer from 1 (pure guess) to 5 (very sure) by pressing the corresponding button.</p>\n     ","response":1,"image":"img/shovel_alternate.jpg","task":"confidence","old_or_new":"new","trial_type":"html-button-response","trial_index":80,"time_elapsed":150085,"internal_node_id":"0.0-3.0-1.38","subject_id":"605211b8ebd0a5605f0f961b","study_id":"606233c0e42b980319b6a18e","session_id":"608838a68412db48b6b0fbe0"},{"rt":587.3649999994086,"stimulus":"img/pizza.jpg","response":"y","image":"img/pizza.jpg","old_or_new":"old","task":"recognition","trial_type":"image-keyboard-response","trial_index":81,"time_elapsed":151178,"internal_node_id":"0.0-3.0-0.39","subject_id":"605211b8ebd0a5605f0f961b","study_id":"606233c0e42b980319b6a18e","session_id":"608838a68412db48b6b0fbe0","correct":true},{"rt":876.545000000071,"stimulus":"\n      <p>How sure are you?</p>\n      <p>Rate your confidence in your answer from 1 (pure guess) to 5 (very sure) by pressing the corresponding button.</p>\n     ","response":4,"image":"img/pizza.jpg","task":"confidence","old_or_new":"old","trial_type":"html-button-response","trial_index":82,"time_elapsed":152056,"internal_node_id":"0.0-3.0-1.39","subject_id":"605211b8ebd0a5605f0f961b","study_id":"606233c0e42b980319b6a18e","session_id":"608838a68412db48b6b0fbe0"},{"rt":632.8450000000885,"stimulus":"img/plate_alternate.jpg","response":"n","image":"img/plate_alternate.jpg","old_or_new":"new","task":"recognition","trial_type":"image-keyboard-response","trial_index":83,"time_elapsed":153195,"internal_node_id":"0.0-3.0-0.40","subject_id":"605211b8ebd0a5605f0f961b","study_id":"606233c0e42b980319b6a18e","session_id":"608838a68412db48b6b0fbe0","correct":true},{"rt":257.8350000003411,"stimulus":"\n      <p>How sure are you?</p>\n      <p>Rate your confidence in your answer from 1 (pure guess) to 5 (very sure) by pressing the corresponding button.</p>\n     ","response":4,"image":"img/plate_alternate.jpg","task":"confidence","old_or_new":"new","trial_type":"html-button-response","trial_index":84,"time_elapsed":153454,"internal_node_id":"0.0-3.0-1.40","subject_id":"605211b8ebd0a5605f0f961b","study_id":"606233c0e42b980319b6a18e","session_id":"608838a68412db48b6b0fbe0"},{"rt":716.0100000000966,"stimulus":"img/yarn_alternate.jpg","response":"n","image":"img/yarn_alternate.jpg","old_or_new":"new","task":"recognition","trial_type":"image-keyboard-response","trial_index":85,"time_elapsed":154675,"internal_node_id":"0.0-3.0-0.41","subject_id":"605211b8ebd0a5605f0f961b","study_id":"606233c0e42b980319b6a18e","session_id":"608838a68412db48b6b0fbe0","correct":true},{"rt":279.3350000001956,"stimulus":"\n      <p>How sure are you?</p>\n      <p>Rate your confidence in your answer from 1 (pure guess) to 5 (very sure) by pressing the corresponding button.</p>\n     ","response":4,"image":"img/yarn_alternate.jpg","task":"confidence","old_or_new":"new","trial_type":"html-button-response","trial_index":86,"time_elapsed":154956,"internal_node_id":"0.0-3.0-1.41","subject_id":"605211b8ebd0a5605f0f961b","study_id":"606233c0e42b980319b6a18e","session_id":"608838a68412db48b6b0fbe0"},{"rt":905.3850000000093,"stimulus":"img/shoe.jpg","response":"y","image":"img/shoe.jpg","old_or_new":"old","task":"recognition","trial_type":"image-keyboard-response","trial_index":87,"time_elapsed":156371,"internal_node_id":"0.0-3.0-0.42","subject_id":"605211b8ebd0a5605f0f961b","study_id":"606233c0e42b980319b6a18e","session_id":"608838a68412db48b6b0fbe0","correct":true},{"rt":241.75000000014552,"stimulus":"\n      <p>How sure are you?</p>\n      <p>Rate your confidence in your answer from 1 (pure guess) to 5 (very sure) by pressing the corresponding button.</p>\n     ","response":4,"image":"img/shoe.jpg","task":"confidence","old_or_new":"old","trial_type":"html-button-response","trial_index":88,"time_elapsed":156614,"internal_node_id":"0.0-3.0-1.42","subject_id":"605211b8ebd0a5605f0f961b","study_id":"606233c0e42b980319b6a18e","session_id":"608838a68412db48b6b0fbe0"},{"rt":666.0700000002107,"stimulus":"img/pencil_sharpener.jpg","response":"y","image":"img/pencil_sharpener.jpg","old_or_new":"old","task":"recognition","trial_type":"image-keyboard-response","trial_index":89,"time_elapsed":157795,"internal_node_id":"0.0-3.0-0.43","subject_id":"605211b8ebd0a5605f0f961b","study_id":"606233c0e42b980319b6a18e","session_id":"608838a68412db48b6b0fbe0","correct":true},{"rt":284.86500000051456,"stimulus":"\n      <p>How sure are you?</p>\n      <p>Rate your confidence in your answer from 1 (pure guess) to 5 (very sure) by pressing the corresponding button.</p>\n     ","response":4,"image":"img/pencil_sharpener.jpg","task":"confidence","old_or_new":"old","trial_type":"html-button-response","trial_index":90,"time_elapsed":158081,"internal_node_id":"0.0-3.0-1.43","subject_id":"605211b8ebd0a5605f0f961b","study_id":"606233c0e42b980319b6a18e","session_id":"608838a68412db48b6b0fbe0"},{"rt":793.7799999999697,"stimulus":"img/shirt.jpg","response":"y","image":"img/shirt.jpg","old_or_new":"old","task":"recognition","trial_type":"image-keyboard-response","trial_index":91,"time_elapsed":159386,"internal_node_id":"0.0-3.0-0.44","subject_id":"605211b8ebd0a5605f0f961b","study_id":"606233c0e42b980319b6a18e","session_id":"608838a68412db48b6b0fbe0","correct":true},{"rt":289.9200000001583,"stimulus":"\n      <p>How sure are you?</p>\n      <p>Rate your confidence in your answer from 1 (pure guess) to 5 (very sure) by pressing the corresponding button.</p>\n     ","response":4,"image":"img/shirt.jpg","task":"confidence","old_or_new":"old","trial_type":"html-button-response","trial_index":92,"time_elapsed":159677,"internal_node_id":"0.0-3.0-1.44","subject_id":"605211b8ebd0a5605f0f961b","study_id":"606233c0e42b980319b6a18e","session_id":"608838a68412db48b6b0fbe0"},{"rt":603.2700000005134,"stimulus":"img/shoe_alternate.jpg","response":"n","image":"img/shoe_alternate.jpg","old_or_new":"new","task":"recognition","trial_type":"image-keyboard-response","trial_index":93,"time_elapsed":160787,"internal_node_id":"0.0-3.0-0.45","subject_id":"605211b8ebd0a5605f0f961b","study_id":"606233c0e42b980319b6a18e","session_id":"608838a68412db48b6b0fbe0","correct":true},{"rt":258.03499999982887,"stimulus":"\n      <p>How sure are you?</p>\n      <p>Rate your confidence in your answer from 1 (pure guess) to 5 (very sure) by pressing the corresponding button.</p>\n     ","response":4,"image":"img/shoe_alternate.jpg","task":"confidence","old_or_new":"new","trial_type":"html-button-response","trial_index":94,"time_elapsed":161047,"internal_node_id":"0.0-3.0-1.45","subject_id":"605211b8ebd0a5605f0f961b","study_id":"606233c0e42b980319b6a18e","session_id":"608838a68412db48b6b0fbe0"},{"rt":711.8149999996531,"stimulus":"img/wheel_barrow.jpg","response":"y","image":"img/wheel_barrow.jpg","old_or_new":"old","task":"recognition","trial_type":"image-keyboard-response","trial_index":95,"time_elapsed":162275,"internal_node_id":"0.0-3.0-0.46","subject_id":"605211b8ebd0a5605f0f961b","study_id":"606233c0e42b980319b6a18e","session_id":"608838a68412db48b6b0fbe0","correct":true},{"rt":270.9349999995611,"stimulus":"\n      <p>How sure are you?</p>\n      <p>Rate your confidence in your answer from 1 (pure guess) to 5 (very sure) by pressing the corresponding button.</p>\n     ","response":4,"image":"img/wheel_barrow.jpg","task":"confidence","old_or_new":"old","trial_type":"html-button-response","trial_index":96,"time_elapsed":162547,"internal_node_id":"0.0-3.0-1.46","subject_id":"605211b8ebd0a5605f0f961b","study_id":"606233c0e42b980319b6a18e","session_id":"608838a68412db48b6b0fbe0"},{"rt":606.2350000001898,"stimulus":"img/watch_alternate.jpg","response":"n","image":"img/watch_alternate.jpg","old_or_new":"new","task":"recognition","trial_type":"image-keyboard-response","trial_index":97,"time_elapsed":163659,"internal_node_id":"0.0-3.0-0.47","subject_id":"605211b8ebd0a5605f0f961b","study_id":"606233c0e42b980319b6a18e","session_id":"608838a68412db48b6b0fbe0","correct":true},{"rt":269.15999999982887,"stimulus":"\n      <p>How sure are you?</p>\n      <p>Rate your confidence in your answer from 1 (pure guess) to 5 (very sure) by pressing the corresponding button.</p>\n     ","response":4,"image":"img/watch_alternate.jpg","task":"confidence","old_or_new":"new","trial_type":"html-button-response","trial_index":98,"time_elapsed":163930,"internal_node_id":"0.0-3.0-1.47","subject_id":"605211b8ebd0a5605f0f961b","study_id":"606233c0e42b980319b6a18e","session_id":"608838a68412db48b6b0fbe0"}]