[{"success":true,"timeout":false,"failed_images":[],"failed_audio":[],"failed_video":[],"trial_type":"preload","trial_index":0,"time_elapsed":3797,"internal_node_id":"0.0-0.0","subject_id":"6065d7fad06e2dd879f5142a","study_id":"606233c0e42b980319b6a18e","session_id":"608834a938d4f7d0ba0c904e"},{"rt":62352.24499999822,"stimulus":"\n      <div style=\"width:800px; text-align: left;\">\n        <p>Welcome to day 2 of the experiment! Thanks for coming back.</p>\n        <p>You will be presented with a series of images. Images will appear one at a time.</p>\n        <p>Each image will remain on the screen until you press either <span style=\"font-weight: bold;\">\"y\" to indicate you have seen the \n        exact same photo the day before or \"n\" to indicate you have not seen the exact same photo the day before.</span></p>\n        <p>After you answer yes (\"y\") or no (\"n\"), you will then be prompted to rate your certainty on a scale of\n        1 (pure guess) to 5 (very sure).</p>\n      </div>\n    ","response":0,"trial_type":"html-button-response","trial_index":1,"time_elapsed":66153,"internal_node_id":"0.0-1.0","subject_id":"6065d7fad06e2dd879f5142a","study_id":"606233c0e42b980319b6a18e","session_id":"608834a938d4f7d0ba0c904e"},{"success":true,"trial_type":"fullscreen","trial_index":2,"time_elapsed":95547,"internal_node_id":"0.0-2.0","subject_id":"6065d7fad06e2dd879f5142a","study_id":"606233c0e42b980319b6a18e","session_id":"608834a938d4f7d0ba0c904e"},{"rt":1835.1949999996577,"stimulus":"img/skates_alternate.jpg","response":"n","image":"img/skates_alternate.jpg","old_or_new":"new","task":"recognition","trial_type":"image-keyboard-response","trial_index":3,"time_elapsed":97403,"internal_node_id":"0.0-3.0-0.0","subject_id":"6065d7fad06e2dd879f5142a","study_id":"606233c0e42b980319b6a18e","session_id":"608834a938d4f7d0ba0c904e","correct":true},{"rt":5184.180000000197,"stimulus":"\n      <p>How sure are you?</p>\n      <p>Rate your confidence in your answer from 1 (pure guess) to 5 (very sure) by pressing the corresponding button.</p>\n     ","response":4,"image":"img/skates_alternate.jpg","task":"confidence","old_or_new":"new","trial_type":"html-button-response","trial_index":4,"time_elapsed":102589,"internal_node_id":"0.0-3.0-1.0","subject_id":"6065d7fad06e2dd879f5142a","study_id":"606233c0e42b980319b6a18e","session_id":"608834a938d4f7d0ba0c904e"},{"rt":1823.8899999996647,"stimulus":"img/spoon.jpg","response":"y","image":"img/spoon.jpg","old_or_new":"old","task":"recognition","trial_type":"image-keyboard-response","trial_index":5,"time_elapsed":104922,"internal_node_id":"0.0-3.0-0.1","subject_id":"6065d7fad06e2dd879f5142a","study_id":"606233c0e42b980319b6a18e","session_id":"608834a938d4f7d0ba0c904e","correct":true},{"rt":1336.7300000027171,"stimulus":"\n      <p>How sure are you?</p>\n      <p>Rate your confidence in your answer from 1 (pure guess) to 5 (very sure) by pressing the corresponding button.</p>\n     ","response":4,"image":"img/spoon.jpg","task":"confidence","old_or_new":"old","trial_type":"html-button-response","trial_index":6,"time_elapsed":106260,"internal_node_id":"0.0-3.0-1.1","subject_id":"6065d7fad06e2dd879f5142a","study_id":"606233c0e42b980319b6a18e","session_id":"608834a938d4f7d0ba0c904e"},{"rt":1122.4099999999453,"stimulus":"img/seashell.jpg","response":"y","image":"img/seashell.jpg","old_or_new":"old","task":"recognition","trial_type":"image-keyboard-response","trial_index":7,"time_elapsed":107888,"internal_node_id":"0.0-3.0-0.2","subject_id":"6065d7fad06e2dd879f5142a","study_id":"606233c0e42b980319b6a18e","session_id":"608834a938d4f7d0ba0c904e","correct":true},{"rt":778.1450000002224,"stimulus":"\n      <p>How sure are you?</p>\n      <p>Rate your confidence in your answer from 1 (pure guess) to 5 (very sure) by pressing the corresponding button.</p>\n     ","response":4,"image":"img/seashell.jpg","task":"confidence","old_or_new":"old","trial_type":"html-button-response","trial_index":8,"time_elapsed":108668,"internal_node_id":"0.0-3.0-1.2","subject_id":"6065d7fad06e2dd879f5142a","study_id":"606233c0e42b980319b6a18e","session_id":"608834a938d4f7d0ba0c904e"},{"rt":1192.6149999999325,"stimulus":"img/pizza_alternate.jpg","response":"n","image":"img/pizza_alternate.jpg","old_or_new":"new","task":"recognition","trial_type":"image-keyboard-response","trial_index":9,"time_elapsed":110365,"internal_node_id":"0.0-3.0-0.3","subject_id":"6065d7fad06e2dd879f5142a","study_id":"606233c0e42b980319b6a18e","session_id":"608834a938d4f7d0ba0c904e","correct":true},{"rt":1538.6949999992794,"stimulus":"\n      <p>How sure are you?</p>\n      <p>Rate your confidence in your answer from 1 (pure guess) to 5 (very sure) by pressing the corresponding button.</p>\n     ","response":4,"image":"img/pizza_alternate.jpg","task":"confidence","old_or_new":"new","trial_type":"html-button-response","trial_index":10,"time_elapsed":111905,"internal_node_id":"0.0-3.0-1.3","subject_id":"6065d7fad06e2dd879f5142a","study_id":"606233c0e42b980319b6a18e","session_id":"608834a938d4f7d0ba0c904e"},{"rt":1184.3300000000454,"stimulus":"img/parfait.jpg","response":"y","image":"img/parfait.jpg","old_or_new":"old","task":"recognition","trial_type":"image-keyboard-response","trial_index":11,"time_elapsed":113593,"internal_node_id":"0.0-3.0-0.4","subject_id":"6065d7fad06e2dd879f5142a","study_id":"606233c0e42b980319b6a18e","session_id":"608834a938d4f7d0ba0c904e","correct":true},{"rt":654.0349999995669,"stimulus":"\n      <p>How sure are you?</p>\n      <p>Rate your confidence in your answer from 1 (pure guess) to 5 (very sure) by pressing the corresponding button.</p>\n     ","response":4,"image":"img/parfait.jpg","task":"confidence","old_or_new":"old","trial_type":"html-button-response","trial_index":12,"time_elapsed":114249,"internal_node_id":"0.0-3.0-1.4","subject_id":"6065d7fad06e2dd879f5142a","study_id":"606233c0e42b980319b6a18e","session_id":"608834a938d4f7d0ba0c904e"},{"rt":1038.3700000020326,"stimulus":"img/tv.jpg","response":"y","image":"img/tv.jpg","old_or_new":"old","task":"recognition","trial_type":"image-keyboard-response","trial_index":13,"time_elapsed":115795,"internal_node_id":"0.0-3.0-0.5","subject_id":"6065d7fad06e2dd879f5142a","study_id":"606233c0e42b980319b6a18e","session_id":"608834a938d4f7d0ba0c904e","correct":true},{"rt":684.7550000020419,"stimulus":"\n      <p>How sure are you?</p>\n      <p>Rate your confidence in your answer from 1 (pure guess) to 5 (very sure) by pressing the corresponding button.</p>\n     ","response":4,"image":"img/tv.jpg","task":"confidence","old_or_new":"old","trial_type":"html-button-response","trial_index":14,"time_elapsed":116481,"internal_node_id":"0.0-3.0-1.5","subject_id":"6065d7fad06e2dd879f5142a","study_id":"606233c0e42b980319b6a18e","session_id":"608834a938d4f7d0ba0c904e"},{"rt":1041.1600000006729,"stimulus":"img/pizza.jpg","response":"y","image":"img/pizza.jpg","old_or_new":"old","task":"recognition","trial_type":"image-keyboard-response","trial_index":15,"time_elapsed":118029,"internal_node_id":"0.0-3.0-0.6","subject_id":"6065d7fad06e2dd879f5142a","study_id":"606233c0e42b980319b6a18e","session_id":"608834a938d4f7d0ba0c904e","correct":true},{"rt":609.8349999992934,"stimulus":"\n      <p>How sure are you?</p>\n      <p>Rate your confidence in your answer from 1 (pure guess) to 5 (very sure) by pressing the corresponding button.</p>\n     ","response":4,"image":"img/pizza.jpg","task":"confidence","old_or_new":"old","trial_type":"html-button-response","trial_index":16,"time_elapsed":118640,"internal_node_id":"0.0-3.0-1.6","subject_id":"6065d7fad06e2dd879f5142a","study_id":"606233c0e42b980319b6a18e","session_id":"608834a938d4f7d0ba0c904e"},{"rt":1019.2950000018755,"stimulus":"img/toothbrush.jpg","response":"y","image":"img/toothbrush.jpg","old_or_new":"old","task":"recognition","trial_type":"image-keyboard-response","trial_index":17,"time_elapsed":120166,"internal_node_id":"0.0-3.0-0.7","subject_id":"6065d7fad06e2dd879f5142a","study_id":"606233c0e42b980319b6a18e","session_id":"608834a938d4f7d0ba0c904e","correct":true},{"rt":575.3450000011071,"stimulus":"\n      <p>How sure are you?</p>\n      <p>Rate your confidence in your answer from 1 (pure guess) to 5 (very sure) by pressing the corresponding button.</p>\n     ","response":4,"image":"img/toothbrush.jpg","task":"confidence","old_or_new":"old","trial_type":"html-button-response","trial_index":18,"time_elapsed":120743,"internal_node_id":"0.0-3.0-1.7","subject_id":"6065d7fad06e2dd879f5142a","study_id":"606233c0e42b980319b6a18e","session_id":"608834a938d4f7d0ba0c904e"},{"rt":13219.180000000051,"stimulus":"img/toaster_alternate.jpg","response":"n","image":"img/toaster_alternate.jpg","old_or_new":"new","task":"recognition","trial_type":"image-keyboard-response","trial_index":19,"time_elapsed":134469,"internal_node_id":"0.0-3.0-0.8","subject_id":"6065d7fad06e2dd879f5142a","study_id":"606233c0e42b980319b6a18e","session_id":"608834a938d4f7d0ba0c904e","correct":true},{"rt":6913.614999997662,"stimulus":"\n      <p>How sure are you?</p>\n      <p>Rate your confidence in your answer from 1 (pure guess) to 5 (very sure) by pressing the corresponding button.</p>\n     ","response":1,"image":"img/toaster_alternate.jpg","task":"confidence","old_or_new":"new","trial_type":"html-button-response","trial_index":20,"time_elapsed":141385,"internal_node_id":"0.0-3.0-1.8","subject_id":"6065d7fad06e2dd879f5142a","study_id":"606233c0e42b980319b6a18e","session_id":"608834a938d4f7d0ba0c904e"},{"rt":1758.0850000013015,"stimulus":"img/toothbrush_alternate.jpg","response":"n","image":"img/toothbrush_alternate.jpg","old_or_new":"new","task":"recognition","trial_type":"image-keyboard-response","trial_index":21,"time_elapsed":143651,"internal_node_id":"0.0-3.0-0.9","subject_id":"6065d7fad06e2dd879f5142a","study_id":"606233c0e42b980319b6a18e","session_id":"608834a938d4f7d0ba0c904e","correct":true},{"rt":880.0700000028883,"stimulus":"\n      <p>How sure are you?</p>\n      <p>Rate your confidence in your answer from 1 (pure guess) to 5 (very sure) by pressing the corresponding button.</p>\n     ","response":4,"image":"img/toothbrush_alternate.jpg","task":"confidence","old_or_new":"new","trial_type":"html-button-response","trial_index":22,"time_elapsed":144533,"internal_node_id":"0.0-3.0-1.9","subject_id":"6065d7fad06e2dd879f5142a","study_id":"606233c0e42b980319b6a18e","session_id":"608834a938d4f7d0ba0c904e"},{"rt":1141.8400000002293,"stimulus":"img/parfait_alternate.jpg","response":"n","image":"img/parfait_alternate.jpg","old_or_new":"new","task":"recognition","trial_type":"image-keyboard-response","trial_index":23,"time_elapsed":146183,"internal_node_id":"0.0-3.0-0.10","subject_id":"6065d7fad06e2dd879f5142a","study_id":"606233c0e42b980319b6a18e","session_id":"608834a938d4f7d0ba0c904e","correct":true},{"rt":620.6050000000687,"stimulus":"\n      <p>How sure are you?</p>\n      <p>Rate your confidence in your answer from 1 (pure guess) to 5 (very sure) by pressing the corresponding button.</p>\n     ","response":4,"image":"img/parfait_alternate.jpg","task":"confidence","old_or_new":"new","trial_type":"html-button-response","trial_index":24,"time_elapsed":146805,"internal_node_id":"0.0-3.0-1.10","subject_id":"6065d7fad06e2dd879f5142a","study_id":"606233c0e42b980319b6a18e","session_id":"608834a938d4f7d0ba0c904e"},{"rt":1066.195000003063,"stimulus":"img/umbrella_alternate.jpg","response":"n","image":"img/umbrella_alternate.jpg","old_or_new":"new","task":"recognition","trial_type":"image-keyboard-response","trial_index":25,"time_elapsed":148375,"internal_node_id":"0.0-3.0-0.11","subject_id":"6065d7fad06e2dd879f5142a","study_id":"606233c0e42b980319b6a18e","session_id":"608834a938d4f7d0ba0c904e","correct":true},{"rt":514.8000000008324,"stimulus":"\n      <p>How sure are you?</p>\n      <p>Rate your confidence in your answer from 1 (pure guess) to 5 (very sure) by pressing the corresponding button.</p>\n     ","response":4,"image":"img/umbrella_alternate.jpg","task":"confidence","old_or_new":"new","trial_type":"html-button-response","trial_index":26,"time_elapsed":148891,"internal_node_id":"0.0-3.0-1.11","subject_id":"6065d7fad06e2dd879f5142a","study_id":"606233c0e42b980319b6a18e","session_id":"608834a938d4f7d0ba0c904e"},{"rt":1487.6050000020768,"stimulus":"img/spoon_alternate.jpg","response":"n","image":"img/spoon_alternate.jpg","old_or_new":"new","task":"recognition","trial_type":"image-keyboard-response","trial_index":27,"time_elapsed":150881,"internal_node_id":"0.0-3.0-0.12","subject_id":"6065d7fad06e2dd879f5142a","study_id":"606233c0e42b980319b6a18e","session_id":"608834a938d4f7d0ba0c904e","correct":true},{"rt":601.1199999993551,"stimulus":"\n      <p>How sure are you?</p>\n      <p>Rate your confidence in your answer from 1 (pure guess) to 5 (very sure) by pressing the corresponding button.</p>\n     ","response":4,"image":"img/spoon_alternate.jpg","task":"confidence","old_or_new":"new","trial_type":"html-button-response","trial_index":28,"time_elapsed":151484,"internal_node_id":"0.0-3.0-1.12","subject_id":"6065d7fad06e2dd879f5142a","study_id":"606233c0e42b980319b6a18e","session_id":"608834a938d4f7d0ba0c904e"},{"rt":11808.549999997922,"stimulus":"img/pencil_sharpener_alternate.jpg","response":"n","image":"img/pencil_sharpener_alternate.jpg","old_or_new":"new","task":"recognition","trial_type":"image-keyboard-response","trial_index":29,"time_elapsed":163796,"internal_node_id":"0.0-3.0-0.13","subject_id":"6065d7fad06e2dd879f5142a","study_id":"606233c0e42b980319b6a18e","session_id":"608834a938d4f7d0ba0c904e","correct":true},{"rt":1544.9249999983294,"stimulus":"\n      <p>How sure are you?</p>\n      <p>Rate your confidence in your answer from 1 (pure guess) to 5 (very sure) by pressing the corresponding button.</p>\n     ","response":1,"image":"img/pencil_sharpener_alternate.jpg","task":"confidence","old_or_new":"new","trial_type":"html-button-response","trial_index":30,"time_elapsed":165343,"internal_node_id":"0.0-3.0-1.13","subject_id":"6065d7fad06e2dd879f5142a","study_id":"606233c0e42b980319b6a18e","session_id":"608834a938d4f7d0ba0c904e"},{"rt":1191.1350000009406,"stimulus":"img/plate.jpg","response":"y","image":"img/plate.jpg","old_or_new":"old","task":"recognition","trial_type":"image-keyboard-response","trial_index":31,"time_elapsed":167037,"internal_node_id":"0.0-3.0-0.14","subject_id":"6065d7fad06e2dd879f5142a","study_id":"606233c0e42b980319b6a18e","session_id":"608834a938d4f7d0ba0c904e","correct":true},{"rt":841.8500000007043,"stimulus":"\n      <p>How sure are you?</p>\n      <p>Rate your confidence in your answer from 1 (pure guess) to 5 (very sure) by pressing the corresponding button.</p>\n     ","response":4,"image":"img/plate.jpg","task":"confidence","old_or_new":"old","trial_type":"html-button-response","trial_index":32,"time_elapsed":167880,"internal_node_id":"0.0-3.0-1.14","subject_id":"6065d7fad06e2dd879f5142a","study_id":"606233c0e42b980319b6a18e","session_id":"608834a938d4f7d0ba0c904e"},{"rt":1043.324999998731,"stimulus":"img/shoe_alternate.jpg","response":"n","image":"img/shoe_alternate.jpg","old_or_new":"new","task":"recognition","trial_type":"image-keyboard-response","trial_index":33,"time_elapsed":169431,"internal_node_id":"0.0-3.0-0.15","subject_id":"6065d7fad06e2dd879f5142a","study_id":"606233c0e42b980319b6a18e","session_id":"608834a938d4f7d0ba0c904e","correct":true},{"rt":501.7699999989418,"stimulus":"\n      <p>How sure are you?</p>\n      <p>Rate your confidence in your answer from 1 (pure guess) to 5 (very sure) by pressing the corresponding button.</p>\n     ","response":4,"image":"img/shoe_alternate.jpg","task":"confidence","old_or_new":"new","trial_type":"html-button-response","trial_index":34,"time_elapsed":169935,"internal_node_id":"0.0-3.0-1.15","subject_id":"6065d7fad06e2dd879f5142a","study_id":"606233c0e42b980319b6a18e","session_id":"608834a938d4f7d0ba0c904e"},{"rt":1101.5100000004168,"stimulus":"img/shoe.jpg","response":"y","image":"img/shoe.jpg","old_or_new":"old","task":"recognition","trial_type":"image-keyboard-response","trial_index":35,"time_elapsed":171539,"internal_node_id":"0.0-3.0-0.16","subject_id":"6065d7fad06e2dd879f5142a","study_id":"606233c0e42b980319b6a18e","session_id":"608834a938d4f7d0ba0c904e","correct":true},{"rt":503.71499999891967,"stimulus":"\n      <p>How sure are you?</p>\n      <p>Rate your confidence in your answer from 1 (pure guess) to 5 (very sure) by pressing the corresponding button.</p>\n     ","response":4,"image":"img/shoe.jpg","task":"confidence","old_or_new":"old","trial_type":"html-button-response","trial_index":36,"time_elapsed":172044,"internal_node_id":"0.0-3.0-1.16","subject_id":"6065d7fad06e2dd879f5142a","study_id":"606233c0e42b980319b6a18e","session_id":"608834a938d4f7d0ba0c904e"},{"rt":1832.7850000023318,"stimulus":"img/scissors_alternate.jpg","response":"n","image":"img/scissors_alternate.jpg","old_or_new":"new","task":"recognition","trial_type":"image-keyboard-response","trial_index":37,"time_elapsed":174381,"internal_node_id":"0.0-3.0-0.17","subject_id":"6065d7fad06e2dd879f5142a","study_id":"606233c0e42b980319b6a18e","session_id":"608834a938d4f7d0ba0c904e","correct":true},{"rt":495.1450000007753,"stimulus":"\n      <p>How sure are you?</p>\n      <p>Rate your confidence in your answer from 1 (pure guess) to 5 (very sure) by pressing the corresponding button.</p>\n     ","response":4,"image":"img/scissors_alternate.jpg","task":"confidence","old_or_new":"new","trial_type":"html-button-response","trial_index":38,"time_elapsed":174877,"internal_node_id":"0.0-3.0-1.17","subject_id":"6065d7fad06e2dd879f5142a","study_id":"606233c0e42b980319b6a18e","session_id":"608834a938d4f7d0ba0c904e"},{"rt":1811.6350000018429,"stimulus":"img/toaster.jpg","response":"y","image":"img/toaster.jpg","old_or_new":"old","task":"recognition","trial_type":"image-keyboard-response","trial_index":39,"time_elapsed":177192,"internal_node_id":"0.0-3.0-0.18","subject_id":"6065d7fad06e2dd879f5142a","study_id":"606233c0e42b980319b6a18e","session_id":"608834a938d4f7d0ba0c904e","correct":true},{"rt":1167.1650000025693,"stimulus":"\n      <p>How sure are you?</p>\n      <p>Rate your confidence in your answer from 1 (pure guess) to 5 (very sure) by pressing the corresponding button.</p>\n     ","response":4,"image":"img/toaster.jpg","task":"confidence","old_or_new":"old","trial_type":"html-button-response","trial_index":40,"time_elapsed":178361,"internal_node_id":"0.0-3.0-1.18","subject_id":"6065d7fad06e2dd879f5142a","study_id":"606233c0e42b980319b6a18e","session_id":"608834a938d4f7d0ba0c904e"},{"rt":1045.7549999991897,"stimulus":"img/power_cord.jpg","response":"y","image":"img/power_cord.jpg","old_or_new":"old","task":"recognition","trial_type":"image-keyboard-response","trial_index":41,"time_elapsed":179914,"internal_node_id":"0.0-3.0-0.19","subject_id":"6065d7fad06e2dd879f5142a","study_id":"606233c0e42b980319b6a18e","session_id":"608834a938d4f7d0ba0c904e","correct":true},{"rt":530.8550000008836,"stimulus":"\n      <p>How sure are you?</p>\n      <p>Rate your confidence in your answer from 1 (pure guess) to 5 (very sure) by pressing the corresponding button.</p>\n     ","response":4,"image":"img/power_cord.jpg","task":"confidence","old_or_new":"old","trial_type":"html-button-response","trial_index":42,"time_elapsed":180446,"internal_node_id":"0.0-3.0-1.19","subject_id":"6065d7fad06e2dd879f5142a","study_id":"606233c0e42b980319b6a18e","session_id":"608834a938d4f7d0ba0c904e"},{"rt":4219.7050000031595,"stimulus":"img/knife_alternate.jpg","response":"n","image":"img/knife_alternate.jpg","old_or_new":"new","task":"recognition","trial_type":"image-keyboard-response","trial_index":43,"time_elapsed":185171,"internal_node_id":"0.0-3.0-0.20","subject_id":"6065d7fad06e2dd879f5142a","study_id":"606233c0e42b980319b6a18e","session_id":"608834a938d4f7d0ba0c904e","correct":true},{"rt":697.4100000006729,"stimulus":"\n      <p>How sure are you?</p>\n      <p>Rate your confidence in your answer from 1 (pure guess) to 5 (very sure) by pressing the corresponding button.</p>\n     ","response":4,"image":"img/knife_alternate.jpg","task":"confidence","old_or_new":"new","trial_type":"html-button-response","trial_index":44,"time_elapsed":185870,"internal_node_id":"0.0-3.0-1.20","subject_id":"6065d7fad06e2dd879f5142a","study_id":"606233c0e42b980319b6a18e","session_id":"608834a938d4f7d0ba0c904e"},{"rt":986.9399999988673,"stimulus":"img/watch_alternate.jpg","response":"n","image":"img/watch_alternate.jpg","old_or_new":"new","task":"recognition","trial_type":"image-keyboard-response","trial_index":45,"time_elapsed":187363,"internal_node_id":"0.0-3.0-0.21","subject_id":"6065d7fad06e2dd879f5142a","study_id":"606233c0e42b980319b6a18e","session_id":"608834a938d4f7d0ba0c904e","correct":true},{"rt":583.7649999994028,"stimulus":"\n      <p>How sure are you?</p>\n      <p>Rate your confidence in your answer from 1 (pure guess) to 5 (very sure) by pressing the corresponding button.</p>\n     ","response":4,"image":"img/watch_alternate.jpg","task":"confidence","old_or_new":"new","trial_type":"html-button-response","trial_index":46,"time_elapsed":187948,"internal_node_id":"0.0-3.0-1.21","subject_id":"6065d7fad06e2dd879f5142a","study_id":"606233c0e42b980319b6a18e","session_id":"608834a938d4f7d0ba0c904e"},{"rt":2293.870000001334,"stimulus":"img/shovel.jpg","response":"y","image":"img/shovel.jpg","old_or_new":"old","task":"recognition","trial_type":"image-keyboard-response","trial_index":47,"time_elapsed":190745,"internal_node_id":"0.0-3.0-0.22","subject_id":"6065d7fad06e2dd879f5142a","study_id":"606233c0e42b980319b6a18e","session_id":"608834a938d4f7d0ba0c904e","correct":true},{"rt":555.899999999383,"stimulus":"\n      <p>How sure are you?</p>\n      <p>Rate your confidence in your answer from 1 (pure guess) to 5 (very sure) by pressing the corresponding button.</p>\n     ","response":4,"image":"img/shovel.jpg","task":"confidence","old_or_new":"old","trial_type":"html-button-response","trial_index":48,"time_elapsed":191302,"internal_node_id":"0.0-3.0-1.22","subject_id":"6065d7fad06e2dd879f5142a","study_id":"606233c0e42b980319b6a18e","session_id":"608834a938d4f7d0ba0c904e"},{"rt":1183.339999999589,"stimulus":"img/scissors.jpg","response":"n","image":"img/scissors.jpg","old_or_new":"old","task":"recognition","trial_type":"image-keyboard-response","trial_index":49,"time_elapsed":192991,"internal_node_id":"0.0-3.0-0.23","subject_id":"6065d7fad06e2dd879f5142a","study_id":"606233c0e42b980319b6a18e","session_id":"608834a938d4f7d0ba0c904e","correct":false},{"rt":516.6299999982584,"stimulus":"\n      <p>How sure are you?</p>\n      <p>Rate your confidence in your answer from 1 (pure guess) to 5 (very sure) by pressing the corresponding button.</p>\n     ","response":4,"image":"img/scissors.jpg","task":"confidence","old_or_new":"old","trial_type":"html-button-response","trial_index":50,"time_elapsed":193509,"internal_node_id":"0.0-3.0-1.23","subject_id":"6065d7fad06e2dd879f5142a","study_id":"606233c0e42b980319b6a18e","session_id":"608834a938d4f7d0ba0c904e"},{"rt":938.9499999997497,"stimulus":"img/plate_alternate.jpg","response":"n","image":"img/plate_alternate.jpg","old_or_new":"new","task":"recognition","trial_type":"image-keyboard-response","trial_index":51,"time_elapsed":194954,"internal_node_id":"0.0-3.0-0.24","subject_id":"6065d7fad06e2dd879f5142a","study_id":"606233c0e42b980319b6a18e","session_id":"608834a938d4f7d0ba0c904e","correct":true},{"rt":518.6899999971502,"stimulus":"\n      <p>How sure are you?</p>\n      <p>Rate your confidence in your answer from 1 (pure guess) to 5 (very sure) by pressing the corresponding button.</p>\n     ","response":4,"image":"img/plate_alternate.jpg","task":"confidence","old_or_new":"new","trial_type":"html-button-response","trial_index":52,"time_elapsed":195474,"internal_node_id":"0.0-3.0-1.24","subject_id":"6065d7fad06e2dd879f5142a","study_id":"606233c0e42b980319b6a18e","session_id":"608834a938d4f7d0ba0c904e"},{"rt":886.6249999991851,"stimulus":"img/sink_alternate.jpg","response":"n","image":"img/sink_alternate.jpg","old_or_new":"new","task":"recognition","trial_type":"image-keyboard-response","trial_index":53,"time_elapsed":196868,"internal_node_id":"0.0-3.0-0.25","subject_id":"6065d7fad06e2dd879f5142a","study_id":"606233c0e42b980319b6a18e","session_id":"608834a938d4f7d0ba0c904e","correct":true},{"rt":465.1499999999942,"stimulus":"\n      <p>How sure are you?</p>\n      <p>Rate your confidence in your answer from 1 (pure guess) to 5 (very sure) by pressing the corresponding button.</p>\n     ","response":4,"image":"img/sink_alternate.jpg","task":"confidence","old_or_new":"new","trial_type":"html-button-response","trial_index":54,"time_elapsed":197334,"internal_node_id":"0.0-3.0-1.25","subject_id":"6065d7fad06e2dd879f5142a","study_id":"606233c0e42b980319b6a18e","session_id":"608834a938d4f7d0ba0c904e"},{"rt":1228.240000000369,"stimulus":"img/plane.jpg","response":"y","image":"img/plane.jpg","old_or_new":"old","task":"recognition","trial_type":"image-keyboard-response","trial_index":55,"time_elapsed":199067,"internal_node_id":"0.0-3.0-0.26","subject_id":"6065d7fad06e2dd879f5142a","study_id":"606233c0e42b980319b6a18e","session_id":"608834a938d4f7d0ba0c904e","correct":true},{"rt":521.1749999980384,"stimulus":"\n      <p>How sure are you?</p>\n      <p>Rate your confidence in your answer from 1 (pure guess) to 5 (very sure) by pressing the corresponding button.</p>\n     ","response":4,"image":"img/plane.jpg","task":"confidence","old_or_new":"old","trial_type":"html-button-response","trial_index":56,"time_elapsed":199590,"internal_node_id":"0.0-3.0-1.26","subject_id":"6065d7fad06e2dd879f5142a","study_id":"606233c0e42b980319b6a18e","session_id":"608834a938d4f7d0ba0c904e"},{"rt":1026.3899999990826,"stimulus":"img/seashell_alternate.jpg","response":"n","image":"img/seashell_alternate.jpg","old_or_new":"new","task":"recognition","trial_type":"image-keyboard-response","trial_index":57,"time_elapsed":201123,"internal_node_id":"0.0-3.0-0.27","subject_id":"6065d7fad06e2dd879f5142a","study_id":"606233c0e42b980319b6a18e","session_id":"608834a938d4f7d0ba0c904e","correct":true},{"rt":454.5650000000023,"stimulus":"\n      <p>How sure are you?</p>\n      <p>Rate your confidence in your answer from 1 (pure guess) to 5 (very sure) by pressing the corresponding button.</p>\n     ","response":4,"image":"img/seashell_alternate.jpg","task":"confidence","old_or_new":"new","trial_type":"html-button-response","trial_index":58,"time_elapsed":201579,"internal_node_id":"0.0-3.0-1.27","subject_id":"6065d7fad06e2dd879f5142a","study_id":"606233c0e42b980319b6a18e","session_id":"608834a938d4f7d0ba0c904e"},{"rt":1828.815000000759,"stimulus":"img/tv_alternate.jpg","response":"n","image":"img/tv_alternate.jpg","old_or_new":"new","task":"recognition","trial_type":"image-keyboard-response","trial_index":59,"time_elapsed":203912,"internal_node_id":"0.0-3.0-0.28","subject_id":"6065d7fad06e2dd879f5142a","study_id":"606233c0e42b980319b6a18e","session_id":"608834a938d4f7d0ba0c904e","correct":true},{"rt":449.92500000080327,"stimulus":"\n      <p>How sure are you?</p>\n      <p>Rate your confidence in your answer from 1 (pure guess) to 5 (very sure) by pressing the corresponding button.</p>\n     ","response":4,"image":"img/tv_alternate.jpg","task":"confidence","old_or_new":"new","trial_type":"html-button-response","trial_index":60,"time_elapsed":204363,"internal_node_id":"0.0-3.0-1.28","subject_id":"6065d7fad06e2dd879f5142a","study_id":"606233c0e42b980319b6a18e","session_id":"608834a938d4f7d0ba0c904e"},{"rt":1267.7199999998265,"stimulus":"img/watch.jpg","response":"y","image":"img/watch.jpg","old_or_new":"old","task":"recognition","trial_type":"image-keyboard-response","trial_index":61,"time_elapsed":206139,"internal_node_id":"0.0-3.0-0.29","subject_id":"6065d7fad06e2dd879f5142a","study_id":"606233c0e42b980319b6a18e","session_id":"608834a938d4f7d0ba0c904e","correct":true},{"rt":559.224999997241,"stimulus":"\n      <p>How sure are you?</p>\n      <p>Rate your confidence in your answer from 1 (pure guess) to 5 (very sure) by pressing the corresponding button.</p>\n     ","response":4,"image":"img/watch.jpg","task":"confidence","old_or_new":"old","trial_type":"html-button-response","trial_index":62,"time_elapsed":206699,"internal_node_id":"0.0-3.0-1.29","subject_id":"6065d7fad06e2dd879f5142a","study_id":"606233c0e42b980319b6a18e","session_id":"608834a938d4f7d0ba0c904e"},{"rt":1040.5399999981455,"stimulus":"img/shirt.jpg","response":"y","image":"img/shirt.jpg","old_or_new":"old","task":"recognition","trial_type":"image-keyboard-response","trial_index":63,"time_elapsed":208247,"internal_node_id":"0.0-3.0-0.30","subject_id":"6065d7fad06e2dd879f5142a","study_id":"606233c0e42b980319b6a18e","session_id":"608834a938d4f7d0ba0c904e","correct":true},{"rt":480.38000000087777,"stimulus":"\n      <p>How sure are you?</p>\n      <p>Rate your confidence in your answer from 1 (pure guess) to 5 (very sure) by pressing the corresponding button.</p>\n     ","response":4,"image":"img/shirt.jpg","task":"confidence","old_or_new":"old","trial_type":"html-button-response","trial_index":64,"time_elapsed":208729,"internal_node_id":"0.0-3.0-1.30","subject_id":"6065d7fad06e2dd879f5142a","study_id":"606233c0e42b980319b6a18e","session_id":"608834a938d4f7d0ba0c904e"},{"rt":1058.6649999968358,"stimulus":"img/shirt_alternate.jpg","response":"n","image":"img/shirt_alternate.jpg","old_or_new":"new","task":"recognition","trial_type":"image-keyboard-response","trial_index":65,"time_elapsed":210295,"internal_node_id":"0.0-3.0-0.31","subject_id":"6065d7fad06e2dd879f5142a","study_id":"606233c0e42b980319b6a18e","session_id":"608834a938d4f7d0ba0c904e","correct":true},{"rt":510.10999999925843,"stimulus":"\n      <p>How sure are you?</p>\n      <p>Rate your confidence in your answer from 1 (pure guess) to 5 (very sure) by pressing the corresponding button.</p>\n     ","response":4,"image":"img/shirt_alternate.jpg","task":"confidence","old_or_new":"new","trial_type":"html-button-response","trial_index":66,"time_elapsed":210806,"internal_node_id":"0.0-3.0-1.31","subject_id":"6065d7fad06e2dd879f5142a","study_id":"606233c0e42b980319b6a18e","session_id":"608834a938d4f7d0ba0c904e"},{"rt":1096.8050000010408,"stimulus":"img/yarn.jpg","response":"y","image":"img/yarn.jpg","old_or_new":"old","task":"recognition","trial_type":"image-keyboard-response","trial_index":67,"time_elapsed":212407,"internal_node_id":"0.0-3.0-0.32","subject_id":"6065d7fad06e2dd879f5142a","study_id":"606233c0e42b980319b6a18e","session_id":"608834a938d4f7d0ba0c904e","correct":true},{"rt":508.3999999988009,"stimulus":"\n      <p>How sure are you?</p>\n      <p>Rate your confidence in your answer from 1 (pure guess) to 5 (very sure) by pressing the corresponding button.</p>\n     ","response":4,"image":"img/yarn.jpg","task":"confidence","old_or_new":"old","trial_type":"html-button-response","trial_index":68,"time_elapsed":212917,"internal_node_id":"0.0-3.0-1.32","subject_id":"6065d7fad06e2dd879f5142a","study_id":"606233c0e42b980319b6a18e","session_id":"608834a938d4f7d0ba0c904e"},{"rt":970.3950000002806,"stimulus":"img/power_cord_alternate.jpg","response":"n","image":"img/power_cord_alternate.jpg","old_or_new":"new","task":"recognition","trial_type":"image-keyboard-response","trial_index":69,"time_elapsed":214393,"internal_node_id":"0.0-3.0-0.33","subject_id":"6065d7fad06e2dd879f5142a","study_id":"606233c0e42b980319b6a18e","session_id":"608834a938d4f7d0ba0c904e","correct":true},{"rt":508.5949999993318,"stimulus":"\n      <p>How sure are you?</p>\n      <p>Rate your confidence in your answer from 1 (pure guess) to 5 (very sure) by pressing the corresponding button.</p>\n     ","response":4,"image":"img/power_cord_alternate.jpg","task":"confidence","old_or_new":"new","trial_type":"html-button-response","trial_index":70,"time_elapsed":214906,"internal_node_id":"0.0-3.0-1.33","subject_id":"6065d7fad06e2dd879f5142a","study_id":"606233c0e42b980319b6a18e","session_id":"608834a938d4f7d0ba0c904e"},{"rt":920.4950000021199,"stimulus":"img/trophy_alternate.jpg","response":"n","image":"img/trophy_alternate.jpg","old_or_new":"new","task":"recognition","trial_type":"image-keyboard-response","trial_index":71,"time_elapsed":216334,"internal_node_id":"0.0-3.0-0.34","subject_id":"6065d7fad06e2dd879f5142a","study_id":"606233c0e42b980319b6a18e","session_id":"608834a938d4f7d0ba0c904e","correct":true},{"rt":446.45499999751337,"stimulus":"\n      <p>How sure are you?</p>\n      <p>Rate your confidence in your answer from 1 (pure guess) to 5 (very sure) by pressing the corresponding button.</p>\n     ","response":4,"image":"img/trophy_alternate.jpg","task":"confidence","old_or_new":"new","trial_type":"html-button-response","trial_index":72,"time_elapsed":216782,"internal_node_id":"0.0-3.0-1.34","subject_id":"6065d7fad06e2dd879f5142a","study_id":"606233c0e42b980319b6a18e","session_id":"608834a938d4f7d0ba0c904e"},{"rt":5861.94500000056,"stimulus":"img/shovel_alternate.jpg","response":"n","image":"img/shovel_alternate.jpg","old_or_new":"new","task":"recognition","trial_type":"image-keyboard-response","trial_index":73,"time_elapsed":223152,"internal_node_id":"0.0-3.0-0.35","subject_id":"6065d7fad06e2dd879f5142a","study_id":"606233c0e42b980319b6a18e","session_id":"608834a938d4f7d0ba0c904e","correct":true},{"rt":1711.250000000291,"stimulus":"\n      <p>How sure are you?</p>\n      <p>Rate your confidence in your answer from 1 (pure guess) to 5 (very sure) by pressing the corresponding button.</p>\n     ","response":1,"image":"img/shovel_alternate.jpg","task":"confidence","old_or_new":"new","trial_type":"html-button-response","trial_index":74,"time_elapsed":224865,"internal_node_id":"0.0-3.0-1.35","subject_id":"6065d7fad06e2dd879f5142a","study_id":"606233c0e42b980319b6a18e","session_id":"608834a938d4f7d0ba0c904e"},{"rt":1268.4899999985646,"stimulus":"img/rolling_pin_alternate.jpg","response":"n","image":"img/rolling_pin_alternate.jpg","old_or_new":"new","task":"recognition","trial_type":"image-keyboard-response","trial_index":75,"time_elapsed":226640,"internal_node_id":"0.0-3.0-0.36","subject_id":"6065d7fad06e2dd879f5142a","study_id":"606233c0e42b980319b6a18e","session_id":"608834a938d4f7d0ba0c904e","correct":true},{"rt":4328.474999998434,"stimulus":"\n      <p>How sure are you?</p>\n      <p>Rate your confidence in your answer from 1 (pure guess) to 5 (very sure) by pressing the corresponding button.</p>\n     ","response":1,"image":"img/rolling_pin_alternate.jpg","task":"confidence","old_or_new":"new","trial_type":"html-button-response","trial_index":76,"time_elapsed":230970,"internal_node_id":"0.0-3.0-1.36","subject_id":"6065d7fad06e2dd879f5142a","study_id":"606233c0e42b980319b6a18e","session_id":"608834a938d4f7d0ba0c904e"},{"rt":1428.5349999991013,"stimulus":"img/pencil_sharpener.jpg","response":"y","image":"img/pencil_sharpener.jpg","old_or_new":"old","task":"recognition","trial_type":"image-keyboard-response","trial_index":77,"time_elapsed":232901,"internal_node_id":"0.0-3.0-0.37","subject_id":"6065d7fad06e2dd879f5142a","study_id":"606233c0e42b980319b6a18e","session_id":"608834a938d4f7d0ba0c904e","correct":true},{"rt":1078.4700000003795,"stimulus":"\n      <p>How sure are you?</p>\n      <p>Rate your confidence in your answer from 1 (pure guess) to 5 (very sure) by pressing the corresponding button.</p>\n     ","response":4,"image":"img/pencil_sharpener.jpg","task":"confidence","old_or_new":"old","trial_type":"html-button-response","trial_index":78,"time_elapsed":233981,"internal_node_id":"0.0-3.0-1.37","subject_id":"6065d7fad06e2dd879f5142a","study_id":"606233c0e42b980319b6a18e","session_id":"608834a938d4f7d0ba0c904e"},{"rt":1170.3550000020186,"stimulus":"img/trophy.jpg","response":"n","image":"img/trophy.jpg","old_or_new":"old","task":"recognition","trial_type":"image-keyboard-response","trial_index":79,"time_elapsed":235655,"internal_node_id":"0.0-3.0-0.38","subject_id":"6065d7fad06e2dd879f5142a","study_id":"606233c0e42b980319b6a18e","session_id":"608834a938d4f7d0ba0c904e","correct":false},{"rt":693.280000003142,"stimulus":"\n      <p>How sure are you?</p>\n      <p>Rate your confidence in your answer from 1 (pure guess) to 5 (very sure) by pressing the corresponding button.</p>\n     ","response":4,"image":"img/trophy.jpg","task":"confidence","old_or_new":"old","trial_type":"html-button-response","trial_index":80,"time_elapsed":236350,"internal_node_id":"0.0-3.0-1.38","subject_id":"6065d7fad06e2dd879f5142a","study_id":"606233c0e42b980319b6a18e","session_id":"608834a938d4f7d0ba0c904e"},{"rt":1063.1450000000768,"stimulus":"img/rolling_pin.jpg","response":"y","image":"img/rolling_pin.jpg","old_or_new":"old","task":"recognition","trial_type":"image-keyboard-response","trial_index":81,"time_elapsed":237917,"internal_node_id":"0.0-3.0-0.39","subject_id":"6065d7fad06e2dd879f5142a","study_id":"606233c0e42b980319b6a18e","session_id":"608834a938d4f7d0ba0c904e","correct":true},{"rt":581.6349999986414,"stimulus":"\n      <p>How sure are you?</p>\n      <p>Rate your confidence in your answer from 1 (pure guess) to 5 (very sure) by pressing the corresponding button.</p>\n     ","response":4,"image":"img/rolling_pin.jpg","task":"confidence","old_or_new":"old","trial_type":"html-button-response","trial_index":82,"time_elapsed":238500,"internal_node_id":"0.0-3.0-1.39","subject_id":"6065d7fad06e2dd879f5142a","study_id":"606233c0e42b980319b6a18e","session_id":"608834a938d4f7d0ba0c904e"},{"rt":1117.8150000014284,"stimulus":"img/sink.jpg","response":"n","image":"img/sink.jpg","old_or_new":"old","task":"recognition","trial_type":"image-keyboard-response","trial_index":83,"time_elapsed":240123,"internal_node_id":"0.0-3.0-0.40","subject_id":"6065d7fad06e2dd879f5142a","study_id":"606233c0e42b980319b6a18e","session_id":"608834a938d4f7d0ba0c904e","correct":false},{"rt":525.4150000000664,"stimulus":"\n      <p>How sure are you?</p>\n      <p>Rate your confidence in your answer from 1 (pure guess) to 5 (very sure) by pressing the corresponding button.</p>\n     ","response":4,"image":"img/sink.jpg","task":"confidence","old_or_new":"old","trial_type":"html-button-response","trial_index":84,"time_elapsed":240650,"internal_node_id":"0.0-3.0-1.40","subject_id":"6065d7fad06e2dd879f5142a","study_id":"606233c0e42b980319b6a18e","session_id":"608834a938d4f7d0ba0c904e"},{"rt":1076.8499999976484,"stimulus":"img/plane_alternate.jpg","response":"n","image":"img/plane_alternate.jpg","old_or_new":"new","task":"recognition","trial_type":"image-keyboard-response","trial_index":85,"time_elapsed":242234,"internal_node_id":"0.0-3.0-0.41","subject_id":"6065d7fad06e2dd879f5142a","study_id":"606233c0e42b980319b6a18e","session_id":"608834a938d4f7d0ba0c904e","correct":true},{"rt":532.7450000004319,"stimulus":"\n      <p>How sure are you?</p>\n      <p>Rate your confidence in your answer from 1 (pure guess) to 5 (very sure) by pressing the corresponding button.</p>\n     ","response":4,"image":"img/plane_alternate.jpg","task":"confidence","old_or_new":"new","trial_type":"html-button-response","trial_index":86,"time_elapsed":242769,"internal_node_id":"0.0-3.0-1.41","subject_id":"6065d7fad06e2dd879f5142a","study_id":"606233c0e42b980319b6a18e","session_id":"608834a938d4f7d0ba0c904e"},{"rt":1114.6600000029139,"stimulus":"img/wheel_barrow.jpg","response":"y","image":"img/wheel_barrow.jpg","old_or_new":"old","task":"recognition","trial_type":"image-keyboard-response","trial_index":87,"time_elapsed":244390,"internal_node_id":"0.0-3.0-0.42","subject_id":"6065d7fad06e2dd879f5142a","study_id":"606233c0e42b980319b6a18e","session_id":"608834a938d4f7d0ba0c904e","correct":true},{"rt":526.9499999994878,"stimulus":"\n      <p>How sure are you?</p>\n      <p>Rate your confidence in your answer from 1 (pure guess) to 5 (very sure) by pressing the corresponding button.</p>\n     ","response":4,"image":"img/wheel_barrow.jpg","task":"confidence","old_or_new":"old","trial_type":"html-button-response","trial_index":88,"time_elapsed":244919,"internal_node_id":"0.0-3.0-1.42","subject_id":"6065d7fad06e2dd879f5142a","study_id":"606233c0e42b980319b6a18e","session_id":"608834a938d4f7d0ba0c904e"},{"rt":841.0349999976461,"stimulus":"img/yarn_alternate.jpg","response":"n","image":"img/yarn_alternate.jpg","old_or_new":"new","task":"recognition","trial_type":"image-keyboard-response","trial_index":89,"time_elapsed":246262,"internal_node_id":"0.0-3.0-0.43","subject_id":"6065d7fad06e2dd879f5142a","study_id":"606233c0e42b980319b6a18e","session_id":"608834a938d4f7d0ba0c904e","correct":true},{"rt":491.6400000001886,"stimulus":"\n      <p>How sure are you?</p>\n      <p>Rate your confidence in your answer from 1 (pure guess) to 5 (very sure) by pressing the corresponding button.</p>\n     ","response":4,"image":"img/yarn_alternate.jpg","task":"confidence","old_or_new":"new","trial_type":"html-button-response","trial_index":90,"time_elapsed":246755,"internal_node_id":"0.0-3.0-1.43","subject_id":"6065d7fad06e2dd879f5142a","study_id":"606233c0e42b980319b6a18e","session_id":"608834a938d4f7d0ba0c904e"},{"rt":1074.4700000032026,"stimulus":"img/umbrella.jpg","response":"y","image":"img/umbrella.jpg","old_or_new":"old","task":"recognition","trial_type":"image-keyboard-response","trial_index":91,"time_elapsed":248334,"internal_node_id":"0.0-3.0-0.44","subject_id":"6065d7fad06e2dd879f5142a","study_id":"606233c0e42b980319b6a18e","session_id":"608834a938d4f7d0ba0c904e","correct":true},{"rt":489.1349999998056,"stimulus":"\n      <p>How sure are you?</p>\n      <p>Rate your confidence in your answer from 1 (pure guess) to 5 (very sure) by pressing the corresponding button.</p>\n     ","response":4,"image":"img/umbrella.jpg","task":"confidence","old_or_new":"old","trial_type":"html-button-response","trial_index":92,"time_elapsed":248825,"internal_node_id":"0.0-3.0-1.44","subject_id":"6065d7fad06e2dd879f5142a","study_id":"606233c0e42b980319b6a18e","session_id":"608834a938d4f7d0ba0c904e"},{"rt":1937.8900000010617,"stimulus":"img/knife.jpg","response":"y","image":"img/knife.jpg","old_or_new":"old","task":"recognition","trial_type":"image-keyboard-response","trial_index":93,"time_elapsed":251270,"internal_node_id":"0.0-3.0-0.45","subject_id":"6065d7fad06e2dd879f5142a","study_id":"606233c0e42b980319b6a18e","session_id":"608834a938d4f7d0ba0c904e","correct":true},{"rt":698.9450000000943,"stimulus":"\n      <p>How sure are you?</p>\n      <p>Rate your confidence in your answer from 1 (pure guess) to 5 (very sure) by pressing the corresponding button.</p>\n     ","response":4,"image":"img/knife.jpg","task":"confidence","old_or_new":"old","trial_type":"html-button-response","trial_index":94,"time_elapsed":251971,"internal_node_id":"0.0-3.0-1.45","subject_id":"6065d7fad06e2dd879f5142a","study_id":"606233c0e42b980319b6a18e","session_id":"608834a938d4f7d0ba0c904e"},{"rt":945.2749999982188,"stimulus":"img/wheel_barrow_alternate.jpg","response":"n","image":"img/wheel_barrow_alternate.jpg","old_or_new":"new","task":"recognition","trial_type":"image-keyboard-response","trial_index":95,"time_elapsed":253419,"internal_node_id":"0.0-3.0-0.46","subject_id":"6065d7fad06e2dd879f5142a","study_id":"606233c0e42b980319b6a18e","session_id":"608834a938d4f7d0ba0c904e","correct":true},{"rt":474.6899999991001,"stimulus":"\n      <p>How sure are you?</p>\n      <p>Rate your confidence in your answer from 1 (pure guess) to 5 (very sure) by pressing the corresponding button.</p>\n     ","response":4,"image":"img/wheel_barrow_alternate.jpg","task":"confidence","old_or_new":"new","trial_type":"html-button-response","trial_index":96,"time_elapsed":253895,"internal_node_id":"0.0-3.0-1.46","subject_id":"6065d7fad06e2dd879f5142a","study_id":"606233c0e42b980319b6a18e","session_id":"608834a938d4f7d0ba0c904e"},{"rt":1034.5550000020012,"stimulus":"img/skates.jpg","response":"y","image":"img/skates.jpg","old_or_new":"old","task":"recognition","trial_type":"image-keyboard-response","trial_index":97,"time_elapsed":255436,"internal_node_id":"0.0-3.0-0.47","subject_id":"6065d7fad06e2dd879f5142a","study_id":"606233c0e42b980319b6a18e","session_id":"608834a938d4f7d0ba0c904e","correct":true},{"rt":503.1249999992724,"stimulus":"\n      <p>How sure are you?</p>\n      <p>Rate your confidence in your answer from 1 (pure guess) to 5 (very sure) by pressing the corresponding button.</p>\n     ","response":4,"image":"img/skates.jpg","task":"confidence","old_or_new":"old","trial_type":"html-button-response","trial_index":98,"time_elapsed":255941,"internal_node_id":"0.0-3.0-1.47","subject_id":"6065d7fad06e2dd879f5142a","study_id":"606233c0e42b980319b6a18e","session_id":"608834a938d4f7d0ba0c904e"}]