[{"success":true,"timeout":false,"failed_images":[],"failed_audio":[],"failed_video":[],"trial_type":"preload","trial_index":0,"time_elapsed":8021,"internal_node_id":"0.0-0.0","subject_id":"5b6ee654024b250001f442bc","study_id":"607de2837874a824e2e8c6ec","session_id":"60885111b06217bd9097a523"},{"rt":3245.9699999999993,"stimulus":"\n      <div style=\"width:800px; text-align: left;\">\n        <p>Welcome to day 2 of the experiment! Thanks for coming back.</p>\n        <p>You will be presented with a series of images. Images will appear one at a time.</p>\n        <p>Each image will remain on the screen until you press either <span style=\"font-weight: bold;\">\"y\" to indicate you have seen the \n        exact same photo the day before or \"n\" to indicate you have not seen the exact same photo the day before.</span></p>\n        <p>After you answer yes (\"y\") or no (\"n\"), you will then be prompted to rate your certainty on a scale of\n        1 (pure guess) to 5 (very sure).</p>\n      </div>\n    ","response":0,"trial_type":"html-button-response","trial_index":1,"time_elapsed":11274,"internal_node_id":"0.0-1.0","subject_id":"5b6ee654024b250001f442bc","study_id":"607de2837874a824e2e8c6ec","session_id":"60885111b06217bd9097a523"},{"success":true,"trial_type":"fullscreen","trial_index":2,"time_elapsed":14030,"internal_node_id":"0.0-2.0","subject_id":"5b6ee654024b250001f442bc","study_id":"607de2837874a824e2e8c6ec","session_id":"60885111b06217bd9097a523"},{"rt":1326.7400000000034,"stimulus":"img/basket.jpg","response":"y","image":"img/basket.jpg","old_or_new":"old","task":"recognition","trial_type":"image-keyboard-response","trial_index":3,"time_elapsed":15387,"internal_node_id":"0.0-3.0-0.0","subject_id":"5b6ee654024b250001f442bc","study_id":"607de2837874a824e2e8c6ec","session_id":"60885111b06217bd9097a523","correct":true},{"rt":1796.9599999999991,"stimulus":"\n      <p>How sure are you?</p>\n      <p>Rate your confidence in your answer from 1 (pure guess) to 5 (very sure) by pressing the corresponding button.</p>\n     ","response":4,"image":"img/basket.jpg","task":"confidence","old_or_new":"old","trial_type":"html-button-response","trial_index":4,"time_elapsed":17188,"internal_node_id":"0.0-3.0-1.0","subject_id":"5b6ee654024b250001f442bc","study_id":"607de2837874a824e2e8c6ec","session_id":"60885111b06217bd9097a523"},{"rt":959.8899999999994,"stimulus":"img/ladder.jpg","response":"y","image":"img/ladder.jpg","old_or_new":"old","task":"recognition","trial_type":"image-keyboard-response","trial_index":5,"time_elapsed":18651,"internal_node_id":"0.0-3.0-0.1","subject_id":"5b6ee654024b250001f442bc","study_id":"607de2837874a824e2e8c6ec","session_id":"60885111b06217bd9097a523","correct":true},{"rt":1415.6549999999988,"stimulus":"\n      <p>How sure are you?</p>\n      <p>Rate your confidence in your answer from 1 (pure guess) to 5 (very sure) by pressing the corresponding button.</p>\n     ","response":4,"image":"img/ladder.jpg","task":"confidence","old_or_new":"old","trial_type":"html-button-response","trial_index":6,"time_elapsed":20069,"internal_node_id":"0.0-3.0-1.1","subject_id":"5b6ee654024b250001f442bc","study_id":"607de2837874a824e2e8c6ec","session_id":"60885111b06217bd9097a523"},{"rt":1344.7400000000016,"stimulus":"img/folder_alternate.jpg","response":"n","image":"img/folder_alternate.jpg","old_or_new":"new","task":"recognition","trial_type":"image-keyboard-response","trial_index":7,"time_elapsed":21921,"internal_node_id":"0.0-3.0-0.2","subject_id":"5b6ee654024b250001f442bc","study_id":"607de2837874a824e2e8c6ec","session_id":"60885111b06217bd9097a523","correct":true},{"rt":2148.064999999988,"stimulus":"\n      <p>How sure are you?</p>\n      <p>Rate your confidence in your answer from 1 (pure guess) to 5 (very sure) by pressing the corresponding button.</p>\n     ","response":4,"image":"img/folder_alternate.jpg","task":"confidence","old_or_new":"new","trial_type":"html-button-response","trial_index":8,"time_elapsed":24074,"internal_node_id":"0.0-3.0-1.2","subject_id":"5b6ee654024b250001f442bc","study_id":"607de2837874a824e2e8c6ec","session_id":"60885111b06217bd9097a523"},{"rt":1086.1349999999984,"stimulus":"img/fan.jpg","response":"y","image":"img/fan.jpg","old_or_new":"old","task":"recognition","trial_type":"image-keyboard-response","trial_index":9,"time_elapsed":25664,"internal_node_id":"0.0-3.0-0.3","subject_id":"5b6ee654024b250001f442bc","study_id":"607de2837874a824e2e8c6ec","session_id":"60885111b06217bd9097a523","correct":true},{"rt":1201.3950000000077,"stimulus":"\n      <p>How sure are you?</p>\n      <p>Rate your confidence in your answer from 1 (pure guess) to 5 (very sure) by pressing the corresponding button.</p>\n     ","response":4,"image":"img/fan.jpg","task":"confidence","old_or_new":"old","trial_type":"html-button-response","trial_index":10,"time_elapsed":26869,"internal_node_id":"0.0-3.0-1.3","subject_id":"5b6ee654024b250001f442bc","study_id":"607de2837874a824e2e8c6ec","session_id":"60885111b06217bd9097a523"},{"rt":1161.5950000000048,"stimulus":"img/chair.jpg","response":"y","image":"img/chair.jpg","old_or_new":"old","task":"recognition","trial_type":"image-keyboard-response","trial_index":11,"time_elapsed":28536,"internal_node_id":"0.0-3.0-0.4","subject_id":"5b6ee654024b250001f442bc","study_id":"607de2837874a824e2e8c6ec","session_id":"60885111b06217bd9097a523","correct":true},{"rt":1174.2100000000028,"stimulus":"\n      <p>How sure are you?</p>\n      <p>Rate your confidence in your answer from 1 (pure guess) to 5 (very sure) by pressing the corresponding button.</p>\n     ","response":4,"image":"img/chair.jpg","task":"confidence","old_or_new":"old","trial_type":"html-button-response","trial_index":12,"time_elapsed":29714,"internal_node_id":"0.0-3.0-1.4","subject_id":"5b6ee654024b250001f442bc","study_id":"607de2837874a824e2e8c6ec","session_id":"60885111b06217bd9097a523"},{"rt":2833.290000000001,"stimulus":"img/apple_alternate.jpg","response":"n","image":"img/apple_alternate.jpg","old_or_new":"new","task":"recognition","trial_type":"image-keyboard-response","trial_index":13,"time_elapsed":33053,"internal_node_id":"0.0-3.0-0.5","subject_id":"5b6ee654024b250001f442bc","study_id":"607de2837874a824e2e8c6ec","session_id":"60885111b06217bd9097a523","correct":true},{"rt":1636.4149999999936,"stimulus":"\n      <p>How sure are you?</p>\n      <p>Rate your confidence in your answer from 1 (pure guess) to 5 (very sure) by pressing the corresponding button.</p>\n     ","response":1,"image":"img/apple_alternate.jpg","task":"confidence","old_or_new":"new","trial_type":"html-button-response","trial_index":14,"time_elapsed":34692,"internal_node_id":"0.0-3.0-1.5","subject_id":"5b6ee654024b250001f442bc","study_id":"607de2837874a824e2e8c6ec","session_id":"60885111b06217bd9097a523"},{"rt":1112.435000000005,"stimulus":"img/globe.jpg","response":"y","image":"img/globe.jpg","old_or_new":"old","task":"recognition","trial_type":"image-keyboard-response","trial_index":15,"time_elapsed":36308,"internal_node_id":"0.0-3.0-0.6","subject_id":"5b6ee654024b250001f442bc","study_id":"607de2837874a824e2e8c6ec","session_id":"60885111b06217bd9097a523","correct":true},{"rt":1511.770000000004,"stimulus":"\n      <p>How sure are you?</p>\n      <p>Rate your confidence in your answer from 1 (pure guess) to 5 (very sure) by pressing the corresponding button.</p>\n     ","response":4,"image":"img/globe.jpg","task":"confidence","old_or_new":"old","trial_type":"html-button-response","trial_index":16,"time_elapsed":37822,"internal_node_id":"0.0-3.0-1.6","subject_id":"5b6ee654024b250001f442bc","study_id":"607de2837874a824e2e8c6ec","session_id":"60885111b06217bd9097a523"},{"rt":1920.4950000000026,"stimulus":"img/bowl_alternate.jpg","response":"n","image":"img/bowl_alternate.jpg","old_or_new":"new","task":"recognition","trial_type":"image-keyboard-response","trial_index":17,"time_elapsed":40245,"internal_node_id":"0.0-3.0-0.7","subject_id":"5b6ee654024b250001f442bc","study_id":"607de2837874a824e2e8c6ec","session_id":"60885111b06217bd9097a523","correct":true},{"rt":1194.8250000000044,"stimulus":"\n      <p>How sure are you?</p>\n      <p>Rate your confidence in your answer from 1 (pure guess) to 5 (very sure) by pressing the corresponding button.</p>\n     ","response":4,"image":"img/bowl_alternate.jpg","task":"confidence","old_or_new":"new","trial_type":"html-button-response","trial_index":18,"time_elapsed":41445,"internal_node_id":"0.0-3.0-1.7","subject_id":"5b6ee654024b250001f442bc","study_id":"607de2837874a824e2e8c6ec","session_id":"60885111b06217bd9097a523"},{"rt":2114.090000000011,"stimulus":"img/helmet.jpg","response":"y","image":"img/helmet.jpg","old_or_new":"old","task":"recognition","trial_type":"image-keyboard-response","trial_index":19,"time_elapsed":44065,"internal_node_id":"0.0-3.0-0.8","subject_id":"5b6ee654024b250001f442bc","study_id":"607de2837874a824e2e8c6ec","session_id":"60885111b06217bd9097a523","correct":true},{"rt":1211.9000000000015,"stimulus":"\n      <p>How sure are you?</p>\n      <p>Rate your confidence in your answer from 1 (pure guess) to 5 (very sure) by pressing the corresponding button.</p>\n     ","response":4,"image":"img/helmet.jpg","task":"confidence","old_or_new":"old","trial_type":"html-button-response","trial_index":20,"time_elapsed":45281,"internal_node_id":"0.0-3.0-1.8","subject_id":"5b6ee654024b250001f442bc","study_id":"607de2837874a824e2e8c6ec","session_id":"60885111b06217bd9097a523"},{"rt":1002.0650000000023,"stimulus":"img/drum.jpg","response":"y","image":"img/drum.jpg","old_or_new":"old","task":"recognition","trial_type":"image-keyboard-response","trial_index":21,"time_elapsed":46786,"internal_node_id":"0.0-3.0-0.9","subject_id":"5b6ee654024b250001f442bc","study_id":"607de2837874a824e2e8c6ec","session_id":"60885111b06217bd9097a523","correct":true},{"rt":1145.3499999999985,"stimulus":"\n      <p>How sure are you?</p>\n      <p>Rate your confidence in your answer from 1 (pure guess) to 5 (very sure) by pressing the corresponding button.</p>\n     ","response":4,"image":"img/drum.jpg","task":"confidence","old_or_new":"old","trial_type":"html-button-response","trial_index":22,"time_elapsed":47933,"internal_node_id":"0.0-3.0-1.9","subject_id":"5b6ee654024b250001f442bc","study_id":"607de2837874a824e2e8c6ec","session_id":"60885111b06217bd9097a523"},{"rt":1190.820000000007,"stimulus":"img/chair_alternate.jpg","response":"n","image":"img/chair_alternate.jpg","old_or_new":"new","task":"recognition","trial_type":"image-keyboard-response","trial_index":23,"time_elapsed":49628,"internal_node_id":"0.0-3.0-0.10","subject_id":"5b6ee654024b250001f442bc","study_id":"607de2837874a824e2e8c6ec","session_id":"60885111b06217bd9097a523","correct":true},{"rt":1019.310000000005,"stimulus":"\n      <p>How sure are you?</p>\n      <p>Rate your confidence in your answer from 1 (pure guess) to 5 (very sure) by pressing the corresponding button.</p>\n     ","response":4,"image":"img/chair_alternate.jpg","task":"confidence","old_or_new":"new","trial_type":"html-button-response","trial_index":24,"time_elapsed":50654,"internal_node_id":"0.0-3.0-1.10","subject_id":"5b6ee654024b250001f442bc","study_id":"607de2837874a824e2e8c6ec","session_id":"60885111b06217bd9097a523"},{"rt":3440.0750000000044,"stimulus":"img/key_alternate.jpg","response":"y","image":"img/key_alternate.jpg","old_or_new":"new","task":"recognition","trial_type":"image-keyboard-response","trial_index":25,"time_elapsed":54598,"internal_node_id":"0.0-3.0-0.11","subject_id":"5b6ee654024b250001f442bc","study_id":"607de2837874a824e2e8c6ec","session_id":"60885111b06217bd9097a523","correct":false},{"rt":3185.3099999999977,"stimulus":"\n      <p>How sure are you?</p>\n      <p>Rate your confidence in your answer from 1 (pure guess) to 5 (very sure) by pressing the corresponding button.</p>\n     ","response":2,"image":"img/key_alternate.jpg","task":"confidence","old_or_new":"new","trial_type":"html-button-response","trial_index":26,"time_elapsed":57786,"internal_node_id":"0.0-3.0-1.11","subject_id":"5b6ee654024b250001f442bc","study_id":"607de2837874a824e2e8c6ec","session_id":"60885111b06217bd9097a523"},{"rt":1159.5250000000015,"stimulus":"img/key.jpg","response":"y","image":"img/key.jpg","old_or_new":"old","task":"recognition","trial_type":"image-keyboard-response","trial_index":27,"time_elapsed":59449,"internal_node_id":"0.0-3.0-0.12","subject_id":"5b6ee654024b250001f442bc","study_id":"607de2837874a824e2e8c6ec","session_id":"60885111b06217bd9097a523","correct":true},{"rt":1444.2999999999956,"stimulus":"\n      <p>How sure are you?</p>\n      <p>Rate your confidence in your answer from 1 (pure guess) to 5 (very sure) by pressing the corresponding button.</p>\n     ","response":4,"image":"img/key.jpg","task":"confidence","old_or_new":"old","trial_type":"html-button-response","trial_index":28,"time_elapsed":60897,"internal_node_id":"0.0-3.0-1.12","subject_id":"5b6ee654024b250001f442bc","study_id":"607de2837874a824e2e8c6ec","session_id":"60885111b06217bd9097a523"},{"rt":3621.7450000000026,"stimulus":"img/basket_alternate.jpg","response":"n","image":"img/basket_alternate.jpg","old_or_new":"new","task":"recognition","trial_type":"image-keyboard-response","trial_index":29,"time_elapsed":65025,"internal_node_id":"0.0-3.0-0.13","subject_id":"5b6ee654024b250001f442bc","study_id":"607de2837874a824e2e8c6ec","session_id":"60885111b06217bd9097a523","correct":true},{"rt":1176.7850000000035,"stimulus":"\n      <p>How sure are you?</p>\n      <p>Rate your confidence in your answer from 1 (pure guess) to 5 (very sure) by pressing the corresponding button.</p>\n     ","response":2,"image":"img/basket_alternate.jpg","task":"confidence","old_or_new":"new","trial_type":"html-button-response","trial_index":30,"time_elapsed":66207,"internal_node_id":"0.0-3.0-1.13","subject_id":"5b6ee654024b250001f442bc","study_id":"607de2837874a824e2e8c6ec","session_id":"60885111b06217bd9097a523"},{"rt":1107.2399999999907,"stimulus":"img/glasses_alternate.jpg","response":"y","image":"img/glasses_alternate.jpg","old_or_new":"new","task":"recognition","trial_type":"image-keyboard-response","trial_index":31,"time_elapsed":67821,"internal_node_id":"0.0-3.0-0.14","subject_id":"5b6ee654024b250001f442bc","study_id":"607de2837874a824e2e8c6ec","session_id":"60885111b06217bd9097a523","correct":false},{"rt":1990.5400000000081,"stimulus":"\n      <p>How sure are you?</p>\n      <p>Rate your confidence in your answer from 1 (pure guess) to 5 (very sure) by pressing the corresponding button.</p>\n     ","response":3,"image":"img/glasses_alternate.jpg","task":"confidence","old_or_new":"new","trial_type":"html-button-response","trial_index":32,"time_elapsed":69816,"internal_node_id":"0.0-3.0-1.14","subject_id":"5b6ee654024b250001f442bc","study_id":"607de2837874a824e2e8c6ec","session_id":"60885111b06217bd9097a523"},{"rt":1180.3450000000157,"stimulus":"img/drum_alternate.jpg","response":"n","image":"img/drum_alternate.jpg","old_or_new":"new","task":"recognition","trial_type":"image-keyboard-response","trial_index":33,"time_elapsed":71504,"internal_node_id":"0.0-3.0-0.15","subject_id":"5b6ee654024b250001f442bc","study_id":"607de2837874a824e2e8c6ec","session_id":"60885111b06217bd9097a523","correct":true},{"rt":1106.1950000000215,"stimulus":"\n      <p>How sure are you?</p>\n      <p>Rate your confidence in your answer from 1 (pure guess) to 5 (very sure) by pressing the corresponding button.</p>\n     ","response":4,"image":"img/drum_alternate.jpg","task":"confidence","old_or_new":"new","trial_type":"html-button-response","trial_index":34,"time_elapsed":72614,"internal_node_id":"0.0-3.0-1.15","subject_id":"5b6ee654024b250001f442bc","study_id":"607de2837874a824e2e8c6ec","session_id":"60885111b06217bd9097a523"},{"rt":1979.5749999999825,"stimulus":"img/hat_alternate.jpg","response":"n","image":"img/hat_alternate.jpg","old_or_new":"new","task":"recognition","trial_type":"image-keyboard-response","trial_index":35,"time_elapsed":75099,"internal_node_id":"0.0-3.0-0.16","subject_id":"5b6ee654024b250001f442bc","study_id":"607de2837874a824e2e8c6ec","session_id":"60885111b06217bd9097a523","correct":true},{"rt":1385.8199999999924,"stimulus":"\n      <p>How sure are you?</p>\n      <p>Rate your confidence in your answer from 1 (pure guess) to 5 (very sure) by pressing the corresponding button.</p>\n     ","response":3,"image":"img/hat_alternate.jpg","task":"confidence","old_or_new":"new","trial_type":"html-button-response","trial_index":36,"time_elapsed":76492,"internal_node_id":"0.0-3.0-1.16","subject_id":"5b6ee654024b250001f442bc","study_id":"607de2837874a824e2e8c6ec","session_id":"60885111b06217bd9097a523"},{"rt":1331.5750000000116,"stimulus":"img/helmet_alternate.jpg","response":"n","image":"img/helmet_alternate.jpg","old_or_new":"new","task":"recognition","trial_type":"image-keyboard-response","trial_index":37,"time_elapsed":78331,"internal_node_id":"0.0-3.0-0.17","subject_id":"5b6ee654024b250001f442bc","study_id":"607de2837874a824e2e8c6ec","session_id":"60885111b06217bd9097a523","correct":true},{"rt":1117.7399999999907,"stimulus":"\n      <p>How sure are you?</p>\n      <p>Rate your confidence in your answer from 1 (pure guess) to 5 (very sure) by pressing the corresponding button.</p>\n     ","response":4,"image":"img/helmet_alternate.jpg","task":"confidence","old_or_new":"new","trial_type":"html-button-response","trial_index":38,"time_elapsed":79452,"internal_node_id":"0.0-3.0-1.17","subject_id":"5b6ee654024b250001f442bc","study_id":"607de2837874a824e2e8c6ec","session_id":"60885111b06217bd9097a523"},{"rt":1557.4149999999936,"stimulus":"img/hairbrush.jpg","response":"y","image":"img/hairbrush.jpg","old_or_new":"old","task":"recognition","trial_type":"image-keyboard-response","trial_index":39,"time_elapsed":81516,"internal_node_id":"0.0-3.0-0.18","subject_id":"5b6ee654024b250001f442bc","study_id":"607de2837874a824e2e8c6ec","session_id":"60885111b06217bd9097a523","correct":true},{"rt":1157.5899999999965,"stimulus":"\n      <p>How sure are you?</p>\n      <p>Rate your confidence in your answer from 1 (pure guess) to 5 (very sure) by pressing the corresponding button.</p>\n     ","response":4,"image":"img/hairbrush.jpg","task":"confidence","old_or_new":"old","trial_type":"html-button-response","trial_index":40,"time_elapsed":82677,"internal_node_id":"0.0-3.0-1.18","subject_id":"5b6ee654024b250001f442bc","study_id":"607de2837874a824e2e8c6ec","session_id":"60885111b06217bd9097a523"},{"rt":982.5499999999738,"stimulus":"img/lightbulb.jpg","response":"y","image":"img/lightbulb.jpg","old_or_new":"old","task":"recognition","trial_type":"image-keyboard-response","trial_index":41,"time_elapsed":84166,"internal_node_id":"0.0-3.0-0.19","subject_id":"5b6ee654024b250001f442bc","study_id":"607de2837874a824e2e8c6ec","session_id":"60885111b06217bd9097a523","correct":true},{"rt":1120.8099999999977,"stimulus":"\n      <p>How sure are you?</p>\n      <p>Rate your confidence in your answer from 1 (pure guess) to 5 (very sure) by pressing the corresponding button.</p>\n     ","response":4,"image":"img/lightbulb.jpg","task":"confidence","old_or_new":"old","trial_type":"html-button-response","trial_index":42,"time_elapsed":85290,"internal_node_id":"0.0-3.0-1.19","subject_id":"5b6ee654024b250001f442bc","study_id":"607de2837874a824e2e8c6ec","session_id":"60885111b06217bd9097a523"},{"rt":2283.310000000012,"stimulus":"img/backpack_alternate.jpg","response":"n","image":"img/backpack_alternate.jpg","old_or_new":"new","task":"recognition","trial_type":"image-keyboard-response","trial_index":43,"time_elapsed":88079,"internal_node_id":"0.0-3.0-0.20","subject_id":"5b6ee654024b250001f442bc","study_id":"607de2837874a824e2e8c6ec","session_id":"60885111b06217bd9097a523","correct":true},{"rt":2082.390000000014,"stimulus":"\n      <p>How sure are you?</p>\n      <p>Rate your confidence in your answer from 1 (pure guess) to 5 (very sure) by pressing the corresponding button.</p>\n     ","response":3,"image":"img/backpack_alternate.jpg","task":"confidence","old_or_new":"new","trial_type":"html-button-response","trial_index":44,"time_elapsed":90165,"internal_node_id":"0.0-3.0-1.20","subject_id":"5b6ee654024b250001f442bc","study_id":"607de2837874a824e2e8c6ec","session_id":"60885111b06217bd9097a523"},{"rt":1370.2399999999907,"stimulus":"img/folder.jpg","response":"y","image":"img/folder.jpg","old_or_new":"old","task":"recognition","trial_type":"image-keyboard-response","trial_index":45,"time_elapsed":92042,"internal_node_id":"0.0-3.0-0.21","subject_id":"5b6ee654024b250001f442bc","study_id":"607de2837874a824e2e8c6ec","session_id":"60885111b06217bd9097a523","correct":true},{"rt":1195.87000000001,"stimulus":"\n      <p>How sure are you?</p>\n      <p>Rate your confidence in your answer from 1 (pure guess) to 5 (very sure) by pressing the corresponding button.</p>\n     ","response":4,"image":"img/folder.jpg","task":"confidence","old_or_new":"old","trial_type":"html-button-response","trial_index":46,"time_elapsed":93241,"internal_node_id":"0.0-3.0-1.21","subject_id":"5b6ee654024b250001f442bc","study_id":"607de2837874a824e2e8c6ec","session_id":"60885111b06217bd9097a523"},{"rt":1927.9299999999785,"stimulus":"img/ladder_alternate.jpg","response":"n","image":"img/ladder_alternate.jpg","old_or_new":"new","task":"recognition","trial_type":"image-keyboard-response","trial_index":47,"time_elapsed":95676,"internal_node_id":"0.0-3.0-0.22","subject_id":"5b6ee654024b250001f442bc","study_id":"607de2837874a824e2e8c6ec","session_id":"60885111b06217bd9097a523","correct":true},{"rt":982.6049999999814,"stimulus":"\n      <p>How sure are you?</p>\n      <p>Rate your confidence in your answer from 1 (pure guess) to 5 (very sure) by pressing the corresponding button.</p>\n     ","response":4,"image":"img/ladder_alternate.jpg","task":"confidence","old_or_new":"new","trial_type":"html-button-response","trial_index":48,"time_elapsed":96662,"internal_node_id":"0.0-3.0-1.22","subject_id":"5b6ee654024b250001f442bc","study_id":"607de2837874a824e2e8c6ec","session_id":"60885111b06217bd9097a523"},{"rt":1434.535000000018,"stimulus":"img/lightbulb_alternate.jpg","response":"n","image":"img/lightbulb_alternate.jpg","old_or_new":"new","task":"recognition","trial_type":"image-keyboard-response","trial_index":49,"time_elapsed":98604,"internal_node_id":"0.0-3.0-0.23","subject_id":"5b6ee654024b250001f442bc","study_id":"607de2837874a824e2e8c6ec","session_id":"60885111b06217bd9097a523","correct":true},{"rt":998.7400000000052,"stimulus":"\n      <p>How sure are you?</p>\n      <p>Rate your confidence in your answer from 1 (pure guess) to 5 (very sure) by pressing the corresponding button.</p>\n     ","response":4,"image":"img/lightbulb_alternate.jpg","task":"confidence","old_or_new":"new","trial_type":"html-button-response","trial_index":50,"time_elapsed":99606,"internal_node_id":"0.0-3.0-1.23","subject_id":"5b6ee654024b250001f442bc","study_id":"607de2837874a824e2e8c6ec","session_id":"60885111b06217bd9097a523"},{"rt":996.2500000000146,"stimulus":"img/bowl.jpg","response":"y","image":"img/bowl.jpg","old_or_new":"old","task":"recognition","trial_type":"image-keyboard-response","trial_index":51,"time_elapsed":101109,"internal_node_id":"0.0-3.0-0.24","subject_id":"5b6ee654024b250001f442bc","study_id":"607de2837874a824e2e8c6ec","session_id":"60885111b06217bd9097a523","correct":true},{"rt":1015.2600000000239,"stimulus":"\n      <p>How sure are you?</p>\n      <p>Rate your confidence in your answer from 1 (pure guess) to 5 (very sure) by pressing the corresponding button.</p>\n     ","response":4,"image":"img/bowl.jpg","task":"confidence","old_or_new":"old","trial_type":"html-button-response","trial_index":52,"time_elapsed":102131,"internal_node_id":"0.0-3.0-1.24","subject_id":"5b6ee654024b250001f442bc","study_id":"607de2837874a824e2e8c6ec","session_id":"60885111b06217bd9097a523"},{"rt":1009.8950000000041,"stimulus":"img/dryer.jpg","response":"y","image":"img/dryer.jpg","old_or_new":"old","task":"recognition","trial_type":"image-keyboard-response","trial_index":53,"time_elapsed":103647,"internal_node_id":"0.0-3.0-0.25","subject_id":"5b6ee654024b250001f442bc","study_id":"607de2837874a824e2e8c6ec","session_id":"60885111b06217bd9097a523","correct":true},{"rt":1059.3250000000116,"stimulus":"\n      <p>How sure are you?</p>\n      <p>Rate your confidence in your answer from 1 (pure guess) to 5 (very sure) by pressing the corresponding button.</p>\n     ","response":4,"image":"img/dryer.jpg","task":"confidence","old_or_new":"old","trial_type":"html-button-response","trial_index":54,"time_elapsed":104712,"internal_node_id":"0.0-3.0-1.25","subject_id":"5b6ee654024b250001f442bc","study_id":"607de2837874a824e2e8c6ec","session_id":"60885111b06217bd9097a523"},{"rt":966.6399999999849,"stimulus":"img/grapes.jpg","response":"y","image":"img/grapes.jpg","old_or_new":"old","task":"recognition","trial_type":"image-keyboard-response","trial_index":55,"time_elapsed":106185,"internal_node_id":"0.0-3.0-0.26","subject_id":"5b6ee654024b250001f442bc","study_id":"607de2837874a824e2e8c6ec","session_id":"60885111b06217bd9097a523","correct":true},{"rt":1019.6650000000081,"stimulus":"\n      <p>How sure are you?</p>\n      <p>Rate your confidence in your answer from 1 (pure guess) to 5 (very sure) by pressing the corresponding button.</p>\n     ","response":4,"image":"img/grapes.jpg","task":"confidence","old_or_new":"old","trial_type":"html-button-response","trial_index":56,"time_elapsed":107210,"internal_node_id":"0.0-3.0-1.26","subject_id":"5b6ee654024b250001f442bc","study_id":"607de2837874a824e2e8c6ec","session_id":"60885111b06217bd9097a523"},{"rt":1982.12999999999,"stimulus":"img/coin_alternate.jpg","response":"n","image":"img/coin_alternate.jpg","old_or_new":"new","task":"recognition","trial_type":"image-keyboard-response","trial_index":57,"time_elapsed":109699,"internal_node_id":"0.0-3.0-0.27","subject_id":"5b6ee654024b250001f442bc","study_id":"607de2837874a824e2e8c6ec","session_id":"60885111b06217bd9097a523","correct":true},{"rt":1049.5650000000023,"stimulus":"\n      <p>How sure are you?</p>\n      <p>Rate your confidence in your answer from 1 (pure guess) to 5 (very sure) by pressing the corresponding button.</p>\n     ","response":4,"image":"img/coin_alternate.jpg","task":"confidence","old_or_new":"new","trial_type":"html-button-response","trial_index":58,"time_elapsed":110754,"internal_node_id":"0.0-3.0-1.27","subject_id":"5b6ee654024b250001f442bc","study_id":"607de2837874a824e2e8c6ec","session_id":"60885111b06217bd9097a523"},{"rt":2284.9499999999825,"stimulus":"img/hair_tie_alternate.jpg","response":"n","image":"img/hair_tie_alternate.jpg","old_or_new":"new","task":"recognition","trial_type":"image-keyboard-response","trial_index":59,"time_elapsed":113547,"internal_node_id":"0.0-3.0-0.28","subject_id":"5b6ee654024b250001f442bc","study_id":"607de2837874a824e2e8c6ec","session_id":"60885111b06217bd9097a523","correct":true},{"rt":1192.4850000000006,"stimulus":"\n      <p>How sure are you?</p>\n      <p>Rate your confidence in your answer from 1 (pure guess) to 5 (very sure) by pressing the corresponding button.</p>\n     ","response":4,"image":"img/hair_tie_alternate.jpg","task":"confidence","old_or_new":"new","trial_type":"html-button-response","trial_index":60,"time_elapsed":114746,"internal_node_id":"0.0-3.0-1.28","subject_id":"5b6ee654024b250001f442bc","study_id":"607de2837874a824e2e8c6ec","session_id":"60885111b06217bd9097a523"},{"rt":1088.4049999999843,"stimulus":"img/fan_alternate.jpg","response":"y","image":"img/fan_alternate.jpg","old_or_new":"new","task":"recognition","trial_type":"image-keyboard-response","trial_index":61,"time_elapsed":116342,"internal_node_id":"0.0-3.0-0.29","subject_id":"5b6ee654024b250001f442bc","study_id":"607de2837874a824e2e8c6ec","session_id":"60885111b06217bd9097a523","correct":false},{"rt":1044.3300000000017,"stimulus":"\n      <p>How sure are you?</p>\n      <p>Rate your confidence in your answer from 1 (pure guess) to 5 (very sure) by pressing the corresponding button.</p>\n     ","response":4,"image":"img/fan_alternate.jpg","task":"confidence","old_or_new":"new","trial_type":"html-button-response","trial_index":62,"time_elapsed":117393,"internal_node_id":"0.0-3.0-1.29","subject_id":"5b6ee654024b250001f442bc","study_id":"607de2837874a824e2e8c6ec","session_id":"60885111b06217bd9097a523"},{"rt":870.9800000000105,"stimulus":"img/hair_tie.jpg","response":"y","image":"img/hair_tie.jpg","old_or_new":"old","task":"recognition","trial_type":"image-keyboard-response","trial_index":63,"time_elapsed":118768,"internal_node_id":"0.0-3.0-0.30","subject_id":"5b6ee654024b250001f442bc","study_id":"607de2837874a824e2e8c6ec","session_id":"60885111b06217bd9097a523","correct":true},{"rt":1159.710000000021,"stimulus":"\n      <p>How sure are you?</p>\n      <p>Rate your confidence in your answer from 1 (pure guess) to 5 (very sure) by pressing the corresponding button.</p>\n     ","response":4,"image":"img/hair_tie.jpg","task":"confidence","old_or_new":"old","trial_type":"html-button-response","trial_index":64,"time_elapsed":119930,"internal_node_id":"0.0-3.0-1.30","subject_id":"5b6ee654024b250001f442bc","study_id":"607de2837874a824e2e8c6ec","session_id":"60885111b06217bd9097a523"},{"rt":2011.0850000000064,"stimulus":"img/calculator_alternate.jpg","response":"n","image":"img/calculator_alternate.jpg","old_or_new":"new","task":"recognition","trial_type":"image-keyboard-response","trial_index":65,"time_elapsed":122447,"internal_node_id":"0.0-3.0-0.31","subject_id":"5b6ee654024b250001f442bc","study_id":"607de2837874a824e2e8c6ec","session_id":"60885111b06217bd9097a523","correct":true},{"rt":3063.334999999992,"stimulus":"\n      <p>How sure are you?</p>\n      <p>Rate your confidence in your answer from 1 (pure guess) to 5 (very sure) by pressing the corresponding button.</p>\n     ","response":4,"image":"img/calculator_alternate.jpg","task":"confidence","old_or_new":"new","trial_type":"html-button-response","trial_index":66,"time_elapsed":125515,"internal_node_id":"0.0-3.0-1.31","subject_id":"5b6ee654024b250001f442bc","study_id":"607de2837874a824e2e8c6ec","session_id":"60885111b06217bd9097a523"},{"rt":1099.3300000000163,"stimulus":"img/glasses.jpg","response":"y","image":"img/glasses.jpg","old_or_new":"old","task":"recognition","trial_type":"image-keyboard-response","trial_index":67,"time_elapsed":127123,"internal_node_id":"0.0-3.0-0.32","subject_id":"5b6ee654024b250001f442bc","study_id":"607de2837874a824e2e8c6ec","session_id":"60885111b06217bd9097a523","correct":true},{"rt":1003.1900000000169,"stimulus":"\n      <p>How sure are you?</p>\n      <p>Rate your confidence in your answer from 1 (pure guess) to 5 (very sure) by pressing the corresponding button.</p>\n     ","response":4,"image":"img/glasses.jpg","task":"confidence","old_or_new":"old","trial_type":"html-button-response","trial_index":68,"time_elapsed":128132,"internal_node_id":"0.0-3.0-1.32","subject_id":"5b6ee654024b250001f442bc","study_id":"607de2837874a824e2e8c6ec","session_id":"60885111b06217bd9097a523"},{"rt":876.6900000000023,"stimulus":"img/calculator.jpg","response":"y","image":"img/calculator.jpg","old_or_new":"old","task":"recognition","trial_type":"image-keyboard-response","trial_index":69,"time_elapsed":129515,"internal_node_id":"0.0-3.0-0.33","subject_id":"5b6ee654024b250001f442bc","study_id":"607de2837874a824e2e8c6ec","session_id":"60885111b06217bd9097a523","correct":true},{"rt":999.8650000000052,"stimulus":"\n      <p>How sure are you?</p>\n      <p>Rate your confidence in your answer from 1 (pure guess) to 5 (very sure) by pressing the corresponding button.</p>\n     ","response":4,"image":"img/calculator.jpg","task":"confidence","old_or_new":"old","trial_type":"html-button-response","trial_index":70,"time_elapsed":130519,"internal_node_id":"0.0-3.0-1.33","subject_id":"5b6ee654024b250001f442bc","study_id":"607de2837874a824e2e8c6ec","session_id":"60885111b06217bd9097a523"},{"rt":1166.9100000000035,"stimulus":"img/globe_alternate.jpg","response":"n","image":"img/globe_alternate.jpg","old_or_new":"new","task":"recognition","trial_type":"image-keyboard-response","trial_index":71,"time_elapsed":132190,"internal_node_id":"0.0-3.0-0.34","subject_id":"5b6ee654024b250001f442bc","study_id":"607de2837874a824e2e8c6ec","session_id":"60885111b06217bd9097a523","correct":true},{"rt":1044.6000000000058,"stimulus":"\n      <p>How sure are you?</p>\n      <p>Rate your confidence in your answer from 1 (pure guess) to 5 (very sure) by pressing the corresponding button.</p>\n     ","response":4,"image":"img/globe_alternate.jpg","task":"confidence","old_or_new":"new","trial_type":"html-button-response","trial_index":72,"time_elapsed":133238,"internal_node_id":"0.0-3.0-1.34","subject_id":"5b6ee654024b250001f442bc","study_id":"607de2837874a824e2e8c6ec","session_id":"60885111b06217bd9097a523"},{"rt":996.0599999999977,"stimulus":"img/camera.jpg","response":"y","image":"img/camera.jpg","old_or_new":"old","task":"recognition","trial_type":"image-keyboard-response","trial_index":73,"time_elapsed":134742,"internal_node_id":"0.0-3.0-0.35","subject_id":"5b6ee654024b250001f442bc","study_id":"607de2837874a824e2e8c6ec","session_id":"60885111b06217bd9097a523","correct":true},{"rt":990.9550000000163,"stimulus":"\n      <p>How sure are you?</p>\n      <p>Rate your confidence in your answer from 1 (pure guess) to 5 (very sure) by pressing the corresponding button.</p>\n     ","response":4,"image":"img/camera.jpg","task":"confidence","old_or_new":"old","trial_type":"html-button-response","trial_index":74,"time_elapsed":135738,"internal_node_id":"0.0-3.0-1.35","subject_id":"5b6ee654024b250001f442bc","study_id":"607de2837874a824e2e8c6ec","session_id":"60885111b06217bd9097a523"},{"rt":1428.9549999999872,"stimulus":"img/coin.jpg","response":"y","image":"img/coin.jpg","old_or_new":"old","task":"recognition","trial_type":"image-keyboard-response","trial_index":75,"time_elapsed":137673,"internal_node_id":"0.0-3.0-0.36","subject_id":"5b6ee654024b250001f442bc","study_id":"607de2837874a824e2e8c6ec","session_id":"60885111b06217bd9097a523","correct":true},{"rt":2735.875,"stimulus":"\n      <p>How sure are you?</p>\n      <p>Rate your confidence in your answer from 1 (pure guess) to 5 (very sure) by pressing the corresponding button.</p>\n     ","response":4,"image":"img/coin.jpg","task":"confidence","old_or_new":"old","trial_type":"html-button-response","trial_index":76,"time_elapsed":140413,"internal_node_id":"0.0-3.0-1.36","subject_id":"5b6ee654024b250001f442bc","study_id":"607de2837874a824e2e8c6ec","session_id":"60885111b06217bd9097a523"},{"rt":1169.8500000000058,"stimulus":"img/camera_alternate.jpg","response":"n","image":"img/camera_alternate.jpg","old_or_new":"new","task":"recognition","trial_type":"image-keyboard-response","trial_index":77,"time_elapsed":142090,"internal_node_id":"0.0-3.0-0.37","subject_id":"5b6ee654024b250001f442bc","study_id":"607de2837874a824e2e8c6ec","session_id":"60885111b06217bd9097a523","correct":true},{"rt":1086.6050000000105,"stimulus":"\n      <p>How sure are you?</p>\n      <p>Rate your confidence in your answer from 1 (pure guess) to 5 (very sure) by pressing the corresponding button.</p>\n     ","response":4,"image":"img/camera_alternate.jpg","task":"confidence","old_or_new":"new","trial_type":"html-button-response","trial_index":78,"time_elapsed":143180,"internal_node_id":"0.0-3.0-1.37","subject_id":"5b6ee654024b250001f442bc","study_id":"607de2837874a824e2e8c6ec","session_id":"60885111b06217bd9097a523"},{"rt":1035.4650000000256,"stimulus":"img/hat.jpg","response":"n","image":"img/hat.jpg","old_or_new":"old","task":"recognition","trial_type":"image-keyboard-response","trial_index":79,"time_elapsed":144723,"internal_node_id":"0.0-3.0-0.38","subject_id":"5b6ee654024b250001f442bc","study_id":"607de2837874a824e2e8c6ec","session_id":"60885111b06217bd9097a523","correct":false},{"rt":1953.0049999999756,"stimulus":"\n      <p>How sure are you?</p>\n      <p>Rate your confidence in your answer from 1 (pure guess) to 5 (very sure) by pressing the corresponding button.</p>\n     ","response":3,"image":"img/hat.jpg","task":"confidence","old_or_new":"old","trial_type":"html-button-response","trial_index":80,"time_elapsed":146685,"internal_node_id":"0.0-3.0-1.38","subject_id":"5b6ee654024b250001f442bc","study_id":"607de2837874a824e2e8c6ec","session_id":"60885111b06217bd9097a523"},{"rt":897.1550000000279,"stimulus":"img/backpack.jpg","response":"y","image":"img/backpack.jpg","old_or_new":"old","task":"recognition","trial_type":"image-keyboard-response","trial_index":81,"time_elapsed":148085,"internal_node_id":"0.0-3.0-0.39","subject_id":"5b6ee654024b250001f442bc","study_id":"607de2837874a824e2e8c6ec","session_id":"60885111b06217bd9097a523","correct":true},{"rt":1248.0599999999977,"stimulus":"\n      <p>How sure are you?</p>\n      <p>Rate your confidence in your answer from 1 (pure guess) to 5 (very sure) by pressing the corresponding button.</p>\n     ","response":4,"image":"img/backpack.jpg","task":"confidence","old_or_new":"old","trial_type":"html-button-response","trial_index":82,"time_elapsed":149337,"internal_node_id":"0.0-3.0-1.39","subject_id":"5b6ee654024b250001f442bc","study_id":"607de2837874a824e2e8c6ec","session_id":"60885111b06217bd9097a523"},{"rt":1284.0849999999919,"stimulus":"img/dryer_alternate.jpg","response":"n","image":"img/dryer_alternate.jpg","old_or_new":"new","task":"recognition","trial_type":"image-keyboard-response","trial_index":83,"time_elapsed":151125,"internal_node_id":"0.0-3.0-0.40","subject_id":"5b6ee654024b250001f442bc","study_id":"607de2837874a824e2e8c6ec","session_id":"60885111b06217bd9097a523","correct":true},{"rt":954.3550000000105,"stimulus":"\n      <p>How sure are you?</p>\n      <p>Rate your confidence in your answer from 1 (pure guess) to 5 (very sure) by pressing the corresponding button.</p>\n     ","response":4,"image":"img/dryer_alternate.jpg","task":"confidence","old_or_new":"new","trial_type":"html-button-response","trial_index":84,"time_elapsed":152082,"internal_node_id":"0.0-3.0-1.40","subject_id":"5b6ee654024b250001f442bc","study_id":"607de2837874a824e2e8c6ec","session_id":"60885111b06217bd9097a523"},{"rt":2284.779999999999,"stimulus":"img/hourglass_alternate.jpg","response":"n","image":"img/hourglass_alternate.jpg","old_or_new":"new","task":"recognition","trial_type":"image-keyboard-response","trial_index":85,"time_elapsed":154871,"internal_node_id":"0.0-3.0-0.41","subject_id":"5b6ee654024b250001f442bc","study_id":"607de2837874a824e2e8c6ec","session_id":"60885111b06217bd9097a523","correct":true},{"rt":1709.5,"stimulus":"\n      <p>How sure are you?</p>\n      <p>Rate your confidence in your answer from 1 (pure guess) to 5 (very sure) by pressing the corresponding button.</p>\n     ","response":2,"image":"img/hourglass_alternate.jpg","task":"confidence","old_or_new":"new","trial_type":"html-button-response","trial_index":86,"time_elapsed":156585,"internal_node_id":"0.0-3.0-1.41","subject_id":"5b6ee654024b250001f442bc","study_id":"607de2837874a824e2e8c6ec","session_id":"60885111b06217bd9097a523"},{"rt":1097.765000000014,"stimulus":"img/grapes_alternate.jpg","response":"n","image":"img/grapes_alternate.jpg","old_or_new":"new","task":"recognition","trial_type":"image-keyboard-response","trial_index":87,"time_elapsed":158189,"internal_node_id":"0.0-3.0-0.42","subject_id":"5b6ee654024b250001f442bc","study_id":"607de2837874a824e2e8c6ec","session_id":"60885111b06217bd9097a523","correct":true},{"rt":1149.9249999999884,"stimulus":"\n      <p>How sure are you?</p>\n      <p>Rate your confidence in your answer from 1 (pure guess) to 5 (very sure) by pressing the corresponding button.</p>\n     ","response":4,"image":"img/grapes_alternate.jpg","task":"confidence","old_or_new":"new","trial_type":"html-button-response","trial_index":88,"time_elapsed":159343,"internal_node_id":"0.0-3.0-1.42","subject_id":"5b6ee654024b250001f442bc","study_id":"607de2837874a824e2e8c6ec","session_id":"60885111b06217bd9097a523"},{"rt":1930.7699999999895,"stimulus":"img/apple.jpg","response":"n","image":"img/apple.jpg","old_or_new":"old","task":"recognition","trial_type":"image-keyboard-response","trial_index":89,"time_elapsed":161780,"internal_node_id":"0.0-3.0-0.43","subject_id":"5b6ee654024b250001f442bc","study_id":"607de2837874a824e2e8c6ec","session_id":"60885111b06217bd9097a523","correct":false},{"rt":2104.7200000000303,"stimulus":"\n      <p>How sure are you?</p>\n      <p>Rate your confidence in your answer from 1 (pure guess) to 5 (very sure) by pressing the corresponding button.</p>\n     ","response":2,"image":"img/apple.jpg","task":"confidence","old_or_new":"old","trial_type":"html-button-response","trial_index":90,"time_elapsed":163888,"internal_node_id":"0.0-3.0-1.43","subject_id":"5b6ee654024b250001f442bc","study_id":"607de2837874a824e2e8c6ec","session_id":"60885111b06217bd9097a523"},{"rt":1332.7300000000105,"stimulus":"img/hourglass.jpg","response":"y","image":"img/hourglass.jpg","old_or_new":"old","task":"recognition","trial_type":"image-keyboard-response","trial_index":91,"time_elapsed":165726,"internal_node_id":"0.0-3.0-0.44","subject_id":"5b6ee654024b250001f442bc","study_id":"607de2837874a824e2e8c6ec","session_id":"60885111b06217bd9097a523","correct":true},{"rt":1425.515000000014,"stimulus":"\n      <p>How sure are you?</p>\n      <p>Rate your confidence in your answer from 1 (pure guess) to 5 (very sure) by pressing the corresponding button.</p>\n     ","response":3,"image":"img/hourglass.jpg","task":"confidence","old_or_new":"old","trial_type":"html-button-response","trial_index":92,"time_elapsed":167158,"internal_node_id":"0.0-3.0-1.44","subject_id":"5b6ee654024b250001f442bc","study_id":"607de2837874a824e2e8c6ec","session_id":"60885111b06217bd9097a523"},{"rt":1859.2250000000058,"stimulus":"img/leaf.jpg","response":"y","image":"img/leaf.jpg","old_or_new":"old","task":"recognition","trial_type":"image-keyboard-response","trial_index":93,"time_elapsed":169520,"internal_node_id":"0.0-3.0-0.45","subject_id":"5b6ee654024b250001f442bc","study_id":"607de2837874a824e2e8c6ec","session_id":"60885111b06217bd9097a523","correct":true},{"rt":1284.8249999999825,"stimulus":"\n      <p>How sure are you?</p>\n      <p>Rate your confidence in your answer from 1 (pure guess) to 5 (very sure) by pressing the corresponding button.</p>\n     ","response":4,"image":"img/leaf.jpg","task":"confidence","old_or_new":"old","trial_type":"html-button-response","trial_index":94,"time_elapsed":170810,"internal_node_id":"0.0-3.0-1.45","subject_id":"5b6ee654024b250001f442bc","study_id":"607de2837874a824e2e8c6ec","session_id":"60885111b06217bd9097a523"},{"rt":1087.2000000000116,"stimulus":"img/leaf_alternate.jpg","response":"n","image":"img/leaf_alternate.jpg","old_or_new":"new","task":"recognition","trial_type":"image-keyboard-response","trial_index":95,"time_elapsed":172402,"internal_node_id":"0.0-3.0-0.46","subject_id":"5b6ee654024b250001f442bc","study_id":"607de2837874a824e2e8c6ec","session_id":"60885111b06217bd9097a523","correct":true},{"rt":923.9700000000012,"stimulus":"\n      <p>How sure are you?</p>\n      <p>Rate your confidence in your answer from 1 (pure guess) to 5 (very sure) by pressing the corresponding button.</p>\n     ","response":4,"image":"img/leaf_alternate.jpg","task":"confidence","old_or_new":"new","trial_type":"html-button-response","trial_index":96,"time_elapsed":173330,"internal_node_id":"0.0-3.0-1.46","subject_id":"5b6ee654024b250001f442bc","study_id":"607de2837874a824e2e8c6ec","session_id":"60885111b06217bd9097a523"},{"rt":1244.109999999986,"stimulus":"img/hairbrush_alternate.jpg","response":"n","image":"img/hairbrush_alternate.jpg","old_or_new":"new","task":"recognition","trial_type":"image-keyboard-response","trial_index":97,"time_elapsed":175083,"internal_node_id":"0.0-3.0-0.47","subject_id":"5b6ee654024b250001f442bc","study_id":"607de2837874a824e2e8c6ec","session_id":"60885111b06217bd9097a523","correct":true},{"rt":973.0899999999965,"stimulus":"\n      <p>How sure are you?</p>\n      <p>Rate your confidence in your answer from 1 (pure guess) to 5 (very sure) by pressing the corresponding button.</p>\n     ","response":3,"image":"img/hairbrush_alternate.jpg","task":"confidence","old_or_new":"new","trial_type":"html-button-response","trial_index":98,"time_elapsed":176061,"internal_node_id":"0.0-3.0-1.47","subject_id":"5b6ee654024b250001f442bc","study_id":"607de2837874a824e2e8c6ec","session_id":"60885111b06217bd9097a523"}]