[{"success":true,"timeout":false,"failed_images":[],"failed_audio":[],"failed_video":[],"trial_type":"preload","trial_index":0,"time_elapsed":19167,"internal_node_id":"0.0-0.0","subject_id":"5fcea2f064b54614035989dd","study_id":"607de2837874a824e2e8c6ec","session_id":"6088506810192d1d1105dfbb"},{"rt":20653,"stimulus":"\n      <div style=\"width:800px; text-align: left;\">\n        <p>Welcome to day 2 of the experiment! Thanks for coming back.</p>\n        <p>You will be presented with a series of images. Images will appear one at a time.</p>\n        <p>Each image will remain on the screen until you press either <span style=\"font-weight: bold;\">\"y\" to indicate you have seen the \n        exact same photo the day before or \"n\" to indicate you have not seen the exact same photo the day before.</span></p>\n        <p>After you answer yes (\"y\") or no (\"n\"), you will then be prompted to rate your certainty on a scale of\n        1 (pure guess) to 5 (very sure).</p>\n      </div>\n    ","response":0,"trial_type":"html-button-response","trial_index":1,"time_elapsed":39824,"internal_node_id":"0.0-1.0","subject_id":"5fcea2f064b54614035989dd","study_id":"607de2837874a824e2e8c6ec","session_id":"6088506810192d1d1105dfbb"},{"success":true,"trial_type":"fullscreen","trial_index":2,"time_elapsed":44396,"internal_node_id":"0.0-2.0","subject_id":"5fcea2f064b54614035989dd","study_id":"607de2837874a824e2e8c6ec","session_id":"6088506810192d1d1105dfbb"},{"rt":6671,"stimulus":"img/glasses.jpg","response":"y","image":"img/glasses.jpg","old_or_new":"old","task":"recognition","trial_type":"image-keyboard-response","trial_index":3,"time_elapsed":51162,"internal_node_id":"0.0-3.0-0.0","subject_id":"5fcea2f064b54614035989dd","study_id":"607de2837874a824e2e8c6ec","session_id":"6088506810192d1d1105dfbb","correct":true},{"rt":2520,"stimulus":"\n      <p>How sure are you?</p>\n      <p>Rate your confidence in your answer from 1 (pure guess) to 5 (very sure) by pressing the corresponding button.</p>\n     ","response":4,"image":"img/glasses.jpg","task":"confidence","old_or_new":"old","trial_type":"html-button-response","trial_index":4,"time_elapsed":53685,"internal_node_id":"0.0-3.0-1.0","subject_id":"5fcea2f064b54614035989dd","study_id":"607de2837874a824e2e8c6ec","session_id":"6088506810192d1d1105dfbb"},{"rt":3017,"stimulus":"img/key.jpg","response":"y","image":"img/key.jpg","old_or_new":"old","task":"recognition","trial_type":"image-keyboard-response","trial_index":5,"time_elapsed":57217,"internal_node_id":"0.0-3.0-0.1","subject_id":"5fcea2f064b54614035989dd","study_id":"607de2837874a824e2e8c6ec","session_id":"6088506810192d1d1105dfbb","correct":true},{"rt":1698,"stimulus":"\n      <p>How sure are you?</p>\n      <p>Rate your confidence in your answer from 1 (pure guess) to 5 (very sure) by pressing the corresponding button.</p>\n     ","response":4,"image":"img/key.jpg","task":"confidence","old_or_new":"old","trial_type":"html-button-response","trial_index":6,"time_elapsed":58915,"internal_node_id":"0.0-3.0-1.1","subject_id":"5fcea2f064b54614035989dd","study_id":"607de2837874a824e2e8c6ec","session_id":"6088506810192d1d1105dfbb"},{"rt":1459,"stimulus":"img/helmet_alternate.jpg","response":"n","image":"img/helmet_alternate.jpg","old_or_new":"new","task":"recognition","trial_type":"image-keyboard-response","trial_index":7,"time_elapsed":60904,"internal_node_id":"0.0-3.0-0.2","subject_id":"5fcea2f064b54614035989dd","study_id":"607de2837874a824e2e8c6ec","session_id":"6088506810192d1d1105dfbb","correct":true},{"rt":1276,"stimulus":"\n      <p>How sure are you?</p>\n      <p>Rate your confidence in your answer from 1 (pure guess) to 5 (very sure) by pressing the corresponding button.</p>\n     ","response":4,"image":"img/helmet_alternate.jpg","task":"confidence","old_or_new":"new","trial_type":"html-button-response","trial_index":8,"time_elapsed":62179,"internal_node_id":"0.0-3.0-1.2","subject_id":"5fcea2f064b54614035989dd","study_id":"607de2837874a824e2e8c6ec","session_id":"6088506810192d1d1105dfbb"},{"rt":1642,"stimulus":"img/globe.jpg","response":"y","image":"img/globe.jpg","old_or_new":"old","task":"recognition","trial_type":"image-keyboard-response","trial_index":9,"time_elapsed":64341,"internal_node_id":"0.0-3.0-0.3","subject_id":"5fcea2f064b54614035989dd","study_id":"607de2837874a824e2e8c6ec","session_id":"6088506810192d1d1105dfbb","correct":true},{"rt":3780,"stimulus":"\n      <p>How sure are you?</p>\n      <p>Rate your confidence in your answer from 1 (pure guess) to 5 (very sure) by pressing the corresponding button.</p>\n     ","response":4,"image":"img/globe.jpg","task":"confidence","old_or_new":"old","trial_type":"html-button-response","trial_index":10,"time_elapsed":68123,"internal_node_id":"0.0-3.0-1.3","subject_id":"5fcea2f064b54614035989dd","study_id":"607de2837874a824e2e8c6ec","session_id":"6088506810192d1d1105dfbb"},{"rt":6721,"stimulus":"img/bowl.jpg","response":"n","image":"img/bowl.jpg","old_or_new":"old","task":"recognition","trial_type":"image-keyboard-response","trial_index":11,"time_elapsed":75359,"internal_node_id":"0.0-3.0-0.4","subject_id":"5fcea2f064b54614035989dd","study_id":"607de2837874a824e2e8c6ec","session_id":"6088506810192d1d1105dfbb","correct":false},{"rt":4664,"stimulus":"\n      <p>How sure are you?</p>\n      <p>Rate your confidence in your answer from 1 (pure guess) to 5 (very sure) by pressing the corresponding button.</p>\n     ","response":2,"image":"img/bowl.jpg","task":"confidence","old_or_new":"old","trial_type":"html-button-response","trial_index":12,"time_elapsed":80024,"internal_node_id":"0.0-3.0-1.4","subject_id":"5fcea2f064b54614035989dd","study_id":"607de2837874a824e2e8c6ec","session_id":"6088506810192d1d1105dfbb"},{"rt":1606,"stimulus":"img/globe_alternate.jpg","response":"n","image":"img/globe_alternate.jpg","old_or_new":"new","task":"recognition","trial_type":"image-keyboard-response","trial_index":13,"time_elapsed":82142,"internal_node_id":"0.0-3.0-0.5","subject_id":"5fcea2f064b54614035989dd","study_id":"607de2837874a824e2e8c6ec","session_id":"6088506810192d1d1105dfbb","correct":true},{"rt":2218,"stimulus":"\n      <p>How sure are you?</p>\n      <p>Rate your confidence in your answer from 1 (pure guess) to 5 (very sure) by pressing the corresponding button.</p>\n     ","response":4,"image":"img/globe_alternate.jpg","task":"confidence","old_or_new":"new","trial_type":"html-button-response","trial_index":14,"time_elapsed":84363,"internal_node_id":"0.0-3.0-1.5","subject_id":"5fcea2f064b54614035989dd","study_id":"607de2837874a824e2e8c6ec","session_id":"6088506810192d1d1105dfbb"},{"rt":1352,"stimulus":"img/glasses_alternate.jpg","response":"n","image":"img/glasses_alternate.jpg","old_or_new":"new","task":"recognition","trial_type":"image-keyboard-response","trial_index":15,"time_elapsed":86220,"internal_node_id":"0.0-3.0-0.6","subject_id":"5fcea2f064b54614035989dd","study_id":"607de2837874a824e2e8c6ec","session_id":"6088506810192d1d1105dfbb","correct":true},{"rt":955,"stimulus":"\n      <p>How sure are you?</p>\n      <p>Rate your confidence in your answer from 1 (pure guess) to 5 (very sure) by pressing the corresponding button.</p>\n     ","response":4,"image":"img/glasses_alternate.jpg","task":"confidence","old_or_new":"new","trial_type":"html-button-response","trial_index":16,"time_elapsed":87176,"internal_node_id":"0.0-3.0-1.6","subject_id":"5fcea2f064b54614035989dd","study_id":"607de2837874a824e2e8c6ec","session_id":"6088506810192d1d1105dfbb"},{"rt":1682,"stimulus":"img/folder_alternate.jpg","response":"n","image":"img/folder_alternate.jpg","old_or_new":"new","task":"recognition","trial_type":"image-keyboard-response","trial_index":17,"time_elapsed":89386,"internal_node_id":"0.0-3.0-0.7","subject_id":"5fcea2f064b54614035989dd","study_id":"607de2837874a824e2e8c6ec","session_id":"6088506810192d1d1105dfbb","correct":true},{"rt":2037,"stimulus":"\n      <p>How sure are you?</p>\n      <p>Rate your confidence in your answer from 1 (pure guess) to 5 (very sure) by pressing the corresponding button.</p>\n     ","response":4,"image":"img/folder_alternate.jpg","task":"confidence","old_or_new":"new","trial_type":"html-button-response","trial_index":18,"time_elapsed":91423,"internal_node_id":"0.0-3.0-1.7","subject_id":"5fcea2f064b54614035989dd","study_id":"607de2837874a824e2e8c6ec","session_id":"6088506810192d1d1105dfbb"},{"rt":1579,"stimulus":"img/drum.jpg","response":"y","image":"img/drum.jpg","old_or_new":"old","task":"recognition","trial_type":"image-keyboard-response","trial_index":19,"time_elapsed":93540,"internal_node_id":"0.0-3.0-0.8","subject_id":"5fcea2f064b54614035989dd","study_id":"607de2837874a824e2e8c6ec","session_id":"6088506810192d1d1105dfbb","correct":true},{"rt":1255,"stimulus":"\n      <p>How sure are you?</p>\n      <p>Rate your confidence in your answer from 1 (pure guess) to 5 (very sure) by pressing the corresponding button.</p>\n     ","response":4,"image":"img/drum.jpg","task":"confidence","old_or_new":"old","trial_type":"html-button-response","trial_index":20,"time_elapsed":94796,"internal_node_id":"0.0-3.0-1.8","subject_id":"5fcea2f064b54614035989dd","study_id":"607de2837874a824e2e8c6ec","session_id":"6088506810192d1d1105dfbb"},{"rt":1240,"stimulus":"img/chair.jpg","response":"y","image":"img/chair.jpg","old_or_new":"old","task":"recognition","trial_type":"image-keyboard-response","trial_index":21,"time_elapsed":96548,"internal_node_id":"0.0-3.0-0.9","subject_id":"5fcea2f064b54614035989dd","study_id":"607de2837874a824e2e8c6ec","session_id":"6088506810192d1d1105dfbb","correct":true},{"rt":1386,"stimulus":"\n      <p>How sure are you?</p>\n      <p>Rate your confidence in your answer from 1 (pure guess) to 5 (very sure) by pressing the corresponding button.</p>\n     ","response":4,"image":"img/chair.jpg","task":"confidence","old_or_new":"old","trial_type":"html-button-response","trial_index":22,"time_elapsed":97935,"internal_node_id":"0.0-3.0-1.9","subject_id":"5fcea2f064b54614035989dd","study_id":"607de2837874a824e2e8c6ec","session_id":"6088506810192d1d1105dfbb"},{"rt":1375,"stimulus":"img/chair_alternate.jpg","response":"n","image":"img/chair_alternate.jpg","old_or_new":"new","task":"recognition","trial_type":"image-keyboard-response","trial_index":23,"time_elapsed":99830,"internal_node_id":"0.0-3.0-0.10","subject_id":"5fcea2f064b54614035989dd","study_id":"607de2837874a824e2e8c6ec","session_id":"6088506810192d1d1105dfbb","correct":true},{"rt":1225,"stimulus":"\n      <p>How sure are you?</p>\n      <p>Rate your confidence in your answer from 1 (pure guess) to 5 (very sure) by pressing the corresponding button.</p>\n     ","response":4,"image":"img/chair_alternate.jpg","task":"confidence","old_or_new":"new","trial_type":"html-button-response","trial_index":24,"time_elapsed":101057,"internal_node_id":"0.0-3.0-1.10","subject_id":"5fcea2f064b54614035989dd","study_id":"607de2837874a824e2e8c6ec","session_id":"6088506810192d1d1105dfbb"},{"rt":3134,"stimulus":"img/ladder.jpg","response":"y","image":"img/ladder.jpg","old_or_new":"old","task":"recognition","trial_type":"image-keyboard-response","trial_index":25,"time_elapsed":104707,"internal_node_id":"0.0-3.0-0.11","subject_id":"5fcea2f064b54614035989dd","study_id":"607de2837874a824e2e8c6ec","session_id":"6088506810192d1d1105dfbb","correct":true},{"rt":1167,"stimulus":"\n      <p>How sure are you?</p>\n      <p>Rate your confidence in your answer from 1 (pure guess) to 5 (very sure) by pressing the corresponding button.</p>\n     ","response":4,"image":"img/ladder.jpg","task":"confidence","old_or_new":"old","trial_type":"html-button-response","trial_index":26,"time_elapsed":105875,"internal_node_id":"0.0-3.0-1.11","subject_id":"5fcea2f064b54614035989dd","study_id":"607de2837874a824e2e8c6ec","session_id":"6088506810192d1d1105dfbb"},{"rt":1209,"stimulus":"img/hat_alternate.jpg","response":"n","image":"img/hat_alternate.jpg","old_or_new":"new","task":"recognition","trial_type":"image-keyboard-response","trial_index":27,"time_elapsed":107600,"internal_node_id":"0.0-3.0-0.12","subject_id":"5fcea2f064b54614035989dd","study_id":"607de2837874a824e2e8c6ec","session_id":"6088506810192d1d1105dfbb","correct":true},{"rt":1227,"stimulus":"\n      <p>How sure are you?</p>\n      <p>Rate your confidence in your answer from 1 (pure guess) to 5 (very sure) by pressing the corresponding button.</p>\n     ","response":4,"image":"img/hat_alternate.jpg","task":"confidence","old_or_new":"new","trial_type":"html-button-response","trial_index":28,"time_elapsed":108827,"internal_node_id":"0.0-3.0-1.12","subject_id":"5fcea2f064b54614035989dd","study_id":"607de2837874a824e2e8c6ec","session_id":"6088506810192d1d1105dfbb"},{"rt":1220,"stimulus":"img/leaf_alternate.jpg","response":"n","image":"img/leaf_alternate.jpg","old_or_new":"new","task":"recognition","trial_type":"image-keyboard-response","trial_index":29,"time_elapsed":110609,"internal_node_id":"0.0-3.0-0.13","subject_id":"5fcea2f064b54614035989dd","study_id":"607de2837874a824e2e8c6ec","session_id":"6088506810192d1d1105dfbb","correct":true},{"rt":1240,"stimulus":"\n      <p>How sure are you?</p>\n      <p>Rate your confidence in your answer from 1 (pure guess) to 5 (very sure) by pressing the corresponding button.</p>\n     ","response":4,"image":"img/leaf_alternate.jpg","task":"confidence","old_or_new":"new","trial_type":"html-button-response","trial_index":30,"time_elapsed":111849,"internal_node_id":"0.0-3.0-1.13","subject_id":"5fcea2f064b54614035989dd","study_id":"607de2837874a824e2e8c6ec","session_id":"6088506810192d1d1105dfbb"},{"rt":1542,"stimulus":"img/dryer.jpg","response":"y","image":"img/dryer.jpg","old_or_new":"old","task":"recognition","trial_type":"image-keyboard-response","trial_index":31,"time_elapsed":113915,"internal_node_id":"0.0-3.0-0.14","subject_id":"5fcea2f064b54614035989dd","study_id":"607de2837874a824e2e8c6ec","session_id":"6088506810192d1d1105dfbb","correct":true},{"rt":1283,"stimulus":"\n      <p>How sure are you?</p>\n      <p>Rate your confidence in your answer from 1 (pure guess) to 5 (very sure) by pressing the corresponding button.</p>\n     ","response":4,"image":"img/dryer.jpg","task":"confidence","old_or_new":"old","trial_type":"html-button-response","trial_index":32,"time_elapsed":115200,"internal_node_id":"0.0-3.0-1.14","subject_id":"5fcea2f064b54614035989dd","study_id":"607de2837874a824e2e8c6ec","session_id":"6088506810192d1d1105dfbb"},{"rt":1353,"stimulus":"img/lightbulb.jpg","response":"y","image":"img/lightbulb.jpg","old_or_new":"old","task":"recognition","trial_type":"image-keyboard-response","trial_index":33,"time_elapsed":117067,"internal_node_id":"0.0-3.0-0.15","subject_id":"5fcea2f064b54614035989dd","study_id":"607de2837874a824e2e8c6ec","session_id":"6088506810192d1d1105dfbb","correct":true},{"rt":1216,"stimulus":"\n      <p>How sure are you?</p>\n      <p>Rate your confidence in your answer from 1 (pure guess) to 5 (very sure) by pressing the corresponding button.</p>\n     ","response":4,"image":"img/lightbulb.jpg","task":"confidence","old_or_new":"old","trial_type":"html-button-response","trial_index":34,"time_elapsed":118283,"internal_node_id":"0.0-3.0-1.15","subject_id":"5fcea2f064b54614035989dd","study_id":"607de2837874a824e2e8c6ec","session_id":"6088506810192d1d1105dfbb"},{"rt":1345,"stimulus":"img/hourglass.jpg","response":"y","image":"img/hourglass.jpg","old_or_new":"old","task":"recognition","trial_type":"image-keyboard-response","trial_index":35,"time_elapsed":120140,"internal_node_id":"0.0-3.0-0.16","subject_id":"5fcea2f064b54614035989dd","study_id":"607de2837874a824e2e8c6ec","session_id":"6088506810192d1d1105dfbb","correct":true},{"rt":1554,"stimulus":"\n      <p>How sure are you?</p>\n      <p>Rate your confidence in your answer from 1 (pure guess) to 5 (very sure) by pressing the corresponding button.</p>\n     ","response":4,"image":"img/hourglass.jpg","task":"confidence","old_or_new":"old","trial_type":"html-button-response","trial_index":36,"time_elapsed":121696,"internal_node_id":"0.0-3.0-1.16","subject_id":"5fcea2f064b54614035989dd","study_id":"607de2837874a824e2e8c6ec","session_id":"6088506810192d1d1105dfbb"},{"rt":2214,"stimulus":"img/hair_tie_alternate.jpg","response":"n","image":"img/hair_tie_alternate.jpg","old_or_new":"new","task":"recognition","trial_type":"image-keyboard-response","trial_index":37,"time_elapsed":124442,"internal_node_id":"0.0-3.0-0.17","subject_id":"5fcea2f064b54614035989dd","study_id":"607de2837874a824e2e8c6ec","session_id":"6088506810192d1d1105dfbb","correct":true},{"rt":1362,"stimulus":"\n      <p>How sure are you?</p>\n      <p>Rate your confidence in your answer from 1 (pure guess) to 5 (very sure) by pressing the corresponding button.</p>\n     ","response":4,"image":"img/hair_tie_alternate.jpg","task":"confidence","old_or_new":"new","trial_type":"html-button-response","trial_index":38,"time_elapsed":125803,"internal_node_id":"0.0-3.0-1.17","subject_id":"5fcea2f064b54614035989dd","study_id":"607de2837874a824e2e8c6ec","session_id":"6088506810192d1d1105dfbb"},{"rt":1876,"stimulus":"img/apple_alternate.jpg","response":"n","image":"img/apple_alternate.jpg","old_or_new":"new","task":"recognition","trial_type":"image-keyboard-response","trial_index":39,"time_elapsed":128191,"internal_node_id":"0.0-3.0-0.18","subject_id":"5fcea2f064b54614035989dd","study_id":"607de2837874a824e2e8c6ec","session_id":"6088506810192d1d1105dfbb","correct":true},{"rt":1696,"stimulus":"\n      <p>How sure are you?</p>\n      <p>Rate your confidence in your answer from 1 (pure guess) to 5 (very sure) by pressing the corresponding button.</p>\n     ","response":4,"image":"img/apple_alternate.jpg","task":"confidence","old_or_new":"new","trial_type":"html-button-response","trial_index":40,"time_elapsed":129887,"internal_node_id":"0.0-3.0-1.18","subject_id":"5fcea2f064b54614035989dd","study_id":"607de2837874a824e2e8c6ec","session_id":"6088506810192d1d1105dfbb"},{"rt":9838,"stimulus":"img/basket_alternate.jpg","response":"n","image":"img/basket_alternate.jpg","old_or_new":"new","task":"recognition","trial_type":"image-keyboard-response","trial_index":41,"time_elapsed":140256,"internal_node_id":"0.0-3.0-0.19","subject_id":"5fcea2f064b54614035989dd","study_id":"607de2837874a824e2e8c6ec","session_id":"6088506810192d1d1105dfbb","correct":true},{"rt":1383,"stimulus":"\n      <p>How sure are you?</p>\n      <p>Rate your confidence in your answer from 1 (pure guess) to 5 (very sure) by pressing the corresponding button.</p>\n     ","response":2,"image":"img/basket_alternate.jpg","task":"confidence","old_or_new":"new","trial_type":"html-button-response","trial_index":42,"time_elapsed":141642,"internal_node_id":"0.0-3.0-1.19","subject_id":"5fcea2f064b54614035989dd","study_id":"607de2837874a824e2e8c6ec","session_id":"6088506810192d1d1105dfbb"},{"rt":1538,"stimulus":"img/camera.jpg","response":"y","image":"img/camera.jpg","old_or_new":"old","task":"recognition","trial_type":"image-keyboard-response","trial_index":43,"time_elapsed":143701,"internal_node_id":"0.0-3.0-0.20","subject_id":"5fcea2f064b54614035989dd","study_id":"607de2837874a824e2e8c6ec","session_id":"6088506810192d1d1105dfbb","correct":true},{"rt":1243,"stimulus":"\n      <p>How sure are you?</p>\n      <p>Rate your confidence in your answer from 1 (pure guess) to 5 (very sure) by pressing the corresponding button.</p>\n     ","response":4,"image":"img/camera.jpg","task":"confidence","old_or_new":"old","trial_type":"html-button-response","trial_index":44,"time_elapsed":144943,"internal_node_id":"0.0-3.0-1.20","subject_id":"5fcea2f064b54614035989dd","study_id":"607de2837874a824e2e8c6ec","session_id":"6088506810192d1d1105dfbb"},{"rt":1827,"stimulus":"img/coin_alternate.jpg","response":"n","image":"img/coin_alternate.jpg","old_or_new":"new","task":"recognition","trial_type":"image-keyboard-response","trial_index":45,"time_elapsed":147292,"internal_node_id":"0.0-3.0-0.21","subject_id":"5fcea2f064b54614035989dd","study_id":"607de2837874a824e2e8c6ec","session_id":"6088506810192d1d1105dfbb","correct":true},{"rt":984,"stimulus":"\n      <p>How sure are you?</p>\n      <p>Rate your confidence in your answer from 1 (pure guess) to 5 (very sure) by pressing the corresponding button.</p>\n     ","response":4,"image":"img/coin_alternate.jpg","task":"confidence","old_or_new":"new","trial_type":"html-button-response","trial_index":46,"time_elapsed":148277,"internal_node_id":"0.0-3.0-1.21","subject_id":"5fcea2f064b54614035989dd","study_id":"607de2837874a824e2e8c6ec","session_id":"6088506810192d1d1105dfbb"},{"rt":1387,"stimulus":"img/apple.jpg","response":"y","image":"img/apple.jpg","old_or_new":"old","task":"recognition","trial_type":"image-keyboard-response","trial_index":47,"time_elapsed":150191,"internal_node_id":"0.0-3.0-0.22","subject_id":"5fcea2f064b54614035989dd","study_id":"607de2837874a824e2e8c6ec","session_id":"6088506810192d1d1105dfbb","correct":true},{"rt":1116,"stimulus":"\n      <p>How sure are you?</p>\n      <p>Rate your confidence in your answer from 1 (pure guess) to 5 (very sure) by pressing the corresponding button.</p>\n     ","response":4,"image":"img/apple.jpg","task":"confidence","old_or_new":"old","trial_type":"html-button-response","trial_index":48,"time_elapsed":151308,"internal_node_id":"0.0-3.0-1.22","subject_id":"5fcea2f064b54614035989dd","study_id":"607de2837874a824e2e8c6ec","session_id":"6088506810192d1d1105dfbb"},{"rt":1125,"stimulus":"img/drum_alternate.jpg","response":"n","image":"img/drum_alternate.jpg","old_or_new":"new","task":"recognition","trial_type":"image-keyboard-response","trial_index":49,"time_elapsed":152950,"internal_node_id":"0.0-3.0-0.23","subject_id":"5fcea2f064b54614035989dd","study_id":"607de2837874a824e2e8c6ec","session_id":"6088506810192d1d1105dfbb","correct":true},{"rt":1277,"stimulus":"\n      <p>How sure are you?</p>\n      <p>Rate your confidence in your answer from 1 (pure guess) to 5 (very sure) by pressing the corresponding button.</p>\n     ","response":4,"image":"img/drum_alternate.jpg","task":"confidence","old_or_new":"new","trial_type":"html-button-response","trial_index":50,"time_elapsed":154228,"internal_node_id":"0.0-3.0-1.23","subject_id":"5fcea2f064b54614035989dd","study_id":"607de2837874a824e2e8c6ec","session_id":"6088506810192d1d1105dfbb"},{"rt":1564,"stimulus":"img/hairbrush_alternate.jpg","response":"n","image":"img/hairbrush_alternate.jpg","old_or_new":"new","task":"recognition","trial_type":"image-keyboard-response","trial_index":51,"time_elapsed":156305,"internal_node_id":"0.0-3.0-0.24","subject_id":"5fcea2f064b54614035989dd","study_id":"607de2837874a824e2e8c6ec","session_id":"6088506810192d1d1105dfbb","correct":true},{"rt":1045,"stimulus":"\n      <p>How sure are you?</p>\n      <p>Rate your confidence in your answer from 1 (pure guess) to 5 (very sure) by pressing the corresponding button.</p>\n     ","response":4,"image":"img/hairbrush_alternate.jpg","task":"confidence","old_or_new":"new","trial_type":"html-button-response","trial_index":52,"time_elapsed":157352,"internal_node_id":"0.0-3.0-1.24","subject_id":"5fcea2f064b54614035989dd","study_id":"607de2837874a824e2e8c6ec","session_id":"6088506810192d1d1105dfbb"},{"rt":1456,"stimulus":"img/dryer_alternate.jpg","response":"n","image":"img/dryer_alternate.jpg","old_or_new":"new","task":"recognition","trial_type":"image-keyboard-response","trial_index":53,"time_elapsed":159319,"internal_node_id":"0.0-3.0-0.25","subject_id":"5fcea2f064b54614035989dd","study_id":"607de2837874a824e2e8c6ec","session_id":"6088506810192d1d1105dfbb","correct":true},{"rt":998,"stimulus":"\n      <p>How sure are you?</p>\n      <p>Rate your confidence in your answer from 1 (pure guess) to 5 (very sure) by pressing the corresponding button.</p>\n     ","response":4,"image":"img/dryer_alternate.jpg","task":"confidence","old_or_new":"new","trial_type":"html-button-response","trial_index":54,"time_elapsed":160319,"internal_node_id":"0.0-3.0-1.25","subject_id":"5fcea2f064b54614035989dd","study_id":"607de2837874a824e2e8c6ec","session_id":"6088506810192d1d1105dfbb"},{"rt":1197,"stimulus":"img/grapes.jpg","response":"y","image":"img/grapes.jpg","old_or_new":"old","task":"recognition","trial_type":"image-keyboard-response","trial_index":55,"time_elapsed":162041,"internal_node_id":"0.0-3.0-0.26","subject_id":"5fcea2f064b54614035989dd","study_id":"607de2837874a824e2e8c6ec","session_id":"6088506810192d1d1105dfbb","correct":true},{"rt":1181,"stimulus":"\n      <p>How sure are you?</p>\n      <p>Rate your confidence in your answer from 1 (pure guess) to 5 (very sure) by pressing the corresponding button.</p>\n     ","response":4,"image":"img/grapes.jpg","task":"confidence","old_or_new":"old","trial_type":"html-button-response","trial_index":56,"time_elapsed":163223,"internal_node_id":"0.0-3.0-1.26","subject_id":"5fcea2f064b54614035989dd","study_id":"607de2837874a824e2e8c6ec","session_id":"6088506810192d1d1105dfbb"},{"rt":1202,"stimulus":"img/helmet.jpg","response":"y","image":"img/helmet.jpg","old_or_new":"old","task":"recognition","trial_type":"image-keyboard-response","trial_index":57,"time_elapsed":164937,"internal_node_id":"0.0-3.0-0.27","subject_id":"5fcea2f064b54614035989dd","study_id":"607de2837874a824e2e8c6ec","session_id":"6088506810192d1d1105dfbb","correct":true},{"rt":1627,"stimulus":"\n      <p>How sure are you?</p>\n      <p>Rate your confidence in your answer from 1 (pure guess) to 5 (very sure) by pressing the corresponding button.</p>\n     ","response":4,"image":"img/helmet.jpg","task":"confidence","old_or_new":"old","trial_type":"html-button-response","trial_index":58,"time_elapsed":166566,"internal_node_id":"0.0-3.0-1.27","subject_id":"5fcea2f064b54614035989dd","study_id":"607de2837874a824e2e8c6ec","session_id":"6088506810192d1d1105dfbb"},{"rt":2202,"stimulus":"img/grapes_alternate.jpg","response":"n","image":"img/grapes_alternate.jpg","old_or_new":"new","task":"recognition","trial_type":"image-keyboard-response","trial_index":59,"time_elapsed":169293,"internal_node_id":"0.0-3.0-0.28","subject_id":"5fcea2f064b54614035989dd","study_id":"607de2837874a824e2e8c6ec","session_id":"6088506810192d1d1105dfbb","correct":true},{"rt":1129,"stimulus":"\n      <p>How sure are you?</p>\n      <p>Rate your confidence in your answer from 1 (pure guess) to 5 (very sure) by pressing the corresponding button.</p>\n     ","response":4,"image":"img/grapes_alternate.jpg","task":"confidence","old_or_new":"new","trial_type":"html-button-response","trial_index":60,"time_elapsed":170424,"internal_node_id":"0.0-3.0-1.28","subject_id":"5fcea2f064b54614035989dd","study_id":"607de2837874a824e2e8c6ec","session_id":"6088506810192d1d1105dfbb"},{"rt":1712,"stimulus":"img/hat.jpg","response":"y","image":"img/hat.jpg","old_or_new":"old","task":"recognition","trial_type":"image-keyboard-response","trial_index":61,"time_elapsed":172648,"internal_node_id":"0.0-3.0-0.29","subject_id":"5fcea2f064b54614035989dd","study_id":"607de2837874a824e2e8c6ec","session_id":"6088506810192d1d1105dfbb","correct":true},{"rt":1826,"stimulus":"\n      <p>How sure are you?</p>\n      <p>Rate your confidence in your answer from 1 (pure guess) to 5 (very sure) by pressing the corresponding button.</p>\n     ","response":4,"image":"img/hat.jpg","task":"confidence","old_or_new":"old","trial_type":"html-button-response","trial_index":62,"time_elapsed":174476,"internal_node_id":"0.0-3.0-1.29","subject_id":"5fcea2f064b54614035989dd","study_id":"607de2837874a824e2e8c6ec","session_id":"6088506810192d1d1105dfbb"},{"rt":1179,"stimulus":"img/hair_tie.jpg","response":"y","image":"img/hair_tie.jpg","old_or_new":"old","task":"recognition","trial_type":"image-keyboard-response","trial_index":63,"time_elapsed":176186,"internal_node_id":"0.0-3.0-0.30","subject_id":"5fcea2f064b54614035989dd","study_id":"607de2837874a824e2e8c6ec","session_id":"6088506810192d1d1105dfbb","correct":true},{"rt":1531,"stimulus":"\n      <p>How sure are you?</p>\n      <p>Rate your confidence in your answer from 1 (pure guess) to 5 (very sure) by pressing the corresponding button.</p>\n     ","response":4,"image":"img/hair_tie.jpg","task":"confidence","old_or_new":"old","trial_type":"html-button-response","trial_index":64,"time_elapsed":177717,"internal_node_id":"0.0-3.0-1.30","subject_id":"5fcea2f064b54614035989dd","study_id":"607de2837874a824e2e8c6ec","session_id":"6088506810192d1d1105dfbb"},{"rt":1157,"stimulus":"img/key_alternate.jpg","response":"n","image":"img/key_alternate.jpg","old_or_new":"new","task":"recognition","trial_type":"image-keyboard-response","trial_index":65,"time_elapsed":179389,"internal_node_id":"0.0-3.0-0.31","subject_id":"5fcea2f064b54614035989dd","study_id":"607de2837874a824e2e8c6ec","session_id":"6088506810192d1d1105dfbb","correct":true},{"rt":1442,"stimulus":"\n      <p>How sure are you?</p>\n      <p>Rate your confidence in your answer from 1 (pure guess) to 5 (very sure) by pressing the corresponding button.</p>\n     ","response":4,"image":"img/key_alternate.jpg","task":"confidence","old_or_new":"new","trial_type":"html-button-response","trial_index":66,"time_elapsed":180831,"internal_node_id":"0.0-3.0-1.31","subject_id":"5fcea2f064b54614035989dd","study_id":"607de2837874a824e2e8c6ec","session_id":"6088506810192d1d1105dfbb"},{"rt":3753,"stimulus":"img/backpack.jpg","response":"y","image":"img/backpack.jpg","old_or_new":"old","task":"recognition","trial_type":"image-keyboard-response","trial_index":67,"time_elapsed":185096,"internal_node_id":"0.0-3.0-0.32","subject_id":"5fcea2f064b54614035989dd","study_id":"607de2837874a824e2e8c6ec","session_id":"6088506810192d1d1105dfbb","correct":true},{"rt":1366,"stimulus":"\n      <p>How sure are you?</p>\n      <p>Rate your confidence in your answer from 1 (pure guess) to 5 (very sure) by pressing the corresponding button.</p>\n     ","response":4,"image":"img/backpack.jpg","task":"confidence","old_or_new":"old","trial_type":"html-button-response","trial_index":68,"time_elapsed":186463,"internal_node_id":"0.0-3.0-1.32","subject_id":"5fcea2f064b54614035989dd","study_id":"607de2837874a824e2e8c6ec","session_id":"6088506810192d1d1105dfbb"},{"rt":1252,"stimulus":"img/coin.jpg","response":"y","image":"img/coin.jpg","old_or_new":"old","task":"recognition","trial_type":"image-keyboard-response","trial_index":69,"time_elapsed":188238,"internal_node_id":"0.0-3.0-0.33","subject_id":"5fcea2f064b54614035989dd","study_id":"607de2837874a824e2e8c6ec","session_id":"6088506810192d1d1105dfbb","correct":true},{"rt":1083,"stimulus":"\n      <p>How sure are you?</p>\n      <p>Rate your confidence in your answer from 1 (pure guess) to 5 (very sure) by pressing the corresponding button.</p>\n     ","response":4,"image":"img/coin.jpg","task":"confidence","old_or_new":"old","trial_type":"html-button-response","trial_index":70,"time_elapsed":189322,"internal_node_id":"0.0-3.0-1.33","subject_id":"5fcea2f064b54614035989dd","study_id":"607de2837874a824e2e8c6ec","session_id":"6088506810192d1d1105dfbb"},{"rt":1353,"stimulus":"img/lightbulb_alternate.jpg","response":"n","image":"img/lightbulb_alternate.jpg","old_or_new":"new","task":"recognition","trial_type":"image-keyboard-response","trial_index":71,"time_elapsed":191196,"internal_node_id":"0.0-3.0-0.34","subject_id":"5fcea2f064b54614035989dd","study_id":"607de2837874a824e2e8c6ec","session_id":"6088506810192d1d1105dfbb","correct":true},{"rt":957,"stimulus":"\n      <p>How sure are you?</p>\n      <p>Rate your confidence in your answer from 1 (pure guess) to 5 (very sure) by pressing the corresponding button.</p>\n     ","response":4,"image":"img/lightbulb_alternate.jpg","task":"confidence","old_or_new":"new","trial_type":"html-button-response","trial_index":72,"time_elapsed":192155,"internal_node_id":"0.0-3.0-1.34","subject_id":"5fcea2f064b54614035989dd","study_id":"607de2837874a824e2e8c6ec","session_id":"6088506810192d1d1105dfbb"},{"rt":14822,"stimulus":"img/calculator_alternate.jpg","response":"y","image":"img/calculator_alternate.jpg","old_or_new":"new","task":"recognition","trial_type":"image-keyboard-response","trial_index":73,"time_elapsed":207507,"internal_node_id":"0.0-3.0-0.35","subject_id":"5fcea2f064b54614035989dd","study_id":"607de2837874a824e2e8c6ec","session_id":"6088506810192d1d1105dfbb","correct":false},{"rt":2585,"stimulus":"\n      <p>How sure are you?</p>\n      <p>Rate your confidence in your answer from 1 (pure guess) to 5 (very sure) by pressing the corresponding button.</p>\n     ","response":1,"image":"img/calculator_alternate.jpg","task":"confidence","old_or_new":"new","trial_type":"html-button-response","trial_index":74,"time_elapsed":210093,"internal_node_id":"0.0-3.0-1.35","subject_id":"5fcea2f064b54614035989dd","study_id":"607de2837874a824e2e8c6ec","session_id":"6088506810192d1d1105dfbb"},{"rt":3856,"stimulus":"img/bowl_alternate.jpg","response":"n","image":"img/bowl_alternate.jpg","old_or_new":"new","task":"recognition","trial_type":"image-keyboard-response","trial_index":75,"time_elapsed":214471,"internal_node_id":"0.0-3.0-0.36","subject_id":"5fcea2f064b54614035989dd","study_id":"607de2837874a824e2e8c6ec","session_id":"6088506810192d1d1105dfbb","correct":true},{"rt":784,"stimulus":"\n      <p>How sure are you?</p>\n      <p>Rate your confidence in your answer from 1 (pure guess) to 5 (very sure) by pressing the corresponding button.</p>\n     ","response":4,"image":"img/bowl_alternate.jpg","task":"confidence","old_or_new":"new","trial_type":"html-button-response","trial_index":76,"time_elapsed":215256,"internal_node_id":"0.0-3.0-1.36","subject_id":"5fcea2f064b54614035989dd","study_id":"607de2837874a824e2e8c6ec","session_id":"6088506810192d1d1105dfbb"},{"rt":1129,"stimulus":"img/hourglass_alternate.jpg","response":"n","image":"img/hourglass_alternate.jpg","old_or_new":"new","task":"recognition","trial_type":"image-keyboard-response","trial_index":77,"time_elapsed":216909,"internal_node_id":"0.0-3.0-0.37","subject_id":"5fcea2f064b54614035989dd","study_id":"607de2837874a824e2e8c6ec","session_id":"6088506810192d1d1105dfbb","correct":true},{"rt":453,"stimulus":"\n      <p>How sure are you?</p>\n      <p>Rate your confidence in your answer from 1 (pure guess) to 5 (very sure) by pressing the corresponding button.</p>\n     ","response":4,"image":"img/hourglass_alternate.jpg","task":"confidence","old_or_new":"new","trial_type":"html-button-response","trial_index":78,"time_elapsed":217364,"internal_node_id":"0.0-3.0-1.37","subject_id":"5fcea2f064b54614035989dd","study_id":"607de2837874a824e2e8c6ec","session_id":"6088506810192d1d1105dfbb"},{"rt":1105,"stimulus":"img/leaf.jpg","response":"y","image":"img/leaf.jpg","old_or_new":"old","task":"recognition","trial_type":"image-keyboard-response","trial_index":79,"time_elapsed":218989,"internal_node_id":"0.0-3.0-0.38","subject_id":"5fcea2f064b54614035989dd","study_id":"607de2837874a824e2e8c6ec","session_id":"6088506810192d1d1105dfbb","correct":true},{"rt":452,"stimulus":"\n      <p>How sure are you?</p>\n      <p>Rate your confidence in your answer from 1 (pure guess) to 5 (very sure) by pressing the corresponding button.</p>\n     ","response":4,"image":"img/leaf.jpg","task":"confidence","old_or_new":"old","trial_type":"html-button-response","trial_index":80,"time_elapsed":219441,"internal_node_id":"0.0-3.0-1.38","subject_id":"5fcea2f064b54614035989dd","study_id":"607de2837874a824e2e8c6ec","session_id":"6088506810192d1d1105dfbb"},{"rt":1515,"stimulus":"img/folder.jpg","response":"y","image":"img/folder.jpg","old_or_new":"old","task":"recognition","trial_type":"image-keyboard-response","trial_index":81,"time_elapsed":221479,"internal_node_id":"0.0-3.0-0.39","subject_id":"5fcea2f064b54614035989dd","study_id":"607de2837874a824e2e8c6ec","session_id":"6088506810192d1d1105dfbb","correct":true},{"rt":437,"stimulus":"\n      <p>How sure are you?</p>\n      <p>Rate your confidence in your answer from 1 (pure guess) to 5 (very sure) by pressing the corresponding button.</p>\n     ","response":4,"image":"img/folder.jpg","task":"confidence","old_or_new":"old","trial_type":"html-button-response","trial_index":82,"time_elapsed":221916,"internal_node_id":"0.0-3.0-1.39","subject_id":"5fcea2f064b54614035989dd","study_id":"607de2837874a824e2e8c6ec","session_id":"6088506810192d1d1105dfbb"},{"rt":1053,"stimulus":"img/backpack_alternate.jpg","response":"n","image":"img/backpack_alternate.jpg","old_or_new":"new","task":"recognition","trial_type":"image-keyboard-response","trial_index":83,"time_elapsed":223550,"internal_node_id":"0.0-3.0-0.40","subject_id":"5fcea2f064b54614035989dd","study_id":"607de2837874a824e2e8c6ec","session_id":"6088506810192d1d1105dfbb","correct":true},{"rt":387,"stimulus":"\n      <p>How sure are you?</p>\n      <p>Rate your confidence in your answer from 1 (pure guess) to 5 (very sure) by pressing the corresponding button.</p>\n     ","response":4,"image":"img/backpack_alternate.jpg","task":"confidence","old_or_new":"new","trial_type":"html-button-response","trial_index":84,"time_elapsed":223938,"internal_node_id":"0.0-3.0-1.40","subject_id":"5fcea2f064b54614035989dd","study_id":"607de2837874a824e2e8c6ec","session_id":"6088506810192d1d1105dfbb"},{"rt":827,"stimulus":"img/hairbrush.jpg","response":"y","image":"img/hairbrush.jpg","old_or_new":"old","task":"recognition","trial_type":"image-keyboard-response","trial_index":85,"time_elapsed":225288,"internal_node_id":"0.0-3.0-0.41","subject_id":"5fcea2f064b54614035989dd","study_id":"607de2837874a824e2e8c6ec","session_id":"6088506810192d1d1105dfbb","correct":true},{"rt":406,"stimulus":"\n      <p>How sure are you?</p>\n      <p>Rate your confidence in your answer from 1 (pure guess) to 5 (very sure) by pressing the corresponding button.</p>\n     ","response":4,"image":"img/hairbrush.jpg","task":"confidence","old_or_new":"old","trial_type":"html-button-response","trial_index":86,"time_elapsed":225695,"internal_node_id":"0.0-3.0-1.41","subject_id":"5fcea2f064b54614035989dd","study_id":"607de2837874a824e2e8c6ec","session_id":"6088506810192d1d1105dfbb"},{"rt":1135,"stimulus":"img/basket.jpg","response":"y","image":"img/basket.jpg","old_or_new":"old","task":"recognition","trial_type":"image-keyboard-response","trial_index":87,"time_elapsed":227350,"internal_node_id":"0.0-3.0-0.42","subject_id":"5fcea2f064b54614035989dd","study_id":"607de2837874a824e2e8c6ec","session_id":"6088506810192d1d1105dfbb","correct":true},{"rt":999,"stimulus":"\n      <p>How sure are you?</p>\n      <p>Rate your confidence in your answer from 1 (pure guess) to 5 (very sure) by pressing the corresponding button.</p>\n     ","response":4,"image":"img/basket.jpg","task":"confidence","old_or_new":"old","trial_type":"html-button-response","trial_index":88,"time_elapsed":228349,"internal_node_id":"0.0-3.0-1.42","subject_id":"5fcea2f064b54614035989dd","study_id":"607de2837874a824e2e8c6ec","session_id":"6088506810192d1d1105dfbb"},{"rt":4009,"stimulus":"img/calculator.jpg","response":"y","image":"img/calculator.jpg","old_or_new":"old","task":"recognition","trial_type":"image-keyboard-response","trial_index":89,"time_elapsed":232873,"internal_node_id":"0.0-3.0-0.43","subject_id":"5fcea2f064b54614035989dd","study_id":"607de2837874a824e2e8c6ec","session_id":"6088506810192d1d1105dfbb","correct":true},{"rt":465,"stimulus":"\n      <p>How sure are you?</p>\n      <p>Rate your confidence in your answer from 1 (pure guess) to 5 (very sure) by pressing the corresponding button.</p>\n     ","response":4,"image":"img/calculator.jpg","task":"confidence","old_or_new":"old","trial_type":"html-button-response","trial_index":90,"time_elapsed":233339,"internal_node_id":"0.0-3.0-1.43","subject_id":"5fcea2f064b54614035989dd","study_id":"607de2837874a824e2e8c6ec","session_id":"6088506810192d1d1105dfbb"},{"rt":1279,"stimulus":"img/fan_alternate.jpg","response":"n","image":"img/fan_alternate.jpg","old_or_new":"new","task":"recognition","trial_type":"image-keyboard-response","trial_index":91,"time_elapsed":235143,"internal_node_id":"0.0-3.0-0.44","subject_id":"5fcea2f064b54614035989dd","study_id":"607de2837874a824e2e8c6ec","session_id":"6088506810192d1d1105dfbb","correct":true},{"rt":445,"stimulus":"\n      <p>How sure are you?</p>\n      <p>Rate your confidence in your answer from 1 (pure guess) to 5 (very sure) by pressing the corresponding button.</p>\n     ","response":4,"image":"img/fan_alternate.jpg","task":"confidence","old_or_new":"new","trial_type":"html-button-response","trial_index":92,"time_elapsed":235589,"internal_node_id":"0.0-3.0-1.44","subject_id":"5fcea2f064b54614035989dd","study_id":"607de2837874a824e2e8c6ec","session_id":"6088506810192d1d1105dfbb"},{"rt":1035,"stimulus":"img/ladder_alternate.jpg","response":"n","image":"img/ladder_alternate.jpg","old_or_new":"new","task":"recognition","trial_type":"image-keyboard-response","trial_index":93,"time_elapsed":237140,"internal_node_id":"0.0-3.0-0.45","subject_id":"5fcea2f064b54614035989dd","study_id":"607de2837874a824e2e8c6ec","session_id":"6088506810192d1d1105dfbb","correct":true},{"rt":345,"stimulus":"\n      <p>How sure are you?</p>\n      <p>Rate your confidence in your answer from 1 (pure guess) to 5 (very sure) by pressing the corresponding button.</p>\n     ","response":4,"image":"img/ladder_alternate.jpg","task":"confidence","old_or_new":"new","trial_type":"html-button-response","trial_index":94,"time_elapsed":237486,"internal_node_id":"0.0-3.0-1.45","subject_id":"5fcea2f064b54614035989dd","study_id":"607de2837874a824e2e8c6ec","session_id":"6088506810192d1d1105dfbb"},{"rt":884,"stimulus":"img/camera_alternate.jpg","response":"n","image":"img/camera_alternate.jpg","old_or_new":"new","task":"recognition","trial_type":"image-keyboard-response","trial_index":95,"time_elapsed":238887,"internal_node_id":"0.0-3.0-0.46","subject_id":"5fcea2f064b54614035989dd","study_id":"607de2837874a824e2e8c6ec","session_id":"6088506810192d1d1105dfbb","correct":true},{"rt":372,"stimulus":"\n      <p>How sure are you?</p>\n      <p>Rate your confidence in your answer from 1 (pure guess) to 5 (very sure) by pressing the corresponding button.</p>\n     ","response":4,"image":"img/camera_alternate.jpg","task":"confidence","old_or_new":"new","trial_type":"html-button-response","trial_index":96,"time_elapsed":239259,"internal_node_id":"0.0-3.0-1.46","subject_id":"5fcea2f064b54614035989dd","study_id":"607de2837874a824e2e8c6ec","session_id":"6088506810192d1d1105dfbb"},{"rt":815,"stimulus":"img/fan.jpg","response":"y","image":"img/fan.jpg","old_or_new":"old","task":"recognition","trial_type":"image-keyboard-response","trial_index":97,"time_elapsed":240601,"internal_node_id":"0.0-3.0-0.47","subject_id":"5fcea2f064b54614035989dd","study_id":"607de2837874a824e2e8c6ec","session_id":"6088506810192d1d1105dfbb","correct":true},{"rt":367,"stimulus":"\n      <p>How sure are you?</p>\n      <p>Rate your confidence in your answer from 1 (pure guess) to 5 (very sure) by pressing the corresponding button.</p>\n     ","response":4,"image":"img/fan.jpg","task":"confidence","old_or_new":"old","trial_type":"html-button-response","trial_index":98,"time_elapsed":240969,"internal_node_id":"0.0-3.0-1.47","subject_id":"5fcea2f064b54614035989dd","study_id":"607de2837874a824e2e8c6ec","session_id":"6088506810192d1d1105dfbb"}]