[{"rt":10827.315000002272,"stimulus":"Welcome to the experiment. Press any key to begin.","response":" ","trial_type":"html-keyboard-response","trial_index":0,"time_elapsed":10842,"internal_node_id":"0.0-0.0","subject_id":"5e53a7b4d9a7ea3a2b062da0","study_id":"605e2a800ccfa0c8e820d869","session_id":"606220e9f4b347d292e1f168"},{"rt":4207.745000021532,"stimulus":"\n        <p>In this experiment, a face will appear on-screen.</p><p> <strong>Rate the face on a 1 - 7 scale based on how attractive he / she is.</strong> </p>\n        </div>\n        <p>Press any key to begin.</p>\n      ","response":" ","trial_type":"html-keyboard-response","trial_index":1,"time_elapsed":15054,"internal_node_id":"0.0-1.0","subject_id":"5e53a7b4d9a7ea3a2b062da0","study_id":"605e2a800ccfa0c8e820d869","session_id":"606220e9f4b347d292e1f168"},{"success":true,"timeout":false,"failed_images":[],"failed_audio":[],"failed_video":[],"trial_type":"preload","trial_index":2,"time_elapsed":46815,"internal_node_id":"0.0-2.0","subject_id":"5e53a7b4d9a7ea3a2b062da0","study_id":"605e2a800ccfa0c8e820d869","session_id":"606220e9f4b347d292e1f168"},{"rt":15262.950000003912,"stimulus":"img/00542.png","slider_start":4,"response":3,"trial_type":"image-slider-response","trial_index":3,"time_elapsed":62164,"internal_node_id":"0.0-3.0-0.0","subject_id":"5e53a7b4d9a7ea3a2b062da0","study_id":"605e2a800ccfa0c8e820d869","session_id":"606220e9f4b347d292e1f168"},{"rt":4142.980000004172,"stimulus":"img/00811.png","slider_start":4,"response":3,"trial_type":"image-slider-response","trial_index":4,"time_elapsed":66327,"internal_node_id":"0.0-3.0-0.1","subject_id":"5e53a7b4d9a7ea3a2b062da0","study_id":"605e2a800ccfa0c8e820d869","session_id":"606220e9f4b347d292e1f168"},{"rt":5308.090000005905,"stimulus":"img/00817.png","slider_start":4,"response":3,"trial_type":"image-slider-response","trial_index":5,"time_elapsed":71647,"internal_node_id":"0.0-3.0-0.2","subject_id":"5e53a7b4d9a7ea3a2b062da0","study_id":"605e2a800ccfa0c8e820d869","session_id":"606220e9f4b347d292e1f168"},{"rt":19034.800000023097,"stimulus":"img/00105.png","slider_start":4,"response":4,"trial_type":"image-slider-response","trial_index":6,"time_elapsed":90693,"internal_node_id":"0.0-3.0-0.3","subject_id":"5e53a7b4d9a7ea3a2b062da0","study_id":"605e2a800ccfa0c8e820d869","session_id":"606220e9f4b347d292e1f168"},{"rt":8883.465000020806,"stimulus":"img/00631.png","slider_start":4,"response":5,"trial_type":"image-slider-response","trial_index":7,"time_elapsed":99588,"internal_node_id":"0.0-3.0-0.4","subject_id":"5e53a7b4d9a7ea3a2b062da0","study_id":"605e2a800ccfa0c8e820d869","session_id":"606220e9f4b347d292e1f168"},{"rt":5028.890000015963,"stimulus":"img/00563.png","slider_start":4,"response":3,"trial_type":"image-slider-response","trial_index":8,"time_elapsed":104629,"internal_node_id":"0.0-3.0-0.5","subject_id":"5e53a7b4d9a7ea3a2b062da0","study_id":"605e2a800ccfa0c8e820d869","session_id":"606220e9f4b347d292e1f168"},{"rt":10876.589999999851,"stimulus":"img/00059.png","slider_start":4,"response":6,"trial_type":"image-slider-response","trial_index":9,"time_elapsed":115517,"internal_node_id":"0.0-3.0-0.6","subject_id":"5e53a7b4d9a7ea3a2b062da0","study_id":"605e2a800ccfa0c8e820d869","session_id":"606220e9f4b347d292e1f168"},{"rt":7249.054999963846,"stimulus":"img/00499.png","slider_start":4,"response":2,"trial_type":"image-slider-response","trial_index":10,"time_elapsed":122777,"internal_node_id":"0.0-3.0-0.7","subject_id":"5e53a7b4d9a7ea3a2b062da0","study_id":"605e2a800ccfa0c8e820d869","session_id":"606220e9f4b347d292e1f168"},{"rt":8927.974999998696,"stimulus":"img/00401.png","slider_start":4,"response":4,"trial_type":"image-slider-response","trial_index":11,"time_elapsed":131716,"internal_node_id":"0.0-3.0-0.8","subject_id":"5e53a7b4d9a7ea3a2b062da0","study_id":"605e2a800ccfa0c8e820d869","session_id":"606220e9f4b347d292e1f168"},{"rt":10725.210000004154,"stimulus":"img/00760.png","slider_start":4,"response":4,"trial_type":"image-slider-response","trial_index":12,"time_elapsed":142453,"internal_node_id":"0.0-3.0-0.9","subject_id":"5e53a7b4d9a7ea3a2b062da0","study_id":"605e2a800ccfa0c8e820d869","session_id":"606220e9f4b347d292e1f168"},{"rt":4820.064999978058,"stimulus":"img/00600.png","slider_start":4,"response":3,"trial_type":"image-slider-response","trial_index":13,"time_elapsed":147284,"internal_node_id":"0.0-3.0-0.10","subject_id":"5e53a7b4d9a7ea3a2b062da0","study_id":"605e2a800ccfa0c8e820d869","session_id":"606220e9f4b347d292e1f168"},{"rt":7308.0750000081025,"stimulus":"img/00483.png","slider_start":4,"response":3,"trial_type":"image-slider-response","trial_index":14,"time_elapsed":154603,"internal_node_id":"0.0-3.0-0.11","subject_id":"5e53a7b4d9a7ea3a2b062da0","study_id":"605e2a800ccfa0c8e820d869","session_id":"606220e9f4b347d292e1f168"},{"rt":4471.114999963902,"stimulus":"img/00748.png","slider_start":4,"response":4,"trial_type":"image-slider-response","trial_index":15,"time_elapsed":159085,"internal_node_id":"0.0-3.0-0.12","subject_id":"5e53a7b4d9a7ea3a2b062da0","study_id":"605e2a800ccfa0c8e820d869","session_id":"606220e9f4b347d292e1f168"},{"rt":3518.7900000019,"stimulus":"img/00779.png","slider_start":4,"response":3,"trial_type":"image-slider-response","trial_index":16,"time_elapsed":162614,"internal_node_id":"0.0-3.0-0.13","subject_id":"5e53a7b4d9a7ea3a2b062da0","study_id":"605e2a800ccfa0c8e820d869","session_id":"606220e9f4b347d292e1f168"},{"rt":2375.1800000318326,"stimulus":"img/00780.png","slider_start":4,"response":4,"trial_type":"image-slider-response","trial_index":17,"time_elapsed":165000,"internal_node_id":"0.0-3.0-0.14","subject_id":"5e53a7b4d9a7ea3a2b062da0","study_id":"605e2a800ccfa0c8e820d869","session_id":"606220e9f4b347d292e1f168"},{"rt":3570.6350000109524,"stimulus":"img/00898.png","slider_start":4,"response":3,"trial_type":"image-slider-response","trial_index":18,"time_elapsed":168579,"internal_node_id":"0.0-3.0-0.15","subject_id":"5e53a7b4d9a7ea3a2b062da0","study_id":"605e2a800ccfa0c8e820d869","session_id":"606220e9f4b347d292e1f168"},{"rt":2990.5699999653734,"stimulus":"img/00052.png","slider_start":4,"response":5,"trial_type":"image-slider-response","trial_index":19,"time_elapsed":171581,"internal_node_id":"0.0-3.0-0.16","subject_id":"5e53a7b4d9a7ea3a2b062da0","study_id":"605e2a800ccfa0c8e820d869","session_id":"606220e9f4b347d292e1f168"},{"rt":4032.810000004247,"stimulus":"img/00569.png","slider_start":4,"response":3,"trial_type":"image-slider-response","trial_index":20,"time_elapsed":175623,"internal_node_id":"0.0-3.0-0.17","subject_id":"5e53a7b4d9a7ea3a2b062da0","study_id":"605e2a800ccfa0c8e820d869","session_id":"606220e9f4b347d292e1f168"},{"rt":5135.509999992792,"stimulus":"img/00561.png","slider_start":4,"response":3,"trial_type":"image-slider-response","trial_index":21,"time_elapsed":180770,"internal_node_id":"0.0-3.0-0.18","subject_id":"5e53a7b4d9a7ea3a2b062da0","study_id":"605e2a800ccfa0c8e820d869","session_id":"606220e9f4b347d292e1f168"},{"rt":2856.2950000050478,"stimulus":"img/00077.png","slider_start":4,"response":5,"trial_type":"image-slider-response","trial_index":22,"time_elapsed":183641,"internal_node_id":"0.0-3.0-0.19","subject_id":"5e53a7b4d9a7ea3a2b062da0","study_id":"605e2a800ccfa0c8e820d869","session_id":"606220e9f4b347d292e1f168"},{"rt":3998.5999999917112,"stimulus":"img/00469.png","slider_start":4,"response":6,"trial_type":"image-slider-response","trial_index":23,"time_elapsed":187648,"internal_node_id":"0.0-3.0-0.20","subject_id":"5e53a7b4d9a7ea3a2b062da0","study_id":"605e2a800ccfa0c8e820d869","session_id":"606220e9f4b347d292e1f168"},{"rt":4299.04999997234,"stimulus":"img/00462.png","slider_start":4,"response":5,"trial_type":"image-slider-response","trial_index":24,"time_elapsed":191958,"internal_node_id":"0.0-3.0-0.21","subject_id":"5e53a7b4d9a7ea3a2b062da0","study_id":"605e2a800ccfa0c8e820d869","session_id":"606220e9f4b347d292e1f168"},{"rt":8933.559999975841,"stimulus":"img/00454.png","slider_start":4,"response":4,"trial_type":"image-slider-response","trial_index":25,"time_elapsed":200902,"internal_node_id":"0.0-3.0-0.22","subject_id":"5e53a7b4d9a7ea3a2b062da0","study_id":"605e2a800ccfa0c8e820d869","session_id":"606220e9f4b347d292e1f168"},{"rt":15780.954999965616,"stimulus":"img/00878.png","slider_start":4,"response":3,"trial_type":"image-slider-response","trial_index":26,"time_elapsed":216696,"internal_node_id":"0.0-3.0-0.23","subject_id":"5e53a7b4d9a7ea3a2b062da0","study_id":"605e2a800ccfa0c8e820d869","session_id":"606220e9f4b347d292e1f168"},{"rt":5627.520000038203,"stimulus":"img/00496.png","slider_start":4,"response":6,"trial_type":"image-slider-response","trial_index":27,"time_elapsed":222334,"internal_node_id":"0.0-3.0-0.24","subject_id":"5e53a7b4d9a7ea3a2b062da0","study_id":"605e2a800ccfa0c8e820d869","session_id":"606220e9f4b347d292e1f168"},{"rt":4035.9000000171363,"stimulus":"img/00644.png","slider_start":4,"response":5,"trial_type":"image-slider-response","trial_index":28,"time_elapsed":226381,"internal_node_id":"0.0-3.0-0.25","subject_id":"5e53a7b4d9a7ea3a2b062da0","study_id":"605e2a800ccfa0c8e820d869","session_id":"606220e9f4b347d292e1f168"},{"rt":2924.020000034943,"stimulus":"img/00722.png","slider_start":4,"response":5,"trial_type":"image-slider-response","trial_index":29,"time_elapsed":229315,"internal_node_id":"0.0-3.0-0.26","subject_id":"5e53a7b4d9a7ea3a2b062da0","study_id":"605e2a800ccfa0c8e820d869","session_id":"606220e9f4b347d292e1f168"},{"rt":6650.5250000045635,"stimulus":"img/00100.png","slider_start":4,"response":4,"trial_type":"image-slider-response","trial_index":30,"time_elapsed":235976,"internal_node_id":"0.0-3.0-0.27","subject_id":"5e53a7b4d9a7ea3a2b062da0","study_id":"605e2a800ccfa0c8e820d869","session_id":"606220e9f4b347d292e1f168"},{"rt":7350.0699999858625,"stimulus":"img/00508.png","slider_start":4,"response":5,"trial_type":"image-slider-response","trial_index":31,"time_elapsed":243340,"internal_node_id":"0.0-3.0-0.28","subject_id":"5e53a7b4d9a7ea3a2b062da0","study_id":"605e2a800ccfa0c8e820d869","session_id":"606220e9f4b347d292e1f168"},{"rt":3204.8850000137463,"stimulus":"img/00752.png","slider_start":4,"response":3,"trial_type":"image-slider-response","trial_index":32,"time_elapsed":246556,"internal_node_id":"0.0-3.0-0.29","subject_id":"5e53a7b4d9a7ea3a2b062da0","study_id":"605e2a800ccfa0c8e820d869","session_id":"606220e9f4b347d292e1f168"},{"rt":2109.244999999646,"stimulus":"img/00967.png","slider_start":4,"response":5,"trial_type":"image-slider-response","trial_index":33,"time_elapsed":248676,"internal_node_id":"0.0-3.0-0.30","subject_id":"5e53a7b4d9a7ea3a2b062da0","study_id":"605e2a800ccfa0c8e820d869","session_id":"606220e9f4b347d292e1f168"},{"rt":2531.6600000369363,"stimulus":"img/00789.png","slider_start":4,"response":2,"trial_type":"image-slider-response","trial_index":34,"time_elapsed":251216,"internal_node_id":"0.0-3.0-0.31","subject_id":"5e53a7b4d9a7ea3a2b062da0","study_id":"605e2a800ccfa0c8e820d869","session_id":"606220e9f4b347d292e1f168"},{"rt":2160.250000015367,"stimulus":"img/00093.png","slider_start":4,"response":5,"trial_type":"image-slider-response","trial_index":35,"time_elapsed":253387,"internal_node_id":"0.0-3.0-0.32","subject_id":"5e53a7b4d9a7ea3a2b062da0","study_id":"605e2a800ccfa0c8e820d869","session_id":"606220e9f4b347d292e1f168"},{"rt":2114.4900000072084,"stimulus":"img/00581.png","slider_start":4,"response":3,"trial_type":"image-slider-response","trial_index":36,"time_elapsed":255510,"internal_node_id":"0.0-3.0-0.33","subject_id":"5e53a7b4d9a7ea3a2b062da0","study_id":"605e2a800ccfa0c8e820d869","session_id":"606220e9f4b347d292e1f168"},{"rt":4212.739999988116,"stimulus":"img/00037.png","slider_start":4,"response":6,"trial_type":"image-slider-response","trial_index":37,"time_elapsed":259733,"internal_node_id":"0.0-3.0-0.34","subject_id":"5e53a7b4d9a7ea3a2b062da0","study_id":"605e2a800ccfa0c8e820d869","session_id":"606220e9f4b347d292e1f168"},{"rt":2221.929999999702,"stimulus":"img/00833.png","slider_start":4,"response":5,"trial_type":"image-slider-response","trial_index":38,"time_elapsed":261971,"internal_node_id":"0.0-3.0-0.35","subject_id":"5e53a7b4d9a7ea3a2b062da0","study_id":"605e2a800ccfa0c8e820d869","session_id":"606220e9f4b347d292e1f168"},{"rt":2127.745000005234,"stimulus":"img/00406.png","slider_start":4,"response":3,"trial_type":"image-slider-response","trial_index":39,"time_elapsed":264107,"internal_node_id":"0.0-3.0-0.36","subject_id":"5e53a7b4d9a7ea3a2b062da0","study_id":"605e2a800ccfa0c8e820d869","session_id":"606220e9f4b347d292e1f168"},{"rt":2234.8349999519996,"stimulus":"img/00064.png","slider_start":4,"response":5,"trial_type":"image-slider-response","trial_index":40,"time_elapsed":266350,"internal_node_id":"0.0-3.0-0.37","subject_id":"5e53a7b4d9a7ea3a2b062da0","study_id":"605e2a800ccfa0c8e820d869","session_id":"606220e9f4b347d292e1f168"},{"rt":1902.2699999623,"stimulus":"img/00055.png","slider_start":4,"response":5,"trial_type":"image-slider-response","trial_index":41,"time_elapsed":268262,"internal_node_id":"0.0-3.0-0.38","subject_id":"5e53a7b4d9a7ea3a2b062da0","study_id":"605e2a800ccfa0c8e820d869","session_id":"606220e9f4b347d292e1f168"},{"rt":3142.6850000279956,"stimulus":"img/00756.png","slider_start":4,"response":5,"trial_type":"image-slider-response","trial_index":42,"time_elapsed":271413,"internal_node_id":"0.0-3.0-0.39","subject_id":"5e53a7b4d9a7ea3a2b062da0","study_id":"605e2a800ccfa0c8e820d869","session_id":"606220e9f4b347d292e1f168"},{"rt":2480.5300000007264,"stimulus":"img/00653.png","slider_start":4,"response":4,"trial_type":"image-slider-response","trial_index":43,"time_elapsed":273909,"internal_node_id":"0.0-3.0-0.40","subject_id":"5e53a7b4d9a7ea3a2b062da0","study_id":"605e2a800ccfa0c8e820d869","session_id":"606220e9f4b347d292e1f168"},{"rt":2387.9999999771826,"stimulus":"img/00101.png","slider_start":4,"response":3,"trial_type":"image-slider-response","trial_index":44,"time_elapsed":276306,"internal_node_id":"0.0-3.0-0.41","subject_id":"5e53a7b4d9a7ea3a2b062da0","study_id":"605e2a800ccfa0c8e820d869","session_id":"606220e9f4b347d292e1f168"},{"rt":2059.6350000123493,"stimulus":"img/00989.png","slider_start":4,"response":5,"trial_type":"image-slider-response","trial_index":45,"time_elapsed":278373,"internal_node_id":"0.0-3.0-0.42","subject_id":"5e53a7b4d9a7ea3a2b062da0","study_id":"605e2a800ccfa0c8e820d869","session_id":"606220e9f4b347d292e1f168"},{"rt":1683.2949999952689,"stimulus":"img/00809.png","slider_start":4,"response":4,"trial_type":"image-slider-response","trial_index":46,"time_elapsed":280065,"internal_node_id":"0.0-3.0-0.43","subject_id":"5e53a7b4d9a7ea3a2b062da0","study_id":"605e2a800ccfa0c8e820d869","session_id":"606220e9f4b347d292e1f168"},{"rt":2798.175000003539,"stimulus":"img/00127.png","slider_start":4,"response":3,"trial_type":"image-slider-response","trial_index":47,"time_elapsed":282875,"internal_node_id":"0.0-3.0-0.44","subject_id":"5e53a7b4d9a7ea3a2b062da0","study_id":"605e2a800ccfa0c8e820d869","session_id":"606220e9f4b347d292e1f168"},{"rt":2273.155000002589,"stimulus":"img/00413.png","slider_start":4,"response":5,"trial_type":"image-slider-response","trial_index":48,"time_elapsed":285158,"internal_node_id":"0.0-3.0-0.45","subject_id":"5e53a7b4d9a7ea3a2b062da0","study_id":"605e2a800ccfa0c8e820d869","session_id":"606220e9f4b347d292e1f168"},{"rt":2073.980000044685,"stimulus":"img/00718.png","slider_start":4,"response":3,"trial_type":"image-slider-response","trial_index":49,"time_elapsed":287242,"internal_node_id":"0.0-3.0-0.46","subject_id":"5e53a7b4d9a7ea3a2b062da0","study_id":"605e2a800ccfa0c8e820d869","session_id":"606220e9f4b347d292e1f168"},{"rt":2556.715000013355,"stimulus":"img/00629.png","slider_start":4,"response":5,"trial_type":"image-slider-response","trial_index":50,"time_elapsed":289807,"internal_node_id":"0.0-3.0-0.47","subject_id":"5e53a7b4d9a7ea3a2b062da0","study_id":"605e2a800ccfa0c8e820d869","session_id":"606220e9f4b347d292e1f168"},{"rt":1570.0749999959953,"stimulus":"img/00693.png","slider_start":4,"response":4,"trial_type":"image-slider-response","trial_index":51,"time_elapsed":291385,"internal_node_id":"0.0-3.0-0.48","subject_id":"5e53a7b4d9a7ea3a2b062da0","study_id":"605e2a800ccfa0c8e820d869","session_id":"606220e9f4b347d292e1f168"},{"rt":1290.175000031013,"stimulus":"img/00982.png","slider_start":4,"response":4,"trial_type":"image-slider-response","trial_index":52,"time_elapsed":292684,"internal_node_id":"0.0-3.0-0.49","subject_id":"5e53a7b4d9a7ea3a2b062da0","study_id":"605e2a800ccfa0c8e820d869","session_id":"606220e9f4b347d292e1f168"},{"rt":1827.2499999729916,"stimulus":"img/00860.png","slider_start":4,"response":3,"trial_type":"image-slider-response","trial_index":53,"time_elapsed":294519,"internal_node_id":"0.0-3.0-0.50","subject_id":"5e53a7b4d9a7ea3a2b062da0","study_id":"605e2a800ccfa0c8e820d869","session_id":"606220e9f4b347d292e1f168"},{"rt":2000.8900000248104,"stimulus":"img/00747.png","slider_start":4,"response":6,"trial_type":"image-slider-response","trial_index":54,"time_elapsed":296528,"internal_node_id":"0.0-3.0-0.51","subject_id":"5e53a7b4d9a7ea3a2b062da0","study_id":"605e2a800ccfa0c8e820d869","session_id":"606220e9f4b347d292e1f168"},{"rt":2301.4250000123866,"stimulus":"img/00447.png","slider_start":4,"response":5,"trial_type":"image-slider-response","trial_index":55,"time_elapsed":298838,"internal_node_id":"0.0-3.0-0.52","subject_id":"5e53a7b4d9a7ea3a2b062da0","study_id":"605e2a800ccfa0c8e820d869","session_id":"606220e9f4b347d292e1f168"},{"rt":2871.5149999479763,"stimulus":"img/00042.png","slider_start":4,"response":4,"trial_type":"image-slider-response","trial_index":56,"time_elapsed":301722,"internal_node_id":"0.0-3.0-0.53","subject_id":"5e53a7b4d9a7ea3a2b062da0","study_id":"605e2a800ccfa0c8e820d869","session_id":"606220e9f4b347d292e1f168"},{"rt":1827.3150000022724,"stimulus":"img/00867.png","slider_start":4,"response":4,"trial_type":"image-slider-response","trial_index":57,"time_elapsed":303559,"internal_node_id":"0.0-3.0-0.54","subject_id":"5e53a7b4d9a7ea3a2b062da0","study_id":"605e2a800ccfa0c8e820d869","session_id":"606220e9f4b347d292e1f168"},{"rt":1284.4650000333786,"stimulus":"img/00438.png","slider_start":4,"response":4,"trial_type":"image-slider-response","trial_index":58,"time_elapsed":304853,"internal_node_id":"0.0-3.0-0.55","subject_id":"5e53a7b4d9a7ea3a2b062da0","study_id":"605e2a800ccfa0c8e820d869","session_id":"606220e9f4b347d292e1f168"},{"rt":1657.4799999943934,"stimulus":"img/00799.png","slider_start":4,"response":4,"trial_type":"image-slider-response","trial_index":59,"time_elapsed":306518,"internal_node_id":"0.0-3.0-0.56","subject_id":"5e53a7b4d9a7ea3a2b062da0","study_id":"605e2a800ccfa0c8e820d869","session_id":"606220e9f4b347d292e1f168"},{"rt":2630.334999994375,"stimulus":"img/00853.png","slider_start":4,"response":6,"trial_type":"image-slider-response","trial_index":60,"time_elapsed":309157,"internal_node_id":"0.0-3.0-0.57","subject_id":"5e53a7b4d9a7ea3a2b062da0","study_id":"605e2a800ccfa0c8e820d869","session_id":"606220e9f4b347d292e1f168"},{"rt":1764.789999986533,"stimulus":"img/00587.png","slider_start":4,"response":5,"trial_type":"image-slider-response","trial_index":61,"time_elapsed":310932,"internal_node_id":"0.0-3.0-0.58","subject_id":"5e53a7b4d9a7ea3a2b062da0","study_id":"605e2a800ccfa0c8e820d869","session_id":"606220e9f4b347d292e1f168"},{"rt":1605.8850000263192,"stimulus":"img/00879.png","slider_start":4,"response":5,"trial_type":"image-slider-response","trial_index":62,"time_elapsed":312547,"internal_node_id":"0.0-3.0-0.59","subject_id":"5e53a7b4d9a7ea3a2b062da0","study_id":"605e2a800ccfa0c8e820d869","session_id":"606220e9f4b347d292e1f168"},{"rt":2410.3300000424497,"stimulus":"img/00594.png","slider_start":4,"response":5,"trial_type":"image-slider-response","trial_index":63,"time_elapsed":314966,"internal_node_id":"0.0-3.0-0.60","subject_id":"5e53a7b4d9a7ea3a2b062da0","study_id":"605e2a800ccfa0c8e820d869","session_id":"606220e9f4b347d292e1f168"},{"rt":1979.3749999953434,"stimulus":"img/00002.png","slider_start":4,"response":3,"trial_type":"image-slider-response","trial_index":64,"time_elapsed":316952,"internal_node_id":"0.0-3.0-0.61","subject_id":"5e53a7b4d9a7ea3a2b062da0","study_id":"605e2a800ccfa0c8e820d869","session_id":"606220e9f4b347d292e1f168"},{"rt":1581.705000018701,"stimulus":"img/00686.png","slider_start":4,"response":5,"trial_type":"image-slider-response","trial_index":65,"time_elapsed":318543,"internal_node_id":"0.0-3.0-0.62","subject_id":"5e53a7b4d9a7ea3a2b062da0","study_id":"605e2a800ccfa0c8e820d869","session_id":"606220e9f4b347d292e1f168"},{"rt":2263.890000001993,"stimulus":"img/00427.png","slider_start":4,"response":6,"trial_type":"image-slider-response","trial_index":66,"time_elapsed":320815,"internal_node_id":"0.0-3.0-0.63","subject_id":"5e53a7b4d9a7ea3a2b062da0","study_id":"605e2a800ccfa0c8e820d869","session_id":"606220e9f4b347d292e1f168"},{"rt":2079.235000011977,"stimulus":"img/00822.png","slider_start":4,"response":6,"trial_type":"image-slider-response","trial_index":67,"time_elapsed":322908,"internal_node_id":"0.0-3.0-0.64","subject_id":"5e53a7b4d9a7ea3a2b062da0","study_id":"605e2a800ccfa0c8e820d869","session_id":"606220e9f4b347d292e1f168"},{"rt":2231.359999976121,"stimulus":"img/00956.png","slider_start":4,"response":4,"trial_type":"image-slider-response","trial_index":68,"time_elapsed":325189,"internal_node_id":"0.0-3.0-0.65","subject_id":"5e53a7b4d9a7ea3a2b062da0","study_id":"605e2a800ccfa0c8e820d869","session_id":"606220e9f4b347d292e1f168"},{"rt":2113.179999985732,"stimulus":"img/00456.png","slider_start":4,"response":3,"trial_type":"image-slider-response","trial_index":69,"time_elapsed":327312,"internal_node_id":"0.0-3.0-0.66","subject_id":"5e53a7b4d9a7ea3a2b062da0","study_id":"605e2a800ccfa0c8e820d869","session_id":"606220e9f4b347d292e1f168"},{"rt":1815.2750000008382,"stimulus":"img/00023.png","slider_start":4,"response":3,"trial_type":"image-slider-response","trial_index":70,"time_elapsed":329136,"internal_node_id":"0.0-3.0-0.67","subject_id":"5e53a7b4d9a7ea3a2b062da0","study_id":"605e2a800ccfa0c8e820d869","session_id":"606220e9f4b347d292e1f168"},{"rt":2125.4550000303425,"stimulus":"img/00810.png","slider_start":4,"response":3,"trial_type":"image-slider-response","trial_index":71,"time_elapsed":331270,"internal_node_id":"0.0-3.0-0.68","subject_id":"5e53a7b4d9a7ea3a2b062da0","study_id":"605e2a800ccfa0c8e820d869","session_id":"606220e9f4b347d292e1f168"},{"rt":2053.9049999788404,"stimulus":"img/00464.png","slider_start":4,"response":3,"trial_type":"image-slider-response","trial_index":72,"time_elapsed":333332,"internal_node_id":"0.0-3.0-0.69","subject_id":"5e53a7b4d9a7ea3a2b062da0","study_id":"605e2a800ccfa0c8e820d869","session_id":"606220e9f4b347d292e1f168"},{"rt":1853.339999972377,"stimulus":"img/00793.png","slider_start":4,"response":6,"trial_type":"image-slider-response","trial_index":73,"time_elapsed":335193,"internal_node_id":"0.0-3.0-0.70","subject_id":"5e53a7b4d9a7ea3a2b062da0","study_id":"605e2a800ccfa0c8e820d869","session_id":"606220e9f4b347d292e1f168"},{"rt":1274.6399999596179,"stimulus":"img/00549.png","slider_start":4,"response":4,"trial_type":"image-slider-response","trial_index":74,"time_elapsed":336475,"internal_node_id":"0.0-3.0-0.71","subject_id":"5e53a7b4d9a7ea3a2b062da0","study_id":"605e2a800ccfa0c8e820d869","session_id":"606220e9f4b347d292e1f168"},{"rt":1656.829999992624,"stimulus":"img/00759.png","slider_start":4,"response":3,"trial_type":"image-slider-response","trial_index":75,"time_elapsed":338141,"internal_node_id":"0.0-3.0-0.72","subject_id":"5e53a7b4d9a7ea3a2b062da0","study_id":"605e2a800ccfa0c8e820d869","session_id":"606220e9f4b347d292e1f168"},{"rt":1225.6349999806844,"stimulus":"img/00018.png","slider_start":4,"response":4,"trial_type":"image-slider-response","trial_index":76,"time_elapsed":339374,"internal_node_id":"0.0-3.0-0.73","subject_id":"5e53a7b4d9a7ea3a2b062da0","study_id":"605e2a800ccfa0c8e820d869","session_id":"606220e9f4b347d292e1f168"},{"rt":1433.919999981299,"stimulus":"img/00041.png","slider_start":4,"response":5,"trial_type":"image-slider-response","trial_index":77,"time_elapsed":340816,"internal_node_id":"0.0-3.0-0.74","subject_id":"5e53a7b4d9a7ea3a2b062da0","study_id":"605e2a800ccfa0c8e820d869","session_id":"606220e9f4b347d292e1f168"},{"rt":1731.949999986682,"stimulus":"img/00790.png","slider_start":4,"response":4,"trial_type":"image-slider-response","trial_index":78,"time_elapsed":342556,"internal_node_id":"0.0-3.0-0.75","subject_id":"5e53a7b4d9a7ea3a2b062da0","study_id":"605e2a800ccfa0c8e820d869","session_id":"606220e9f4b347d292e1f168"},{"rt":1619.8600000352599,"stimulus":"img/00731.png","slider_start":4,"response":3,"trial_type":"image-slider-response","trial_index":79,"time_elapsed":344184,"internal_node_id":"0.0-3.0-0.76","subject_id":"5e53a7b4d9a7ea3a2b062da0","study_id":"605e2a800ccfa0c8e820d869","session_id":"606220e9f4b347d292e1f168"},{"rt":1421.7800000333227,"stimulus":"img/00404.png","slider_start":4,"response":3,"trial_type":"image-slider-response","trial_index":80,"time_elapsed":345613,"internal_node_id":"0.0-3.0-0.77","subject_id":"5e53a7b4d9a7ea3a2b062da0","study_id":"605e2a800ccfa0c8e820d869","session_id":"606220e9f4b347d292e1f168"},{"rt":1975.7100000279024,"stimulus":"img/00848.png","slider_start":4,"response":6,"trial_type":"image-slider-response","trial_index":81,"time_elapsed":347599,"internal_node_id":"0.0-3.0-0.78","subject_id":"5e53a7b4d9a7ea3a2b062da0","study_id":"605e2a800ccfa0c8e820d869","session_id":"606220e9f4b347d292e1f168"},{"rt":1555.2449999959208,"stimulus":"img/00986.png","slider_start":4,"response":5,"trial_type":"image-slider-response","trial_index":82,"time_elapsed":349205,"internal_node_id":"0.0-3.0-0.79","subject_id":"5e53a7b4d9a7ea3a2b062da0","study_id":"605e2a800ccfa0c8e820d869","session_id":"606220e9f4b347d292e1f168"},{"rt":1368.8599999877624,"stimulus":"img/00688.png","slider_start":4,"response":5,"trial_type":"image-slider-response","trial_index":83,"time_elapsed":350585,"internal_node_id":"0.0-3.0-0.80","subject_id":"5e53a7b4d9a7ea3a2b062da0","study_id":"605e2a800ccfa0c8e820d869","session_id":"606220e9f4b347d292e1f168"},{"rt":2556.014999980107,"stimulus":"img/00079.png","slider_start":4,"response":5,"trial_type":"image-slider-response","trial_index":84,"time_elapsed":353149,"internal_node_id":"0.0-3.0-0.81","subject_id":"5e53a7b4d9a7ea3a2b062da0","study_id":"605e2a800ccfa0c8e820d869","session_id":"606220e9f4b347d292e1f168"},{"rt":1389.3999999854714,"stimulus":"img/00016.png","slider_start":4,"response":4,"trial_type":"image-slider-response","trial_index":85,"time_elapsed":354547,"internal_node_id":"0.0-3.0-0.82","subject_id":"5e53a7b4d9a7ea3a2b062da0","study_id":"605e2a800ccfa0c8e820d869","session_id":"606220e9f4b347d292e1f168"},{"rt":1123.7200000323355,"stimulus":"img/00006.png","slider_start":4,"response":4,"trial_type":"image-slider-response","trial_index":86,"time_elapsed":355678,"internal_node_id":"0.0-3.0-0.83","subject_id":"5e53a7b4d9a7ea3a2b062da0","study_id":"605e2a800ccfa0c8e820d869","session_id":"606220e9f4b347d292e1f168"},{"rt":2422.0600000116974,"stimulus":"img/00554.png","slider_start":4,"response":3,"trial_type":"image-slider-response","trial_index":87,"time_elapsed":358108,"internal_node_id":"0.0-3.0-0.84","subject_id":"5e53a7b4d9a7ea3a2b062da0","study_id":"605e2a800ccfa0c8e820d869","session_id":"606220e9f4b347d292e1f168"},{"rt":1125.7650000043213,"stimulus":"img/00439.png","slider_start":4,"response":4,"trial_type":"image-slider-response","trial_index":88,"time_elapsed":359243,"internal_node_id":"0.0-3.0-0.85","subject_id":"5e53a7b4d9a7ea3a2b062da0","study_id":"605e2a800ccfa0c8e820d869","session_id":"606220e9f4b347d292e1f168"},{"rt":1127.0550000481308,"stimulus":"img/00744.png","slider_start":4,"response":4,"trial_type":"image-slider-response","trial_index":89,"time_elapsed":360378,"internal_node_id":"0.0-3.0-0.86","subject_id":"5e53a7b4d9a7ea3a2b062da0","study_id":"605e2a800ccfa0c8e820d869","session_id":"606220e9f4b347d292e1f168"},{"rt":1053.8500000257045,"stimulus":"img/00460.png","slider_start":4,"response":4,"trial_type":"image-slider-response","trial_index":90,"time_elapsed":361440,"internal_node_id":"0.0-3.0-0.87","subject_id":"5e53a7b4d9a7ea3a2b062da0","study_id":"605e2a800ccfa0c8e820d869","session_id":"606220e9f4b347d292e1f168"},{"rt":1497.8799999807961,"stimulus":"img/00998.png","slider_start":4,"response":5,"trial_type":"image-slider-response","trial_index":91,"time_elapsed":362945,"internal_node_id":"0.0-3.0-0.88","subject_id":"5e53a7b4d9a7ea3a2b062da0","study_id":"605e2a800ccfa0c8e820d869","session_id":"606220e9f4b347d292e1f168"},{"rt":1359.7249999875203,"stimulus":"img/00689.png","slider_start":4,"response":4,"trial_type":"image-slider-response","trial_index":92,"time_elapsed":364314,"internal_node_id":"0.0-3.0-0.89","subject_id":"5e53a7b4d9a7ea3a2b062da0","study_id":"605e2a800ccfa0c8e820d869","session_id":"606220e9f4b347d292e1f168"},{"rt":1105.6049999897368,"stimulus":"img/00114.png","slider_start":4,"response":4,"trial_type":"image-slider-response","trial_index":93,"time_elapsed":365429,"internal_node_id":"0.0-3.0-0.90","subject_id":"5e53a7b4d9a7ea3a2b062da0","study_id":"605e2a800ccfa0c8e820d869","session_id":"606220e9f4b347d292e1f168"},{"rt":1738.1400000303984,"stimulus":"img/00755.png","slider_start":4,"response":5,"trial_type":"image-slider-response","trial_index":94,"time_elapsed":367176,"internal_node_id":"0.0-3.0-0.91","subject_id":"5e53a7b4d9a7ea3a2b062da0","study_id":"605e2a800ccfa0c8e820d869","session_id":"606220e9f4b347d292e1f168"},{"rt":1813.6850000009872,"stimulus":"img/00405.png","slider_start":4,"response":7,"trial_type":"image-slider-response","trial_index":95,"time_elapsed":368998,"internal_node_id":"0.0-3.0-0.92","subject_id":"5e53a7b4d9a7ea3a2b062da0","study_id":"605e2a800ccfa0c8e820d869","session_id":"606220e9f4b347d292e1f168"},{"rt":3893.279999960214,"stimulus":"img/00489.png","slider_start":4,"response":3,"trial_type":"image-slider-response","trial_index":96,"time_elapsed":372900,"internal_node_id":"0.0-3.0-0.93","subject_id":"5e53a7b4d9a7ea3a2b062da0","study_id":"605e2a800ccfa0c8e820d869","session_id":"606220e9f4b347d292e1f168"},{"rt":2073.7499999813735,"stimulus":"img/00129.png","slider_start":4,"response":6,"trial_type":"image-slider-response","trial_index":97,"time_elapsed":374984,"internal_node_id":"0.0-3.0-0.94","subject_id":"5e53a7b4d9a7ea3a2b062da0","study_id":"605e2a800ccfa0c8e820d869","session_id":"606220e9f4b347d292e1f168"},{"rt":1595.725000021048,"stimulus":"img/00543.png","slider_start":4,"response":5,"trial_type":"image-slider-response","trial_index":98,"time_elapsed":376587,"internal_node_id":"0.0-3.0-0.95","subject_id":"5e53a7b4d9a7ea3a2b062da0","study_id":"605e2a800ccfa0c8e820d869","session_id":"606220e9f4b347d292e1f168"},{"rt":1200.4249999881722,"stimulus":"img/00082.png","slider_start":4,"response":4,"trial_type":"image-slider-response","trial_index":99,"time_elapsed":377796,"internal_node_id":"0.0-3.0-0.96","subject_id":"5e53a7b4d9a7ea3a2b062da0","study_id":"605e2a800ccfa0c8e820d869","session_id":"606220e9f4b347d292e1f168"},{"rt":1806.4950000261888,"stimulus":"img/00078.png","slider_start":4,"response":4,"trial_type":"image-slider-response","trial_index":100,"time_elapsed":379612,"internal_node_id":"0.0-3.0-0.97","subject_id":"5e53a7b4d9a7ea3a2b062da0","study_id":"605e2a800ccfa0c8e820d869","session_id":"606220e9f4b347d292e1f168"},{"rt":1652.2600000025705,"stimulus":"img/00122.png","slider_start":4,"response":5,"trial_type":"image-slider-response","trial_index":101,"time_elapsed":381273,"internal_node_id":"0.0-3.0-0.98","subject_id":"5e53a7b4d9a7ea3a2b062da0","study_id":"605e2a800ccfa0c8e820d869","session_id":"606220e9f4b347d292e1f168"},{"rt":2026.0949999792501,"stimulus":"img/00029.png","slider_start":4,"response":4,"trial_type":"image-slider-response","trial_index":102,"time_elapsed":383309,"internal_node_id":"0.0-3.0-0.99","subject_id":"5e53a7b4d9a7ea3a2b062da0","study_id":"605e2a800ccfa0c8e820d869","session_id":"606220e9f4b347d292e1f168"},{"rt":2150.4450000356883,"stimulus":"img/00045.png","slider_start":4,"response":3,"trial_type":"image-slider-response","trial_index":103,"time_elapsed":385472,"internal_node_id":"0.0-3.0-0.100","subject_id":"5e53a7b4d9a7ea3a2b062da0","study_id":"605e2a800ccfa0c8e820d869","session_id":"606220e9f4b347d292e1f168"},{"rt":1544.8099999921396,"stimulus":"img/00902.png","slider_start":4,"response":3,"trial_type":"image-slider-response","trial_index":104,"time_elapsed":387036,"internal_node_id":"0.0-3.0-0.101","subject_id":"5e53a7b4d9a7ea3a2b062da0","study_id":"605e2a800ccfa0c8e820d869","session_id":"606220e9f4b347d292e1f168"},{"rt":1790.4449999914505,"stimulus":"img/00511.png","slider_start":4,"response":4,"trial_type":"image-slider-response","trial_index":105,"time_elapsed":388835,"internal_node_id":"0.0-3.0-0.102","subject_id":"5e53a7b4d9a7ea3a2b062da0","study_id":"605e2a800ccfa0c8e820d869","session_id":"606220e9f4b347d292e1f168"},{"rt":1655.9699999634176,"stimulus":"img/00424.png","slider_start":4,"response":6,"trial_type":"image-slider-response","trial_index":106,"time_elapsed":390501,"internal_node_id":"0.0-3.0-0.103","subject_id":"5e53a7b4d9a7ea3a2b062da0","study_id":"605e2a800ccfa0c8e820d869","session_id":"606220e9f4b347d292e1f168"},{"rt":1780.495000013616,"stimulus":"img/00768.png","slider_start":4,"response":5,"trial_type":"image-slider-response","trial_index":107,"time_elapsed":392290,"internal_node_id":"0.0-3.0-0.104","subject_id":"5e53a7b4d9a7ea3a2b062da0","study_id":"605e2a800ccfa0c8e820d869","session_id":"606220e9f4b347d292e1f168"},{"rt":1631.4899999997579,"stimulus":"img/00903.png","slider_start":4,"response":4,"trial_type":"image-slider-response","trial_index":108,"time_elapsed":393929,"internal_node_id":"0.0-3.0-0.105","subject_id":"5e53a7b4d9a7ea3a2b062da0","study_id":"605e2a800ccfa0c8e820d869","session_id":"606220e9f4b347d292e1f168"},{"rt":1547.6650000200607,"stimulus":"img/00525.png","slider_start":4,"response":5,"trial_type":"image-slider-response","trial_index":109,"time_elapsed":395485,"internal_node_id":"0.0-3.0-0.106","subject_id":"5e53a7b4d9a7ea3a2b062da0","study_id":"605e2a800ccfa0c8e820d869","session_id":"606220e9f4b347d292e1f168"},{"rt":1261.8200000142679,"stimulus":"img/00691.png","slider_start":4,"response":4,"trial_type":"image-slider-response","trial_index":110,"time_elapsed":396755,"internal_node_id":"0.0-3.0-0.107","subject_id":"5e53a7b4d9a7ea3a2b062da0","study_id":"605e2a800ccfa0c8e820d869","session_id":"606220e9f4b347d292e1f168"},{"rt":1139.2749999649823,"stimulus":"img/00521.png","slider_start":4,"response":4,"trial_type":"image-slider-response","trial_index":111,"time_elapsed":397903,"internal_node_id":"0.0-3.0-0.108","subject_id":"5e53a7b4d9a7ea3a2b062da0","study_id":"605e2a800ccfa0c8e820d869","session_id":"606220e9f4b347d292e1f168"},{"rt":1803.8150000502355,"stimulus":"img/00854.png","slider_start":4,"response":5,"trial_type":"image-slider-response","trial_index":112,"time_elapsed":399716,"internal_node_id":"0.0-3.0-0.109","subject_id":"5e53a7b4d9a7ea3a2b062da0","study_id":"605e2a800ccfa0c8e820d869","session_id":"606220e9f4b347d292e1f168"},{"rt":3373.18499997491,"stimulus":"img/00612.png","slider_start":4,"response":4,"trial_type":"image-slider-response","trial_index":113,"time_elapsed":403108,"internal_node_id":"0.0-3.0-0.110","subject_id":"5e53a7b4d9a7ea3a2b062da0","study_id":"605e2a800ccfa0c8e820d869","session_id":"606220e9f4b347d292e1f168"},{"rt":3555.800000031013,"stimulus":"img/00479.png","slider_start":4,"response":3,"trial_type":"image-slider-response","trial_index":114,"time_elapsed":406673,"internal_node_id":"0.0-3.0-0.111","subject_id":"5e53a7b4d9a7ea3a2b062da0","study_id":"605e2a800ccfa0c8e820d869","session_id":"606220e9f4b347d292e1f168"},{"rt":1901.5650000073947,"stimulus":"img/00913.png","slider_start":4,"response":4,"trial_type":"image-slider-response","trial_index":115,"time_elapsed":408585,"internal_node_id":"0.0-3.0-0.112","subject_id":"5e53a7b4d9a7ea3a2b062da0","study_id":"605e2a800ccfa0c8e820d869","session_id":"606220e9f4b347d292e1f168"},{"rt":1387.3249999596737,"stimulus":"img/00559.png","slider_start":4,"response":4,"trial_type":"image-slider-response","trial_index":116,"time_elapsed":409980,"internal_node_id":"0.0-3.0-0.113","subject_id":"5e53a7b4d9a7ea3a2b062da0","study_id":"605e2a800ccfa0c8e820d869","session_id":"606220e9f4b347d292e1f168"},{"rt":1715.7199999783188,"stimulus":"img/00418.png","slider_start":4,"response":5,"trial_type":"image-slider-response","trial_index":117,"time_elapsed":411704,"internal_node_id":"0.0-3.0-0.114","subject_id":"5e53a7b4d9a7ea3a2b062da0","study_id":"605e2a800ccfa0c8e820d869","session_id":"606220e9f4b347d292e1f168"},{"rt":1546.4049999718554,"stimulus":"img/00785.png","slider_start":4,"response":6,"trial_type":"image-slider-response","trial_index":118,"time_elapsed":413259,"internal_node_id":"0.0-3.0-0.115","subject_id":"5e53a7b4d9a7ea3a2b062da0","study_id":"605e2a800ccfa0c8e820d869","session_id":"606220e9f4b347d292e1f168"},{"rt":3702.8799999970943,"stimulus":"img/00764.png","slider_start":4,"response":3,"trial_type":"image-slider-response","trial_index":119,"time_elapsed":416969,"internal_node_id":"0.0-3.0-0.116","subject_id":"5e53a7b4d9a7ea3a2b062da0","study_id":"605e2a800ccfa0c8e820d869","session_id":"606220e9f4b347d292e1f168"},{"rt":1915.9399999771267,"stimulus":"img/00825.png","slider_start":4,"response":5,"trial_type":"image-slider-response","trial_index":120,"time_elapsed":418888,"internal_node_id":"0.0-3.0-0.117","subject_id":"5e53a7b4d9a7ea3a2b062da0","study_id":"605e2a800ccfa0c8e820d869","session_id":"606220e9f4b347d292e1f168"},{"rt":1657.0150000043213,"stimulus":"img/00472.png","slider_start":4,"response":3,"trial_type":"image-slider-response","trial_index":121,"time_elapsed":420554,"internal_node_id":"0.0-3.0-0.118","subject_id":"5e53a7b4d9a7ea3a2b062da0","study_id":"605e2a800ccfa0c8e820d869","session_id":"606220e9f4b347d292e1f168"},{"rt":1668.8150000409223,"stimulus":"img/00773.png","slider_start":4,"response":5,"trial_type":"image-slider-response","trial_index":122,"time_elapsed":422230,"internal_node_id":"0.0-3.0-0.119","subject_id":"5e53a7b4d9a7ea3a2b062da0","study_id":"605e2a800ccfa0c8e820d869","session_id":"606220e9f4b347d292e1f168"},{"rt":3199.345000030007,"stimulus":"img/00850.png","slider_start":4,"response":3,"trial_type":"image-slider-response","trial_index":123,"time_elapsed":425438,"internal_node_id":"0.0-3.0-0.120","subject_id":"5e53a7b4d9a7ea3a2b062da0","study_id":"605e2a800ccfa0c8e820d869","session_id":"606220e9f4b347d292e1f168"},{"rt":1753.9250000263564,"stimulus":"img/00690.png","slider_start":4,"response":4,"trial_type":"image-slider-response","trial_index":124,"time_elapsed":427201,"internal_node_id":"0.0-3.0-0.121","subject_id":"5e53a7b4d9a7ea3a2b062da0","study_id":"605e2a800ccfa0c8e820d869","session_id":"606220e9f4b347d292e1f168"},{"rt":2236.7250000243075,"stimulus":"img/00842.png","slider_start":4,"response":6,"trial_type":"image-slider-response","trial_index":125,"time_elapsed":429447,"internal_node_id":"0.0-3.0-0.122","subject_id":"5e53a7b4d9a7ea3a2b062da0","study_id":"605e2a800ccfa0c8e820d869","session_id":"606220e9f4b347d292e1f168"},{"rt":4786.944999999832,"stimulus":"img/00951.png","slider_start":4,"response":3,"trial_type":"image-slider-response","trial_index":126,"time_elapsed":434242,"internal_node_id":"0.0-3.0-0.123","subject_id":"5e53a7b4d9a7ea3a2b062da0","study_id":"605e2a800ccfa0c8e820d869","session_id":"606220e9f4b347d292e1f168"},{"rt":3712.5249999808148,"stimulus":"img/00115.png","slider_start":4,"response":3,"trial_type":"image-slider-response","trial_index":127,"time_elapsed":437971,"internal_node_id":"0.0-3.0-0.124","subject_id":"5e53a7b4d9a7ea3a2b062da0","study_id":"605e2a800ccfa0c8e820d869","session_id":"606220e9f4b347d292e1f168"},{"rt":4231.790000048932,"stimulus":"img/00841.png","slider_start":4,"response":6,"trial_type":"image-slider-response","trial_index":128,"time_elapsed":442213,"internal_node_id":"0.0-3.0-0.125","subject_id":"5e53a7b4d9a7ea3a2b062da0","study_id":"605e2a800ccfa0c8e820d869","session_id":"606220e9f4b347d292e1f168"},{"rt":3097.7249999996275,"stimulus":"img/00949.png","slider_start":4,"response":5,"trial_type":"image-slider-response","trial_index":129,"time_elapsed":445321,"internal_node_id":"0.0-3.0-0.126","subject_id":"5e53a7b4d9a7ea3a2b062da0","study_id":"605e2a800ccfa0c8e820d869","session_id":"606220e9f4b347d292e1f168"},{"rt":1988.6699999915436,"stimulus":"img/00048.png","slider_start":4,"response":4,"trial_type":"image-slider-response","trial_index":130,"time_elapsed":447318,"internal_node_id":"0.0-3.0-0.127","subject_id":"5e53a7b4d9a7ea3a2b062da0","study_id":"605e2a800ccfa0c8e820d869","session_id":"606220e9f4b347d292e1f168"},{"rt":1251.9200000097044,"stimulus":"img/00504.png","slider_start":4,"response":4,"trial_type":"image-slider-response","trial_index":131,"time_elapsed":448578,"internal_node_id":"0.0-3.0-0.128","subject_id":"5e53a7b4d9a7ea3a2b062da0","study_id":"605e2a800ccfa0c8e820d869","session_id":"606220e9f4b347d292e1f168"},{"rt":3986.9199999957345,"stimulus":"img/00437.png","slider_start":4,"response":4,"trial_type":"image-slider-response","trial_index":132,"time_elapsed":452573,"internal_node_id":"0.0-3.0-0.129","subject_id":"5e53a7b4d9a7ea3a2b062da0","study_id":"605e2a800ccfa0c8e820d869","session_id":"606220e9f4b347d292e1f168"},{"rt":2124.1900000022724,"stimulus":"img/00603.png","slider_start":4,"response":4,"trial_type":"image-slider-response","trial_index":133,"time_elapsed":454708,"internal_node_id":"0.0-3.0-0.130","subject_id":"5e53a7b4d9a7ea3a2b062da0","study_id":"605e2a800ccfa0c8e820d869","session_id":"606220e9f4b347d292e1f168"},{"rt":1236.5349999745376,"stimulus":"img/00466.png","slider_start":4,"response":4,"trial_type":"image-slider-response","trial_index":134,"time_elapsed":455953,"internal_node_id":"0.0-3.0-0.131","subject_id":"5e53a7b4d9a7ea3a2b062da0","study_id":"605e2a800ccfa0c8e820d869","session_id":"606220e9f4b347d292e1f168"},{"rt":4570.54500002414,"stimulus":"img/00564.png","slider_start":4,"response":5,"trial_type":"image-slider-response","trial_index":135,"time_elapsed":460532,"internal_node_id":"0.0-3.0-0.132","subject_id":"5e53a7b4d9a7ea3a2b062da0","study_id":"605e2a800ccfa0c8e820d869","session_id":"606220e9f4b347d292e1f168"},{"rt":3650.4599999752827,"stimulus":"img/00432.png","slider_start":4,"response":6,"trial_type":"image-slider-response","trial_index":136,"time_elapsed":464195,"internal_node_id":"0.0-3.0-0.133","subject_id":"5e53a7b4d9a7ea3a2b062da0","study_id":"605e2a800ccfa0c8e820d869","session_id":"606220e9f4b347d292e1f168"},{"rt":2380.635000008624,"stimulus":"img/00815.png","slider_start":4,"response":5,"trial_type":"image-slider-response","trial_index":137,"time_elapsed":466586,"internal_node_id":"0.0-3.0-0.134","subject_id":"5e53a7b4d9a7ea3a2b062da0","study_id":"605e2a800ccfa0c8e820d869","session_id":"606220e9f4b347d292e1f168"},{"rt":1597.1150000113994,"stimulus":"img/00991.png","slider_start":4,"response":3,"trial_type":"image-slider-response","trial_index":138,"time_elapsed":468193,"internal_node_id":"0.0-3.0-0.135","subject_id":"5e53a7b4d9a7ea3a2b062da0","study_id":"605e2a800ccfa0c8e820d869","session_id":"606220e9f4b347d292e1f168"},{"rt":2318.1449999683537,"stimulus":"img/00415.png","slider_start":4,"response":3,"trial_type":"image-slider-response","trial_index":139,"time_elapsed":470522,"internal_node_id":"0.0-3.0-0.136","subject_id":"5e53a7b4d9a7ea3a2b062da0","study_id":"605e2a800ccfa0c8e820d869","session_id":"606220e9f4b347d292e1f168"},{"rt":2348.389999999199,"stimulus":"img/00618.png","slider_start":4,"response":6,"trial_type":"image-slider-response","trial_index":140,"time_elapsed":472879,"internal_node_id":"0.0-3.0-0.137","subject_id":"5e53a7b4d9a7ea3a2b062da0","study_id":"605e2a800ccfa0c8e820d869","session_id":"606220e9f4b347d292e1f168"},{"rt":2879.034999990836,"stimulus":"img/00797.png","slider_start":4,"response":3,"trial_type":"image-slider-response","trial_index":141,"time_elapsed":475766,"internal_node_id":"0.0-3.0-0.138","subject_id":"5e53a7b4d9a7ea3a2b062da0","study_id":"605e2a800ccfa0c8e820d869","session_id":"606220e9f4b347d292e1f168"},{"rt":2180.3499999805354,"stimulus":"img/00503.png","slider_start":4,"response":3,"trial_type":"image-slider-response","trial_index":142,"time_elapsed":477961,"internal_node_id":"0.0-3.0-0.139","subject_id":"5e53a7b4d9a7ea3a2b062da0","study_id":"605e2a800ccfa0c8e820d869","session_id":"606220e9f4b347d292e1f168"},{"rt":4357.915000000503,"stimulus":"img/00801.png","slider_start":4,"response":3,"trial_type":"image-slider-response","trial_index":143,"time_elapsed":482336,"internal_node_id":"0.0-3.0-0.140","subject_id":"5e53a7b4d9a7ea3a2b062da0","study_id":"605e2a800ccfa0c8e820d869","session_id":"606220e9f4b347d292e1f168"},{"rt":2101.464999956079,"stimulus":"img/00428.png","slider_start":4,"response":3,"trial_type":"image-slider-response","trial_index":144,"time_elapsed":484447,"internal_node_id":"0.0-3.0-0.141","subject_id":"5e53a7b4d9a7ea3a2b062da0","study_id":"605e2a800ccfa0c8e820d869","session_id":"606220e9f4b347d292e1f168"},{"rt":2013.4850000031292,"stimulus":"img/00623.png","slider_start":4,"response":6,"trial_type":"image-slider-response","trial_index":145,"time_elapsed":486469,"internal_node_id":"0.0-3.0-0.142","subject_id":"5e53a7b4d9a7ea3a2b062da0","study_id":"605e2a800ccfa0c8e820d869","session_id":"606220e9f4b347d292e1f168"},{"rt":2804.139999963809,"stimulus":"img/00126.png","slider_start":4,"response":3,"trial_type":"image-slider-response","trial_index":146,"time_elapsed":489281,"internal_node_id":"0.0-3.0-0.143","subject_id":"5e53a7b4d9a7ea3a2b062da0","study_id":"605e2a800ccfa0c8e820d869","session_id":"606220e9f4b347d292e1f168"},{"rt":2362.424999999348,"stimulus":"img/00481.png","slider_start":4,"response":5,"trial_type":"image-slider-response","trial_index":147,"time_elapsed":491651,"internal_node_id":"0.0-3.0-0.144","subject_id":"5e53a7b4d9a7ea3a2b062da0","study_id":"605e2a800ccfa0c8e820d869","session_id":"606220e9f4b347d292e1f168"},{"rt":2235.289999982342,"stimulus":"img/40.png","slider_start":4,"response":4,"trial_type":"image-slider-response","trial_index":148,"time_elapsed":493894,"internal_node_id":"0.0-3.0-0.145","subject_id":"5e53a7b4d9a7ea3a2b062da0","study_id":"605e2a800ccfa0c8e820d869","session_id":"606220e9f4b347d292e1f168"},{"rt":2160.645000054501,"stimulus":"img/00012.png","slider_start":4,"response":5,"trial_type":"image-slider-response","trial_index":149,"time_elapsed":496065,"internal_node_id":"0.0-3.0-0.146","subject_id":"5e53a7b4d9a7ea3a2b062da0","study_id":"605e2a800ccfa0c8e820d869","session_id":"606220e9f4b347d292e1f168"},{"rt":1695.2649999875575,"stimulus":"img/00930.png","slider_start":4,"response":4,"trial_type":"image-slider-response","trial_index":150,"time_elapsed":497768,"internal_node_id":"0.0-3.0-0.147","subject_id":"5e53a7b4d9a7ea3a2b062da0","study_id":"605e2a800ccfa0c8e820d869","session_id":"606220e9f4b347d292e1f168"},{"rt":1163.1100000231527,"stimulus":"img/00926.png","slider_start":4,"response":4,"trial_type":"image-slider-response","trial_index":151,"time_elapsed":498939,"internal_node_id":"0.0-3.0-0.148","subject_id":"5e53a7b4d9a7ea3a2b062da0","study_id":"605e2a800ccfa0c8e820d869","session_id":"606220e9f4b347d292e1f168"},{"rt":1114.0449999948032,"stimulus":"img/00791.png","slider_start":4,"response":4,"trial_type":"image-slider-response","trial_index":152,"time_elapsed":500063,"internal_node_id":"0.0-3.0-0.149","subject_id":"5e53a7b4d9a7ea3a2b062da0","study_id":"605e2a800ccfa0c8e820d869","session_id":"606220e9f4b347d292e1f168"},{"rt":1127.3849999997765,"stimulus":"img/00708.png","slider_start":4,"response":4,"trial_type":"image-slider-response","trial_index":153,"time_elapsed":501198,"internal_node_id":"0.0-3.0-0.150","subject_id":"5e53a7b4d9a7ea3a2b062da0","study_id":"605e2a800ccfa0c8e820d869","session_id":"606220e9f4b347d292e1f168"},{"rt":2717.38499996718,"stimulus":"img/00742.png","slider_start":4,"response":5,"trial_type":"image-slider-response","trial_index":154,"time_elapsed":503938,"internal_node_id":"0.0-3.0-0.151","subject_id":"5e53a7b4d9a7ea3a2b062da0","study_id":"605e2a800ccfa0c8e820d869","session_id":"606220e9f4b347d292e1f168"},{"rt":1747.9900000034831,"stimulus":"img/00113.png","slider_start":4,"response":3,"trial_type":"image-slider-response","trial_index":155,"time_elapsed":505700,"internal_node_id":"0.0-3.0-0.152","subject_id":"5e53a7b4d9a7ea3a2b062da0","study_id":"605e2a800ccfa0c8e820d869","session_id":"606220e9f4b347d292e1f168"},{"rt":1310.33499998739,"stimulus":"img/00928.png","slider_start":4,"response":4,"trial_type":"image-slider-response","trial_index":156,"time_elapsed":507019,"internal_node_id":"0.0-3.0-0.153","subject_id":"5e53a7b4d9a7ea3a2b062da0","study_id":"605e2a800ccfa0c8e820d869","session_id":"606220e9f4b347d292e1f168"},{"rt":1164.455000020098,"stimulus":"img/00130.png","slider_start":4,"response":5,"trial_type":"image-slider-response","trial_index":157,"time_elapsed":508253,"internal_node_id":"0.0-3.0-0.154","subject_id":"5e53a7b4d9a7ea3a2b062da0","study_id":"605e2a800ccfa0c8e820d869","session_id":"606220e9f4b347d292e1f168"},{"rt":1125.4900000058115,"stimulus":"img/00570.png","slider_start":4,"response":4,"trial_type":"image-slider-response","trial_index":158,"time_elapsed":509388,"internal_node_id":"0.0-3.0-0.155","subject_id":"5e53a7b4d9a7ea3a2b062da0","study_id":"605e2a800ccfa0c8e820d869","session_id":"606220e9f4b347d292e1f168"},{"rt":1663.9500000164844,"stimulus":"img/00040.png","slider_start":4,"response":3,"trial_type":"image-slider-response","trial_index":159,"time_elapsed":511064,"internal_node_id":"0.0-3.0-0.156","subject_id":"5e53a7b4d9a7ea3a2b062da0","study_id":"605e2a800ccfa0c8e820d869","session_id":"606220e9f4b347d292e1f168"},{"rt":2235.080000013113,"stimulus":"img/00545.png","slider_start":4,"response":5,"trial_type":"image-slider-response","trial_index":160,"time_elapsed":513307,"internal_node_id":"0.0-3.0-0.157","subject_id":"5e53a7b4d9a7ea3a2b062da0","study_id":"605e2a800ccfa0c8e820d869","session_id":"606220e9f4b347d292e1f168"},{"rt":2937.445000046864,"stimulus":"img/00761.png","slider_start":4,"response":5,"trial_type":"image-slider-response","trial_index":161,"time_elapsed":516256,"internal_node_id":"0.0-3.0-0.158","subject_id":"5e53a7b4d9a7ea3a2b062da0","study_id":"605e2a800ccfa0c8e820d869","session_id":"606220e9f4b347d292e1f168"},{"rt":1878.7099999608472,"stimulus":"img/00522.png","slider_start":4,"response":5,"trial_type":"image-slider-response","trial_index":162,"time_elapsed":518145,"internal_node_id":"0.0-3.0-0.159","subject_id":"5e53a7b4d9a7ea3a2b062da0","study_id":"605e2a800ccfa0c8e820d869","session_id":"606220e9f4b347d292e1f168"},{"rt":2111.095000000205,"stimulus":"img/00973.png","slider_start":4,"response":5,"trial_type":"image-slider-response","trial_index":163,"time_elapsed":520265,"internal_node_id":"0.0-3.0-0.160","subject_id":"5e53a7b4d9a7ea3a2b062da0","study_id":"605e2a800ccfa0c8e820d869","session_id":"606220e9f4b347d292e1f168"},{"rt":1547.8499999735504,"stimulus":"img/00478.png","slider_start":4,"response":5,"trial_type":"image-slider-response","trial_index":164,"time_elapsed":521821,"internal_node_id":"0.0-3.0-0.161","subject_id":"5e53a7b4d9a7ea3a2b062da0","study_id":"605e2a800ccfa0c8e820d869","session_id":"606220e9f4b347d292e1f168"},{"rt":5071.96999998996,"stimulus":"img/00576.png","slider_start":4,"response":6,"trial_type":"image-slider-response","trial_index":165,"time_elapsed":526901,"internal_node_id":"0.0-3.0-0.162","subject_id":"5e53a7b4d9a7ea3a2b062da0","study_id":"605e2a800ccfa0c8e820d869","session_id":"606220e9f4b347d292e1f168"},{"rt":2396.9899999792688,"stimulus":"img/00896.png","slider_start":4,"response":3,"trial_type":"image-slider-response","trial_index":166,"time_elapsed":529309,"internal_node_id":"0.0-3.0-0.163","subject_id":"5e53a7b4d9a7ea3a2b062da0","study_id":"605e2a800ccfa0c8e820d869","session_id":"606220e9f4b347d292e1f168"},{"rt":2188.5749999783,"stimulus":"img/00011.png","slider_start":4,"response":3,"trial_type":"image-slider-response","trial_index":167,"time_elapsed":531510,"internal_node_id":"0.0-3.0-0.164","subject_id":"5e53a7b4d9a7ea3a2b062da0","study_id":"605e2a800ccfa0c8e820d869","session_id":"606220e9f4b347d292e1f168"},{"rt":2313.879999972414,"stimulus":"img/00592.png","slider_start":4,"response":5,"trial_type":"image-slider-response","trial_index":168,"time_elapsed":533835,"internal_node_id":"0.0-3.0-0.165","subject_id":"5e53a7b4d9a7ea3a2b062da0","study_id":"605e2a800ccfa0c8e820d869","session_id":"606220e9f4b347d292e1f168"},{"rt":1519.010000047274,"stimulus":"img/00957.png","slider_start":4,"response":4,"trial_type":"image-slider-response","trial_index":169,"time_elapsed":535364,"internal_node_id":"0.0-3.0-0.166","subject_id":"5e53a7b4d9a7ea3a2b062da0","study_id":"605e2a800ccfa0c8e820d869","session_id":"606220e9f4b347d292e1f168"},{"rt":2185.97500002943,"stimulus":"img/00015.png","slider_start":4,"response":4,"trial_type":"image-slider-response","trial_index":170,"time_elapsed":537559,"internal_node_id":"0.0-3.0-0.167","subject_id":"5e53a7b4d9a7ea3a2b062da0","study_id":"605e2a800ccfa0c8e820d869","session_id":"606220e9f4b347d292e1f168"},{"rt":1583.249999966938,"stimulus":"img/00995.png","slider_start":4,"response":4,"trial_type":"image-slider-response","trial_index":171,"time_elapsed":539203,"internal_node_id":"0.0-3.0-0.168","subject_id":"5e53a7b4d9a7ea3a2b062da0","study_id":"605e2a800ccfa0c8e820d869","session_id":"606220e9f4b347d292e1f168"},{"rt":2038.4349999949336,"stimulus":"img/00507.png","slider_start":4,"response":3,"trial_type":"image-slider-response","trial_index":172,"time_elapsed":541251,"internal_node_id":"0.0-3.0-0.169","subject_id":"5e53a7b4d9a7ea3a2b062da0","study_id":"605e2a800ccfa0c8e820d869","session_id":"606220e9f4b347d292e1f168"},{"rt":1431.1049999669194,"stimulus":"img/00440.png","slider_start":4,"response":4,"trial_type":"image-slider-response","trial_index":173,"time_elapsed":542690,"internal_node_id":"0.0-3.0-0.170","subject_id":"5e53a7b4d9a7ea3a2b062da0","study_id":"605e2a800ccfa0c8e820d869","session_id":"606220e9f4b347d292e1f168"},{"rt":1630.219999991823,"stimulus":"img/00988.png","slider_start":4,"response":4,"trial_type":"image-slider-response","trial_index":174,"time_elapsed":544328,"internal_node_id":"0.0-3.0-0.171","subject_id":"5e53a7b4d9a7ea3a2b062da0","study_id":"605e2a800ccfa0c8e820d869","session_id":"606220e9f4b347d292e1f168"}]