[{"rt":9366.349999967497,"stimulus":"Welcome to the experiment. Press any key to begin.","response":" ","trial_type":"html-keyboard-response","trial_index":0,"time_elapsed":9371,"internal_node_id":"0.0-0.0","subject_id":"605b54959aef6363ab65b4b1","study_id":"605e2a800ccfa0c8e820d869","session_id":"606202c86e84c47f746d66e0"},{"rt":46906.56500001205,"stimulus":"\n        <p>In this experiment, a face will appear on-screen.</p><p> <strong>Rate the face on a 1 - 7 scale based on how attractive he / she is.</strong> </p>\n        </div>\n        <p>Press any key to begin.</p>\n      ","response":" ","trial_type":"html-keyboard-response","trial_index":1,"time_elapsed":56279,"internal_node_id":"0.0-1.0","subject_id":"605b54959aef6363ab65b4b1","study_id":"605e2a800ccfa0c8e820d869","session_id":"606202c86e84c47f746d66e0"},{"success":true,"timeout":false,"failed_images":[],"failed_audio":[],"failed_video":[],"trial_type":"preload","trial_index":2,"time_elapsed":125498,"internal_node_id":"0.0-2.0","subject_id":"605b54959aef6363ab65b4b1","study_id":"605e2a800ccfa0c8e820d869","session_id":"606202c86e84c47f746d66e0"},{"rt":9793.459999957122,"stimulus":"img/00995.png","slider_start":4,"response":2,"trial_type":"image-slider-response","trial_index":3,"time_elapsed":135331,"internal_node_id":"0.0-3.0-0.0","subject_id":"605b54959aef6363ab65b4b1","study_id":"605e2a800ccfa0c8e820d869","session_id":"606202c86e84c47f746d66e0"},{"rt":7888.884999963921,"stimulus":"img/00926.png","slider_start":4,"response":2,"trial_type":"image-slider-response","trial_index":4,"time_elapsed":143228,"internal_node_id":"0.0-3.0-0.1","subject_id":"605b54959aef6363ab65b4b1","study_id":"605e2a800ccfa0c8e820d869","session_id":"606202c86e84c47f746d66e0"},{"rt":8089.205000025686,"stimulus":"img/00404.png","slider_start":4,"response":3,"trial_type":"image-slider-response","trial_index":5,"time_elapsed":151325,"internal_node_id":"0.0-3.0-0.2","subject_id":"605b54959aef6363ab65b4b1","study_id":"605e2a800ccfa0c8e820d869","session_id":"606202c86e84c47f746d66e0"},{"rt":3303.5149999777786,"stimulus":"img/00522.png","slider_start":4,"response":4,"trial_type":"image-slider-response","trial_index":6,"time_elapsed":154635,"internal_node_id":"0.0-3.0-0.3","subject_id":"605b54959aef6363ab65b4b1","study_id":"605e2a800ccfa0c8e820d869","session_id":"606202c86e84c47f746d66e0"},{"rt":2830.9749999898486,"stimulus":"img/00718.png","slider_start":4,"response":4,"trial_type":"image-slider-response","trial_index":7,"time_elapsed":157474,"internal_node_id":"0.0-3.0-0.4","subject_id":"605b54959aef6363ab65b4b1","study_id":"605e2a800ccfa0c8e820d869","session_id":"606202c86e84c47f746d66e0"},{"rt":3783.7949999957345,"stimulus":"img/00055.png","slider_start":4,"response":5,"trial_type":"image-slider-response","trial_index":8,"time_elapsed":161264,"internal_node_id":"0.0-3.0-0.5","subject_id":"605b54959aef6363ab65b4b1","study_id":"605e2a800ccfa0c8e820d869","session_id":"606202c86e84c47f746d66e0"},{"rt":4326.864999951795,"stimulus":"img/00504.png","slider_start":4,"response":3,"trial_type":"image-slider-response","trial_index":9,"time_elapsed":165598,"internal_node_id":"0.0-3.0-0.6","subject_id":"605b54959aef6363ab65b4b1","study_id":"605e2a800ccfa0c8e820d869","session_id":"606202c86e84c47f746d66e0"},{"rt":4019.620000035502,"stimulus":"img/00842.png","slider_start":4,"response":6,"trial_type":"image-slider-response","trial_index":10,"time_elapsed":169625,"internal_node_id":"0.0-3.0-0.7","subject_id":"605b54959aef6363ab65b4b1","study_id":"605e2a800ccfa0c8e820d869","session_id":"606202c86e84c47f746d66e0"},{"rt":3362.135000003036,"stimulus":"img/00594.png","slider_start":4,"response":5,"trial_type":"image-slider-response","trial_index":11,"time_elapsed":172994,"internal_node_id":"0.0-3.0-0.8","subject_id":"605b54959aef6363ab65b4b1","study_id":"605e2a800ccfa0c8e820d869","session_id":"606202c86e84c47f746d66e0"},{"rt":6909.619999991264,"stimulus":"img/00105.png","slider_start":4,"response":5,"trial_type":"image-slider-response","trial_index":12,"time_elapsed":179910,"internal_node_id":"0.0-3.0-0.9","subject_id":"605b54959aef6363ab65b4b1","study_id":"605e2a800ccfa0c8e820d869","session_id":"606202c86e84c47f746d66e0"},{"rt":4052.5049999705516,"stimulus":"img/00991.png","slider_start":4,"response":2,"trial_type":"image-slider-response","trial_index":13,"time_elapsed":183969,"internal_node_id":"0.0-3.0-0.10","subject_id":"605b54959aef6363ab65b4b1","study_id":"605e2a800ccfa0c8e820d869","session_id":"606202c86e84c47f746d66e0"},{"rt":5314.359999960288,"stimulus":"img/00483.png","slider_start":4,"response":2,"trial_type":"image-slider-response","trial_index":14,"time_elapsed":189290,"internal_node_id":"0.0-3.0-0.11","subject_id":"605b54959aef6363ab65b4b1","study_id":"605e2a800ccfa0c8e820d869","session_id":"606202c86e84c47f746d66e0"},{"rt":7613.335000001825,"stimulus":"img/00644.png","slider_start":4,"response":5,"trial_type":"image-slider-response","trial_index":15,"time_elapsed":196911,"internal_node_id":"0.0-3.0-0.12","subject_id":"605b54959aef6363ab65b4b1","study_id":"605e2a800ccfa0c8e820d869","session_id":"606202c86e84c47f746d66e0"},{"rt":3306.0549999936484,"stimulus":"img/00693.png","slider_start":4,"response":2,"trial_type":"image-slider-response","trial_index":16,"time_elapsed":200224,"internal_node_id":"0.0-3.0-0.13","subject_id":"605b54959aef6363ab65b4b1","study_id":"605e2a800ccfa0c8e820d869","session_id":"606202c86e84c47f746d66e0"},{"rt":3942.9649999947287,"stimulus":"img/00957.png","slider_start":4,"response":3,"trial_type":"image-slider-response","trial_index":17,"time_elapsed":204174,"internal_node_id":"0.0-3.0-0.14","subject_id":"605b54959aef6363ab65b4b1","study_id":"605e2a800ccfa0c8e820d869","session_id":"606202c86e84c47f746d66e0"},{"rt":4894.815000006929,"stimulus":"img/00549.png","slider_start":4,"response":3,"trial_type":"image-slider-response","trial_index":18,"time_elapsed":209077,"internal_node_id":"0.0-3.0-0.15","subject_id":"605b54959aef6363ab65b4b1","study_id":"605e2a800ccfa0c8e820d869","session_id":"606202c86e84c47f746d66e0"},{"rt":4726.395000005141,"stimulus":"img/00791.png","slider_start":4,"response":1,"trial_type":"image-slider-response","trial_index":19,"time_elapsed":213810,"internal_node_id":"0.0-3.0-0.16","subject_id":"605b54959aef6363ab65b4b1","study_id":"605e2a800ccfa0c8e820d869","session_id":"606202c86e84c47f746d66e0"},{"rt":3107.4699999880977,"stimulus":"img/00478.png","slider_start":4,"response":2,"trial_type":"image-slider-response","trial_index":20,"time_elapsed":216925,"internal_node_id":"0.0-3.0-0.17","subject_id":"605b54959aef6363ab65b4b1","study_id":"605e2a800ccfa0c8e820d869","session_id":"606202c86e84c47f746d66e0"},{"rt":2939.1799999866635,"stimulus":"img/00581.png","slider_start":4,"response":3,"trial_type":"image-slider-response","trial_index":21,"time_elapsed":219869,"internal_node_id":"0.0-3.0-0.18","subject_id":"605b54959aef6363ab65b4b1","study_id":"605e2a800ccfa0c8e820d869","session_id":"606202c86e84c47f746d66e0"},{"rt":4122.779999976046,"stimulus":"img/00902.png","slider_start":4,"response":3,"trial_type":"image-slider-response","trial_index":22,"time_elapsed":223999,"internal_node_id":"0.0-3.0-0.19","subject_id":"605b54959aef6363ab65b4b1","study_id":"605e2a800ccfa0c8e820d869","session_id":"606202c86e84c47f746d66e0"},{"rt":3971.5800000121817,"stimulus":"img/00481.png","slider_start":4,"response":3,"trial_type":"image-slider-response","trial_index":23,"time_elapsed":227978,"internal_node_id":"0.0-3.0-0.20","subject_id":"605b54959aef6363ab65b4b1","study_id":"605e2a800ccfa0c8e820d869","session_id":"606202c86e84c47f746d66e0"},{"rt":5442.864999989979,"stimulus":"img/00048.png","slider_start":4,"response":2,"trial_type":"image-slider-response","trial_index":24,"time_elapsed":233428,"internal_node_id":"0.0-3.0-0.21","subject_id":"605b54959aef6363ab65b4b1","study_id":"605e2a800ccfa0c8e820d869","session_id":"606202c86e84c47f746d66e0"},{"rt":5967.140000022482,"stimulus":"img/00576.png","slider_start":4,"response":6,"trial_type":"image-slider-response","trial_index":25,"time_elapsed":239403,"internal_node_id":"0.0-3.0-0.22","subject_id":"605b54959aef6363ab65b4b1","study_id":"605e2a800ccfa0c8e820d869","session_id":"606202c86e84c47f746d66e0"},{"rt":2809.229999955278,"stimulus":"img/00631.png","slider_start":4,"response":5,"trial_type":"image-slider-response","trial_index":26,"time_elapsed":242219,"internal_node_id":"0.0-3.0-0.23","subject_id":"605b54959aef6363ab65b4b1","study_id":"605e2a800ccfa0c8e820d869","session_id":"606202c86e84c47f746d66e0"},{"rt":2409.3749999883585,"stimulus":"img/00511.png","slider_start":4,"response":3,"trial_type":"image-slider-response","trial_index":27,"time_elapsed":244635,"internal_node_id":"0.0-3.0-0.24","subject_id":"605b54959aef6363ab65b4b1","study_id":"605e2a800ccfa0c8e820d869","session_id":"606202c86e84c47f746d66e0"},{"rt":5946.330000006128,"stimulus":"img/00114.png","slider_start":4,"response":3,"trial_type":"image-slider-response","trial_index":28,"time_elapsed":250587,"internal_node_id":"0.0-3.0-0.25","subject_id":"605b54959aef6363ab65b4b1","study_id":"605e2a800ccfa0c8e820d869","session_id":"606202c86e84c47f746d66e0"},{"rt":3480.680000036955,"stimulus":"img/00860.png","slider_start":4,"response":3,"trial_type":"image-slider-response","trial_index":29,"time_elapsed":254071,"internal_node_id":"0.0-3.0-0.26","subject_id":"605b54959aef6363ab65b4b1","study_id":"605e2a800ccfa0c8e820d869","session_id":"606202c86e84c47f746d66e0"},{"rt":2192.6949999760836,"stimulus":"img/00462.png","slider_start":4,"response":4,"trial_type":"image-slider-response","trial_index":30,"time_elapsed":256269,"internal_node_id":"0.0-3.0-0.27","subject_id":"605b54959aef6363ab65b4b1","study_id":"605e2a800ccfa0c8e820d869","session_id":"606202c86e84c47f746d66e0"},{"rt":5046.459999983199,"stimulus":"img/00600.png","slider_start":4,"response":2,"trial_type":"image-slider-response","trial_index":31,"time_elapsed":261320,"internal_node_id":"0.0-3.0-0.28","subject_id":"605b54959aef6363ab65b4b1","study_id":"605e2a800ccfa0c8e820d869","session_id":"606202c86e84c47f746d66e0"},{"rt":3152.46000001207,"stimulus":"img/00127.png","slider_start":4,"response":1,"trial_type":"image-slider-response","trial_index":32,"time_elapsed":264479,"internal_node_id":"0.0-3.0-0.29","subject_id":"605b54959aef6363ab65b4b1","study_id":"605e2a800ccfa0c8e820d869","session_id":"606202c86e84c47f746d66e0"},{"rt":4488.580000004731,"stimulus":"img/00879.png","slider_start":4,"response":6,"trial_type":"image-slider-response","trial_index":33,"time_elapsed":268976,"internal_node_id":"0.0-3.0-0.30","subject_id":"605b54959aef6363ab65b4b1","study_id":"605e2a800ccfa0c8e820d869","session_id":"606202c86e84c47f746d66e0"},{"rt":3495.3000000095926,"stimulus":"img/00785.png","slider_start":4,"response":5,"trial_type":"image-slider-response","trial_index":34,"time_elapsed":272478,"internal_node_id":"0.0-3.0-0.31","subject_id":"605b54959aef6363ab65b4b1","study_id":"605e2a800ccfa0c8e820d869","session_id":"606202c86e84c47f746d66e0"},{"rt":1641.6599999647588,"stimulus":"img/00618.png","slider_start":4,"response":4,"trial_type":"image-slider-response","trial_index":35,"time_elapsed":274127,"internal_node_id":"0.0-3.0-0.32","subject_id":"605b54959aef6363ab65b4b1","study_id":"605e2a800ccfa0c8e820d869","session_id":"606202c86e84c47f746d66e0"},{"rt":2921.005000011064,"stimulus":"img/00825.png","slider_start":4,"response":7,"trial_type":"image-slider-response","trial_index":36,"time_elapsed":277054,"internal_node_id":"0.0-3.0-0.33","subject_id":"605b54959aef6363ab65b4b1","study_id":"605e2a800ccfa0c8e820d869","session_id":"606202c86e84c47f746d66e0"},{"rt":2747.845000005327,"stimulus":"img/00742.png","slider_start":4,"response":6,"trial_type":"image-slider-response","trial_index":37,"time_elapsed":279808,"internal_node_id":"0.0-3.0-0.34","subject_id":"605b54959aef6363ab65b4b1","study_id":"605e2a800ccfa0c8e820d869","session_id":"606202c86e84c47f746d66e0"},{"rt":2807.8549999627285,"stimulus":"img/00016.png","slider_start":4,"response":3,"trial_type":"image-slider-response","trial_index":38,"time_elapsed":282621,"internal_node_id":"0.0-3.0-0.35","subject_id":"605b54959aef6363ab65b4b1","study_id":"605e2a800ccfa0c8e820d869","session_id":"606202c86e84c47f746d66e0"},{"rt":4315.670000039972,"stimulus":"img/00023.png","slider_start":4,"response":2,"trial_type":"image-slider-response","trial_index":39,"time_elapsed":286941,"internal_node_id":"0.0-3.0-0.36","subject_id":"605b54959aef6363ab65b4b1","study_id":"605e2a800ccfa0c8e820d869","session_id":"606202c86e84c47f746d66e0"},{"rt":1807.4800000176765,"stimulus":"img/00570.png","slider_start":4,"response":4,"trial_type":"image-slider-response","trial_index":40,"time_elapsed":288755,"internal_node_id":"0.0-3.0-0.37","subject_id":"605b54959aef6363ab65b4b1","study_id":"605e2a800ccfa0c8e820d869","session_id":"606202c86e84c47f746d66e0"},{"rt":2506.85499998508,"stimulus":"img/00122.png","slider_start":4,"response":6,"trial_type":"image-slider-response","trial_index":41,"time_elapsed":291268,"internal_node_id":"0.0-3.0-0.38","subject_id":"605b54959aef6363ab65b4b1","study_id":"605e2a800ccfa0c8e820d869","session_id":"606202c86e84c47f746d66e0"},{"rt":1796.8799999798648,"stimulus":"img/00469.png","slider_start":4,"response":4,"trial_type":"image-slider-response","trial_index":42,"time_elapsed":293070,"internal_node_id":"0.0-3.0-0.39","subject_id":"605b54959aef6363ab65b4b1","study_id":"605e2a800ccfa0c8e820d869","session_id":"606202c86e84c47f746d66e0"},{"rt":3044.915000034962,"stimulus":"img/00405.png","slider_start":4,"response":3,"trial_type":"image-slider-response","trial_index":43,"time_elapsed":296121,"internal_node_id":"0.0-3.0-0.40","subject_id":"605b54959aef6363ab65b4b1","study_id":"605e2a800ccfa0c8e820d869","session_id":"606202c86e84c47f746d66e0"},{"rt":3142.669999971986,"stimulus":"img/00930.png","slider_start":4,"response":3,"trial_type":"image-slider-response","trial_index":44,"time_elapsed":299271,"internal_node_id":"0.0-3.0-0.41","subject_id":"605b54959aef6363ab65b4b1","study_id":"605e2a800ccfa0c8e820d869","session_id":"606202c86e84c47f746d66e0"},{"rt":5247.28499999037,"stimulus":"img/00564.png","slider_start":4,"response":3,"trial_type":"image-slider-response","trial_index":45,"time_elapsed":304523,"internal_node_id":"0.0-3.0-0.42","subject_id":"605b54959aef6363ab65b4b1","study_id":"605e2a800ccfa0c8e820d869","session_id":"606202c86e84c47f746d66e0"},{"rt":3302.3599999723956,"stimulus":"img/00561.png","slider_start":4,"response":2,"trial_type":"image-slider-response","trial_index":46,"time_elapsed":307833,"internal_node_id":"0.0-3.0-0.43","subject_id":"605b54959aef6363ab65b4b1","study_id":"605e2a800ccfa0c8e820d869","session_id":"606202c86e84c47f746d66e0"},{"rt":3591.690000030212,"stimulus":"img/00508.png","slider_start":4,"response":4,"trial_type":"image-slider-response","trial_index":47,"time_elapsed":311431,"internal_node_id":"0.0-3.0-0.44","subject_id":"605b54959aef6363ab65b4b1","study_id":"605e2a800ccfa0c8e820d869","session_id":"606202c86e84c47f746d66e0"},{"rt":3513.82500003092,"stimulus":"img/00850.png","slider_start":4,"response":3,"trial_type":"image-slider-response","trial_index":48,"time_elapsed":314952,"internal_node_id":"0.0-3.0-0.45","subject_id":"605b54959aef6363ab65b4b1","study_id":"605e2a800ccfa0c8e820d869","session_id":"606202c86e84c47f746d66e0"},{"rt":2665.8299999544397,"stimulus":"img/00722.png","slider_start":4,"response":5,"trial_type":"image-slider-response","trial_index":49,"time_elapsed":317625,"internal_node_id":"0.0-3.0-0.46","subject_id":"605b54959aef6363ab65b4b1","study_id":"605e2a800ccfa0c8e820d869","session_id":"606202c86e84c47f746d66e0"},{"rt":3794.624999980442,"stimulus":"img/00998.png","slider_start":4,"response":4,"trial_type":"image-slider-response","trial_index":50,"time_elapsed":321426,"internal_node_id":"0.0-3.0-0.47","subject_id":"605b54959aef6363ab65b4b1","study_id":"605e2a800ccfa0c8e820d869","session_id":"606202c86e84c47f746d66e0"},{"rt":3230.1900000311434,"stimulus":"img/00503.png","slider_start":4,"response":3,"trial_type":"image-slider-response","trial_index":51,"time_elapsed":324663,"internal_node_id":"0.0-3.0-0.48","subject_id":"605b54959aef6363ab65b4b1","study_id":"605e2a800ccfa0c8e820d869","session_id":"606202c86e84c47f746d66e0"},{"rt":2836.2099999794737,"stimulus":"img/00688.png","slider_start":4,"response":5,"trial_type":"image-slider-response","trial_index":52,"time_elapsed":327507,"internal_node_id":"0.0-3.0-0.49","subject_id":"605b54959aef6363ab65b4b1","study_id":"605e2a800ccfa0c8e820d869","session_id":"606202c86e84c47f746d66e0"},{"rt":3896.1850000196137,"stimulus":"img/00100.png","slider_start":4,"response":6,"trial_type":"image-slider-response","trial_index":53,"time_elapsed":331409,"internal_node_id":"0.0-3.0-0.50","subject_id":"605b54959aef6363ab65b4b1","study_id":"605e2a800ccfa0c8e820d869","session_id":"606202c86e84c47f746d66e0"},{"rt":2570.9200000273995,"stimulus":"img/00848.png","slider_start":4,"response":6,"trial_type":"image-slider-response","trial_index":54,"time_elapsed":333987,"internal_node_id":"0.0-3.0-0.51","subject_id":"605b54959aef6363ab65b4b1","study_id":"605e2a800ccfa0c8e820d869","session_id":"606202c86e84c47f746d66e0"},{"rt":1945.499999972526,"stimulus":"img/00913.png","slider_start":4,"response":4,"trial_type":"image-slider-response","trial_index":55,"time_elapsed":335939,"internal_node_id":"0.0-3.0-0.52","subject_id":"605b54959aef6363ab65b4b1","study_id":"605e2a800ccfa0c8e820d869","session_id":"606202c86e84c47f746d66e0"},{"rt":5055.300000007264,"stimulus":"img/00951.png","slider_start":4,"response":4,"trial_type":"image-slider-response","trial_index":56,"time_elapsed":341000,"internal_node_id":"0.0-3.0-0.53","subject_id":"605b54959aef6363ab65b4b1","study_id":"605e2a800ccfa0c8e820d869","session_id":"606202c86e84c47f746d66e0"},{"rt":4357.260000018869,"stimulus":"img/00896.png","slider_start":4,"response":2,"trial_type":"image-slider-response","trial_index":57,"time_elapsed":345365,"internal_node_id":"0.0-3.0-0.54","subject_id":"605b54959aef6363ab65b4b1","study_id":"605e2a800ccfa0c8e820d869","session_id":"606202c86e84c47f746d66e0"},{"rt":6790.999999968335,"stimulus":"img/00760.png","slider_start":4,"response":3,"trial_type":"image-slider-response","trial_index":58,"time_elapsed":352163,"internal_node_id":"0.0-3.0-0.55","subject_id":"605b54959aef6363ab65b4b1","study_id":"605e2a800ccfa0c8e820d869","session_id":"606202c86e84c47f746d66e0"},{"rt":4017.924999992829,"stimulus":"img/00002.png","slider_start":4,"response":5,"trial_type":"image-slider-response","trial_index":59,"time_elapsed":356189,"internal_node_id":"0.0-3.0-0.56","subject_id":"605b54959aef6363ab65b4b1","study_id":"605e2a800ccfa0c8e820d869","session_id":"606202c86e84c47f746d66e0"},{"rt":4488.075000001118,"stimulus":"img/00525.png","slider_start":4,"response":3,"trial_type":"image-slider-response","trial_index":60,"time_elapsed":360684,"internal_node_id":"0.0-3.0-0.57","subject_id":"605b54959aef6363ab65b4b1","study_id":"605e2a800ccfa0c8e820d869","session_id":"606202c86e84c47f746d66e0"},{"rt":4278.715000022203,"stimulus":"img/00799.png","slider_start":4,"response":3,"trial_type":"image-slider-response","trial_index":61,"time_elapsed":364970,"internal_node_id":"0.0-3.0-0.58","subject_id":"605b54959aef6363ab65b4b1","study_id":"605e2a800ccfa0c8e820d869","session_id":"606202c86e84c47f746d66e0"},{"rt":3352.950000029523,"stimulus":"img/00764.png","slider_start":4,"response":4,"trial_type":"image-slider-response","trial_index":62,"time_elapsed":368330,"internal_node_id":"0.0-3.0-0.59","subject_id":"605b54959aef6363ab65b4b1","study_id":"605e2a800ccfa0c8e820d869","session_id":"606202c86e84c47f746d66e0"},{"rt":2012.4899999937043,"stimulus":"img/00460.png","slider_start":4,"response":4,"trial_type":"image-slider-response","trial_index":63,"time_elapsed":370350,"internal_node_id":"0.0-3.0-0.60","subject_id":"605b54959aef6363ab65b4b1","study_id":"605e2a800ccfa0c8e820d869","session_id":"606202c86e84c47f746d66e0"},{"rt":9085.92000004137,"stimulus":"img/00949.png","slider_start":4,"response":2,"trial_type":"image-slider-response","trial_index":64,"time_elapsed":379442,"internal_node_id":"0.0-3.0-0.61","subject_id":"605b54959aef6363ab65b4b1","study_id":"605e2a800ccfa0c8e820d869","session_id":"606202c86e84c47f746d66e0"},{"rt":8409.805000002962,"stimulus":"img/00130.png","slider_start":4,"response":3,"trial_type":"image-slider-response","trial_index":65,"time_elapsed":387860,"internal_node_id":"0.0-3.0-0.62","subject_id":"605b54959aef6363ab65b4b1","study_id":"605e2a800ccfa0c8e820d869","session_id":"606202c86e84c47f746d66e0"},{"rt":4638.879999984056,"stimulus":"img/00686.png","slider_start":4,"response":4,"trial_type":"image-slider-response","trial_index":66,"time_elapsed":392505,"internal_node_id":"0.0-3.0-0.63","subject_id":"605b54959aef6363ab65b4b1","study_id":"605e2a800ccfa0c8e820d869","session_id":"606202c86e84c47f746d66e0"},{"rt":4916.465000016615,"stimulus":"img/00854.png","slider_start":4,"response":2,"trial_type":"image-slider-response","trial_index":67,"time_elapsed":397429,"internal_node_id":"0.0-3.0-0.64","subject_id":"605b54959aef6363ab65b4b1","study_id":"605e2a800ccfa0c8e820d869","session_id":"606202c86e84c47f746d66e0"},{"rt":3229.8350000055507,"stimulus":"img/00078.png","slider_start":4,"response":2,"trial_type":"image-slider-response","trial_index":68,"time_elapsed":400665,"internal_node_id":"0.0-3.0-0.65","subject_id":"605b54959aef6363ab65b4b1","study_id":"605e2a800ccfa0c8e820d869","session_id":"606202c86e84c47f746d66e0"},{"rt":3050.9900000179186,"stimulus":"img/00507.png","slider_start":4,"response":3,"trial_type":"image-slider-response","trial_index":69,"time_elapsed":403723,"internal_node_id":"0.0-3.0-0.66","subject_id":"605b54959aef6363ab65b4b1","study_id":"605e2a800ccfa0c8e820d869","session_id":"606202c86e84c47f746d66e0"},{"rt":1845.9600000060163,"stimulus":"img/00752.png","slider_start":4,"response":4,"trial_type":"image-slider-response","trial_index":70,"time_elapsed":405575,"internal_node_id":"0.0-3.0-0.67","subject_id":"605b54959aef6363ab65b4b1","study_id":"605e2a800ccfa0c8e820d869","session_id":"606202c86e84c47f746d66e0"},{"rt":2930.3499999805354,"stimulus":"img/00418.png","slider_start":4,"response":6,"trial_type":"image-slider-response","trial_index":71,"time_elapsed":408512,"internal_node_id":"0.0-3.0-0.68","subject_id":"605b54959aef6363ab65b4b1","study_id":"605e2a800ccfa0c8e820d869","session_id":"606202c86e84c47f746d66e0"},{"rt":4105.949999997392,"stimulus":"img/00018.png","slider_start":4,"response":5,"trial_type":"image-slider-response","trial_index":72,"time_elapsed":412625,"internal_node_id":"0.0-3.0-0.69","subject_id":"605b54959aef6363ab65b4b1","study_id":"605e2a800ccfa0c8e820d869","session_id":"606202c86e84c47f746d66e0"},{"rt":3737.7250000135973,"stimulus":"img/40.png","slider_start":4,"response":3,"trial_type":"image-slider-response","trial_index":73,"time_elapsed":416372,"internal_node_id":"0.0-3.0-0.70","subject_id":"605b54959aef6363ab65b4b1","study_id":"605e2a800ccfa0c8e820d869","session_id":"606202c86e84c47f746d66e0"},{"rt":3121.11000000732,"stimulus":"img/00015.png","slider_start":4,"response":4,"trial_type":"image-slider-response","trial_index":74,"time_elapsed":419500,"internal_node_id":"0.0-3.0-0.71","subject_id":"605b54959aef6363ab65b4b1","study_id":"605e2a800ccfa0c8e820d869","session_id":"606202c86e84c47f746d66e0"},{"rt":2947.645000007469,"stimulus":"img/00623.png","slider_start":4,"response":7,"trial_type":"image-slider-response","trial_index":75,"time_elapsed":422454,"internal_node_id":"0.0-3.0-0.72","subject_id":"605b54959aef6363ab65b4b1","study_id":"605e2a800ccfa0c8e820d869","session_id":"606202c86e84c47f746d66e0"},{"rt":2469.6149999508634,"stimulus":"img/00424.png","slider_start":4,"response":7,"trial_type":"image-slider-response","trial_index":76,"time_elapsed":424931,"internal_node_id":"0.0-3.0-0.73","subject_id":"605b54959aef6363ab65b4b1","study_id":"605e2a800ccfa0c8e820d869","session_id":"606202c86e84c47f746d66e0"},{"rt":5804.624999989755,"stimulus":"img/00809.png","slider_start":4,"response":6,"trial_type":"image-slider-response","trial_index":77,"time_elapsed":430742,"internal_node_id":"0.0-3.0-0.74","subject_id":"605b54959aef6363ab65b4b1","study_id":"605e2a800ccfa0c8e820d869","session_id":"606202c86e84c47f746d66e0"},{"rt":7650.365000008605,"stimulus":"img/00447.png","slider_start":4,"response":2,"trial_type":"image-slider-response","trial_index":78,"time_elapsed":438399,"internal_node_id":"0.0-3.0-0.75","subject_id":"605b54959aef6363ab65b4b1","study_id":"605e2a800ccfa0c8e820d869","session_id":"606202c86e84c47f746d66e0"},{"rt":3426.0399999911897,"stimulus":"img/00126.png","slider_start":4,"response":1,"trial_type":"image-slider-response","trial_index":79,"time_elapsed":441831,"internal_node_id":"0.0-3.0-0.76","subject_id":"605b54959aef6363ab65b4b1","study_id":"605e2a800ccfa0c8e820d869","session_id":"606202c86e84c47f746d66e0"},{"rt":2718.3850000146776,"stimulus":"img/00790.png","slider_start":4,"response":1,"trial_type":"image-slider-response","trial_index":80,"time_elapsed":444556,"internal_node_id":"0.0-3.0-0.77","subject_id":"605b54959aef6363ab65b4b1","study_id":"605e2a800ccfa0c8e820d869","session_id":"606202c86e84c47f746d66e0"},{"rt":4711.86999999918,"stimulus":"img/00113.png","slider_start":4,"response":3,"trial_type":"image-slider-response","trial_index":81,"time_elapsed":449275,"internal_node_id":"0.0-3.0-0.78","subject_id":"605b54959aef6363ab65b4b1","study_id":"605e2a800ccfa0c8e820d869","session_id":"606202c86e84c47f746d66e0"},{"rt":2919.1500000306405,"stimulus":"img/00691.png","slider_start":4,"response":5,"trial_type":"image-slider-response","trial_index":82,"time_elapsed":452201,"internal_node_id":"0.0-3.0-0.79","subject_id":"605b54959aef6363ab65b4b1","study_id":"605e2a800ccfa0c8e820d869","session_id":"606202c86e84c47f746d66e0"},{"rt":2831.420000002254,"stimulus":"img/00853.png","slider_start":4,"response":6,"trial_type":"image-slider-response","trial_index":83,"time_elapsed":455038,"internal_node_id":"0.0-3.0-0.80","subject_id":"605b54959aef6363ab65b4b1","study_id":"605e2a800ccfa0c8e820d869","session_id":"606202c86e84c47f746d66e0"},{"rt":7579.930000007153,"stimulus":"img/00012.png","slider_start":4,"response":2,"trial_type":"image-slider-response","trial_index":84,"time_elapsed":462626,"internal_node_id":"0.0-3.0-0.81","subject_id":"605b54959aef6363ab65b4b1","study_id":"605e2a800ccfa0c8e820d869","session_id":"606202c86e84c47f746d66e0"},{"rt":2887.575000000652,"stimulus":"img/00406.png","slider_start":4,"response":2,"trial_type":"image-slider-response","trial_index":85,"time_elapsed":465521,"internal_node_id":"0.0-3.0-0.82","subject_id":"605b54959aef6363ab65b4b1","study_id":"605e2a800ccfa0c8e820d869","session_id":"606202c86e84c47f746d66e0"},{"rt":2599.1999999969266,"stimulus":"img/00815.png","slider_start":4,"response":4,"trial_type":"image-slider-response","trial_index":86,"time_elapsed":468126,"internal_node_id":"0.0-3.0-0.83","subject_id":"605b54959aef6363ab65b4b1","study_id":"605e2a800ccfa0c8e820d869","session_id":"606202c86e84c47f746d66e0"},{"rt":1662.3499999986961,"stimulus":"img/00689.png","slider_start":4,"response":4,"trial_type":"image-slider-response","trial_index":87,"time_elapsed":469794,"internal_node_id":"0.0-3.0-0.84","subject_id":"605b54959aef6363ab65b4b1","study_id":"605e2a800ccfa0c8e820d869","session_id":"606202c86e84c47f746d66e0"},{"rt":2963.485000014771,"stimulus":"img/00810.png","slider_start":4,"response":3,"trial_type":"image-slider-response","trial_index":88,"time_elapsed":472762,"internal_node_id":"0.0-3.0-0.85","subject_id":"605b54959aef6363ab65b4b1","study_id":"605e2a800ccfa0c8e820d869","session_id":"606202c86e84c47f746d66e0"},{"rt":4652.799999981653,"stimulus":"img/00042.png","slider_start":4,"response":2,"trial_type":"image-slider-response","trial_index":89,"time_elapsed":477420,"internal_node_id":"0.0-3.0-0.86","subject_id":"605b54959aef6363ab65b4b1","study_id":"605e2a800ccfa0c8e820d869","session_id":"606202c86e84c47f746d66e0"},{"rt":6897.1249999594875,"stimulus":"img/00029.png","slider_start":4,"response":1,"trial_type":"image-slider-response","trial_index":90,"time_elapsed":484322,"internal_node_id":"0.0-3.0-0.87","subject_id":"605b54959aef6363ab65b4b1","study_id":"605e2a800ccfa0c8e820d869","session_id":"606202c86e84c47f746d66e0"},{"rt":2782.9900000360794,"stimulus":"img/00521.png","slider_start":4,"response":2,"trial_type":"image-slider-response","trial_index":91,"time_elapsed":487112,"internal_node_id":"0.0-3.0-0.88","subject_id":"605b54959aef6363ab65b4b1","study_id":"605e2a800ccfa0c8e820d869","session_id":"606202c86e84c47f746d66e0"},{"rt":3028.7000000244007,"stimulus":"img/00779.png","slider_start":4,"response":2,"trial_type":"image-slider-response","trial_index":92,"time_elapsed":490147,"internal_node_id":"0.0-3.0-0.89","subject_id":"605b54959aef6363ab65b4b1","study_id":"605e2a800ccfa0c8e820d869","session_id":"606202c86e84c47f746d66e0"},{"rt":4442.18999997247,"stimulus":"img/00082.png","slider_start":4,"response":3,"trial_type":"image-slider-response","trial_index":93,"time_elapsed":494594,"internal_node_id":"0.0-3.0-0.90","subject_id":"605b54959aef6363ab65b4b1","study_id":"605e2a800ccfa0c8e820d869","session_id":"606202c86e84c47f746d66e0"},{"rt":2957.044999988284,"stimulus":"img/00817.png","slider_start":4,"response":3,"trial_type":"image-slider-response","trial_index":94,"time_elapsed":497558,"internal_node_id":"0.0-3.0-0.91","subject_id":"605b54959aef6363ab65b4b1","study_id":"605e2a800ccfa0c8e820d869","session_id":"606202c86e84c47f746d66e0"},{"rt":8143.44000001438,"stimulus":"img/00801.png","slider_start":4,"response":2,"trial_type":"image-slider-response","trial_index":95,"time_elapsed":505707,"internal_node_id":"0.0-3.0-0.92","subject_id":"605b54959aef6363ab65b4b1","study_id":"605e2a800ccfa0c8e820d869","session_id":"606202c86e84c47f746d66e0"},{"rt":6574.140000040643,"stimulus":"img/00129.png","slider_start":4,"response":5,"trial_type":"image-slider-response","trial_index":96,"time_elapsed":512288,"internal_node_id":"0.0-3.0-0.93","subject_id":"605b54959aef6363ab65b4b1","study_id":"605e2a800ccfa0c8e820d869","session_id":"606202c86e84c47f746d66e0"},{"rt":2742.3650000127964,"stimulus":"img/00629.png","slider_start":4,"response":3,"trial_type":"image-slider-response","trial_index":97,"time_elapsed":515038,"internal_node_id":"0.0-3.0-0.94","subject_id":"605b54959aef6363ab65b4b1","study_id":"605e2a800ccfa0c8e820d869","session_id":"606202c86e84c47f746d66e0"},{"rt":2544.270000013057,"stimulus":"img/00603.png","slider_start":4,"response":3,"trial_type":"image-slider-response","trial_index":98,"time_elapsed":517590,"internal_node_id":"0.0-3.0-0.95","subject_id":"605b54959aef6363ab65b4b1","study_id":"605e2a800ccfa0c8e820d869","session_id":"606202c86e84c47f746d66e0"},{"rt":2680.4700000211596,"stimulus":"img/00052.png","slider_start":4,"response":4,"trial_type":"image-slider-response","trial_index":99,"time_elapsed":520276,"internal_node_id":"0.0-3.0-0.96","subject_id":"605b54959aef6363ab65b4b1","study_id":"605e2a800ccfa0c8e820d869","session_id":"606202c86e84c47f746d66e0"},{"rt":2958.6600000038743,"stimulus":"img/00499.png","slider_start":4,"response":2,"trial_type":"image-slider-response","trial_index":100,"time_elapsed":523241,"internal_node_id":"0.0-3.0-0.97","subject_id":"605b54959aef6363ab65b4b1","study_id":"605e2a800ccfa0c8e820d869","session_id":"606202c86e84c47f746d66e0"},{"rt":3256.030000047758,"stimulus":"img/00093.png","slider_start":4,"response":3,"trial_type":"image-slider-response","trial_index":101,"time_elapsed":526504,"internal_node_id":"0.0-3.0-0.98","subject_id":"605b54959aef6363ab65b4b1","study_id":"605e2a800ccfa0c8e820d869","session_id":"606202c86e84c47f746d66e0"},{"rt":5227.720000024419,"stimulus":"img/00464.png","slider_start":4,"response":2,"trial_type":"image-slider-response","trial_index":102,"time_elapsed":531739,"internal_node_id":"0.0-3.0-0.99","subject_id":"605b54959aef6363ab65b4b1","study_id":"605e2a800ccfa0c8e820d869","session_id":"606202c86e84c47f746d66e0"},{"rt":4098.155000014231,"stimulus":"img/00747.png","slider_start":4,"response":3,"trial_type":"image-slider-response","trial_index":103,"time_elapsed":535845,"internal_node_id":"0.0-3.0-0.100","subject_id":"605b54959aef6363ab65b4b1","study_id":"605e2a800ccfa0c8e820d869","session_id":"606202c86e84c47f746d66e0"},{"rt":7977.560000028461,"stimulus":"img/00040.png","slider_start":4,"response":1,"trial_type":"image-slider-response","trial_index":104,"time_elapsed":543830,"internal_node_id":"0.0-3.0-0.101","subject_id":"605b54959aef6363ab65b4b1","study_id":"605e2a800ccfa0c8e820d869","session_id":"606202c86e84c47f746d66e0"},{"rt":8481.945000006817,"stimulus":"img/00773.png","slider_start":4,"response":4,"trial_type":"image-slider-response","trial_index":105,"time_elapsed":552319,"internal_node_id":"0.0-3.0-0.102","subject_id":"605b54959aef6363ab65b4b1","study_id":"605e2a800ccfa0c8e820d869","session_id":"606202c86e84c47f746d66e0"},{"rt":3682.8699999605305,"stimulus":"img/00059.png","slider_start":4,"response":5,"trial_type":"image-slider-response","trial_index":106,"time_elapsed":556010,"internal_node_id":"0.0-3.0-0.103","subject_id":"605b54959aef6363ab65b4b1","study_id":"605e2a800ccfa0c8e820d869","session_id":"606202c86e84c47f746d66e0"},{"rt":3860.159999981988,"stimulus":"img/00731.png","slider_start":4,"response":3,"trial_type":"image-slider-response","trial_index":107,"time_elapsed":559877,"internal_node_id":"0.0-3.0-0.104","subject_id":"605b54959aef6363ab65b4b1","study_id":"605e2a800ccfa0c8e820d869","session_id":"606202c86e84c47f746d66e0"},{"rt":5016.17499999702,"stimulus":"img/00982.png","slider_start":4,"response":3,"trial_type":"image-slider-response","trial_index":108,"time_elapsed":564901,"internal_node_id":"0.0-3.0-0.105","subject_id":"605b54959aef6363ab65b4b1","study_id":"605e2a800ccfa0c8e820d869","session_id":"606202c86e84c47f746d66e0"},{"rt":2649.5699999504723,"stimulus":"img/00559.png","slider_start":4,"response":4,"trial_type":"image-slider-response","trial_index":109,"time_elapsed":567558,"internal_node_id":"0.0-3.0-0.106","subject_id":"605b54959aef6363ab65b4b1","study_id":"605e2a800ccfa0c8e820d869","session_id":"606202c86e84c47f746d66e0"},{"rt":3216.0300000105053,"stimulus":"img/00077.png","slider_start":4,"response":3,"trial_type":"image-slider-response","trial_index":110,"time_elapsed":570780,"internal_node_id":"0.0-3.0-0.107","subject_id":"605b54959aef6363ab65b4b1","study_id":"605e2a800ccfa0c8e820d869","session_id":"606202c86e84c47f746d66e0"},{"rt":4178.65499999607,"stimulus":"img/00064.png","slider_start":4,"response":4,"trial_type":"image-slider-response","trial_index":111,"time_elapsed":574966,"internal_node_id":"0.0-3.0-0.108","subject_id":"605b54959aef6363ab65b4b1","study_id":"605e2a800ccfa0c8e820d869","session_id":"606202c86e84c47f746d66e0"},{"rt":3186.794999986887,"stimulus":"img/00986.png","slider_start":4,"response":3,"trial_type":"image-slider-response","trial_index":112,"time_elapsed":578160,"internal_node_id":"0.0-3.0-0.109","subject_id":"605b54959aef6363ab65b4b1","study_id":"605e2a800ccfa0c8e820d869","session_id":"606202c86e84c47f746d66e0"},{"rt":2830.2849999745376,"stimulus":"img/00612.png","slider_start":4,"response":3,"trial_type":"image-slider-response","trial_index":113,"time_elapsed":580998,"internal_node_id":"0.0-3.0-0.110","subject_id":"605b54959aef6363ab65b4b1","study_id":"605e2a800ccfa0c8e820d869","session_id":"606202c86e84c47f746d66e0"},{"rt":4831.155000021681,"stimulus":"img/00761.png","slider_start":4,"response":3,"trial_type":"image-slider-response","trial_index":114,"time_elapsed":585837,"internal_node_id":"0.0-3.0-0.111","subject_id":"605b54959aef6363ab65b4b1","study_id":"605e2a800ccfa0c8e820d869","session_id":"606202c86e84c47f746d66e0"},{"rt":6999.219999997877,"stimulus":"img/00744.png","slider_start":4,"response":3,"trial_type":"image-slider-response","trial_index":115,"time_elapsed":592843,"internal_node_id":"0.0-3.0-0.112","subject_id":"605b54959aef6363ab65b4b1","study_id":"605e2a800ccfa0c8e820d869","session_id":"606202c86e84c47f746d66e0"},{"rt":1537.705000024289,"stimulus":"img/00489.png","slider_start":4,"response":4,"trial_type":"image-slider-response","trial_index":116,"time_elapsed":594389,"internal_node_id":"0.0-3.0-0.113","subject_id":"605b54959aef6363ab65b4b1","study_id":"605e2a800ccfa0c8e820d869","session_id":"606202c86e84c47f746d66e0"},{"rt":2873.879999970086,"stimulus":"img/00041.png","slider_start":4,"response":7,"trial_type":"image-slider-response","trial_index":117,"time_elapsed":597268,"internal_node_id":"0.0-3.0-0.114","subject_id":"605b54959aef6363ab65b4b1","study_id":"605e2a800ccfa0c8e820d869","session_id":"606202c86e84c47f746d66e0"},{"rt":2920.5500000389293,"stimulus":"img/00440.png","slider_start":4,"response":3,"trial_type":"image-slider-response","trial_index":118,"time_elapsed":600197,"internal_node_id":"0.0-3.0-0.115","subject_id":"605b54959aef6363ab65b4b1","study_id":"605e2a800ccfa0c8e820d869","session_id":"606202c86e84c47f746d66e0"},{"rt":2650.150000001304,"stimulus":"img/00793.png","slider_start":4,"response":4,"trial_type":"image-slider-response","trial_index":119,"time_elapsed":602853,"internal_node_id":"0.0-3.0-0.116","subject_id":"605b54959aef6363ab65b4b1","study_id":"605e2a800ccfa0c8e820d869","session_id":"606202c86e84c47f746d66e0"},{"rt":3313.525000005029,"stimulus":"img/00708.png","slider_start":4,"response":3,"trial_type":"image-slider-response","trial_index":120,"time_elapsed":606173,"internal_node_id":"0.0-3.0-0.117","subject_id":"605b54959aef6363ab65b4b1","study_id":"605e2a800ccfa0c8e820d869","session_id":"606202c86e84c47f746d66e0"},{"rt":3694.130000018049,"stimulus":"img/00811.png","slider_start":4,"response":3,"trial_type":"image-slider-response","trial_index":121,"time_elapsed":609873,"internal_node_id":"0.0-3.0-0.118","subject_id":"605b54959aef6363ab65b4b1","study_id":"605e2a800ccfa0c8e820d869","session_id":"606202c86e84c47f746d66e0"},{"rt":3395.859999989625,"stimulus":"img/00115.png","slider_start":4,"response":2,"trial_type":"image-slider-response","trial_index":122,"time_elapsed":613277,"internal_node_id":"0.0-3.0-0.119","subject_id":"605b54959aef6363ab65b4b1","study_id":"605e2a800ccfa0c8e820d869","session_id":"606202c86e84c47f746d66e0"},{"rt":7010.804999968968,"stimulus":"img/00466.png","slider_start":4,"response":3,"trial_type":"image-slider-response","trial_index":123,"time_elapsed":620295,"internal_node_id":"0.0-3.0-0.120","subject_id":"605b54959aef6363ab65b4b1","study_id":"605e2a800ccfa0c8e820d869","session_id":"606202c86e84c47f746d66e0"},{"rt":3997.269999992568,"stimulus":"img/00898.png","slider_start":4,"response":2,"trial_type":"image-slider-response","trial_index":124,"time_elapsed":624300,"internal_node_id":"0.0-3.0-0.121","subject_id":"605b54959aef6363ab65b4b1","study_id":"605e2a800ccfa0c8e820d869","session_id":"606202c86e84c47f746d66e0"},{"rt":3896.6350000118837,"stimulus":"img/00079.png","slider_start":4,"response":3,"trial_type":"image-slider-response","trial_index":125,"time_elapsed":628204,"internal_node_id":"0.0-3.0-0.122","subject_id":"605b54959aef6363ab65b4b1","study_id":"605e2a800ccfa0c8e820d869","session_id":"606202c86e84c47f746d66e0"},{"rt":3242.5350000266917,"stimulus":"img/00413.png","slider_start":4,"response":1,"trial_type":"image-slider-response","trial_index":126,"time_elapsed":631454,"internal_node_id":"0.0-3.0-0.123","subject_id":"605b54959aef6363ab65b4b1","study_id":"605e2a800ccfa0c8e820d869","session_id":"606202c86e84c47f746d66e0"},{"rt":5049.020000034943,"stimulus":"img/00415.png","slider_start":4,"response":3,"trial_type":"image-slider-response","trial_index":127,"time_elapsed":636511,"internal_node_id":"0.0-3.0-0.124","subject_id":"605b54959aef6363ab65b4b1","study_id":"605e2a800ccfa0c8e820d869","session_id":"606202c86e84c47f746d66e0"},{"rt":1926.5049999812618,"stimulus":"img/00587.png","slider_start":4,"response":4,"trial_type":"image-slider-response","trial_index":128,"time_elapsed":638444,"internal_node_id":"0.0-3.0-0.125","subject_id":"605b54959aef6363ab65b4b1","study_id":"605e2a800ccfa0c8e820d869","session_id":"606202c86e84c47f746d66e0"},{"rt":4007.8750000102445,"stimulus":"img/00841.png","slider_start":4,"response":5,"trial_type":"image-slider-response","trial_index":129,"time_elapsed":642458,"internal_node_id":"0.0-3.0-0.126","subject_id":"605b54959aef6363ab65b4b1","study_id":"605e2a800ccfa0c8e820d869","session_id":"606202c86e84c47f746d66e0"},{"rt":3071.5300000156276,"stimulus":"img/00011.png","slider_start":4,"response":3,"trial_type":"image-slider-response","trial_index":130,"time_elapsed":645537,"internal_node_id":"0.0-3.0-0.127","subject_id":"605b54959aef6363ab65b4b1","study_id":"605e2a800ccfa0c8e820d869","session_id":"606202c86e84c47f746d66e0"},{"rt":3928.055000025779,"stimulus":"img/00045.png","slider_start":4,"response":3,"trial_type":"image-slider-response","trial_index":131,"time_elapsed":649473,"internal_node_id":"0.0-3.0-0.128","subject_id":"605b54959aef6363ab65b4b1","study_id":"605e2a800ccfa0c8e820d869","session_id":"606202c86e84c47f746d66e0"},{"rt":2151.5000000363216,"stimulus":"img/00759.png","slider_start":4,"response":4,"trial_type":"image-slider-response","trial_index":132,"time_elapsed":651632,"internal_node_id":"0.0-3.0-0.129","subject_id":"605b54959aef6363ab65b4b1","study_id":"605e2a800ccfa0c8e820d869","session_id":"606202c86e84c47f746d66e0"},{"rt":2776.5249999938533,"stimulus":"img/00428.png","slider_start":4,"response":2,"trial_type":"image-slider-response","trial_index":133,"time_elapsed":654413,"internal_node_id":"0.0-3.0-0.130","subject_id":"605b54959aef6363ab65b4b1","study_id":"605e2a800ccfa0c8e820d869","session_id":"606202c86e84c47f746d66e0"},{"rt":2799.994999950286,"stimulus":"img/00006.png","slider_start":4,"response":4,"trial_type":"image-slider-response","trial_index":134,"time_elapsed":657219,"internal_node_id":"0.0-3.0-0.131","subject_id":"605b54959aef6363ab65b4b1","study_id":"605e2a800ccfa0c8e820d869","session_id":"606202c86e84c47f746d66e0"},{"rt":3285.9799999860115,"stimulus":"img/00653.png","slider_start":4,"response":3,"trial_type":"image-slider-response","trial_index":135,"time_elapsed":660511,"internal_node_id":"0.0-3.0-0.132","subject_id":"605b54959aef6363ab65b4b1","study_id":"605e2a800ccfa0c8e820d869","session_id":"606202c86e84c47f746d66e0"},{"rt":3887.430000002496,"stimulus":"img/00755.png","slider_start":4,"response":5,"trial_type":"image-slider-response","trial_index":136,"time_elapsed":664404,"internal_node_id":"0.0-3.0-0.133","subject_id":"605b54959aef6363ab65b4b1","study_id":"605e2a800ccfa0c8e820d869","session_id":"606202c86e84c47f746d66e0"},{"rt":3058.3750000223517,"stimulus":"img/00822.png","slider_start":4,"response":6,"trial_type":"image-slider-response","trial_index":137,"time_elapsed":667470,"internal_node_id":"0.0-3.0-0.134","subject_id":"605b54959aef6363ab65b4b1","study_id":"605e2a800ccfa0c8e820d869","session_id":"606202c86e84c47f746d66e0"},{"rt":2752.3199999704957,"stimulus":"img/00438.png","slider_start":4,"response":3,"trial_type":"image-slider-response","trial_index":138,"time_elapsed":670229,"internal_node_id":"0.0-3.0-0.135","subject_id":"605b54959aef6363ab65b4b1","study_id":"605e2a800ccfa0c8e820d869","session_id":"606202c86e84c47f746d66e0"},{"rt":3248.220000008587,"stimulus":"img/00928.png","slider_start":4,"response":5,"trial_type":"image-slider-response","trial_index":139,"time_elapsed":673483,"internal_node_id":"0.0-3.0-0.136","subject_id":"605b54959aef6363ab65b4b1","study_id":"605e2a800ccfa0c8e820d869","session_id":"606202c86e84c47f746d66e0"},{"rt":4049.219999986235,"stimulus":"img/00563.png","slider_start":4,"response":4,"trial_type":"image-slider-response","trial_index":140,"time_elapsed":677540,"internal_node_id":"0.0-3.0-0.137","subject_id":"605b54959aef6363ab65b4b1","study_id":"605e2a800ccfa0c8e820d869","session_id":"606202c86e84c47f746d66e0"},{"rt":2961.669999989681,"stimulus":"img/00967.png","slider_start":4,"response":3,"trial_type":"image-slider-response","trial_index":141,"time_elapsed":680509,"internal_node_id":"0.0-3.0-0.138","subject_id":"605b54959aef6363ab65b4b1","study_id":"605e2a800ccfa0c8e820d869","session_id":"606202c86e84c47f746d66e0"},{"rt":2907.7200000174344,"stimulus":"img/00545.png","slider_start":4,"response":3,"trial_type":"image-slider-response","trial_index":142,"time_elapsed":683425,"internal_node_id":"0.0-3.0-0.139","subject_id":"605b54959aef6363ab65b4b1","study_id":"605e2a800ccfa0c8e820d869","session_id":"606202c86e84c47f746d66e0"},{"rt":4417.205000005197,"stimulus":"img/00748.png","slider_start":4,"response":2,"trial_type":"image-slider-response","trial_index":143,"time_elapsed":687846,"internal_node_id":"0.0-3.0-0.140","subject_id":"605b54959aef6363ab65b4b1","study_id":"605e2a800ccfa0c8e820d869","session_id":"606202c86e84c47f746d66e0"},{"rt":5977.914999995846,"stimulus":"img/00554.png","slider_start":4,"response":2,"trial_type":"image-slider-response","trial_index":144,"time_elapsed":693830,"internal_node_id":"0.0-3.0-0.141","subject_id":"605b54959aef6363ab65b4b1","study_id":"605e2a800ccfa0c8e820d869","session_id":"606202c86e84c47f746d66e0"},{"rt":6911.575000034645,"stimulus":"img/00439.png","slider_start":4,"response":2,"trial_type":"image-slider-response","trial_index":145,"time_elapsed":700748,"internal_node_id":"0.0-3.0-0.142","subject_id":"605b54959aef6363ab65b4b1","study_id":"605e2a800ccfa0c8e820d869","session_id":"606202c86e84c47f746d66e0"},{"rt":3245.1899999869056,"stimulus":"img/00797.png","slider_start":4,"response":4,"trial_type":"image-slider-response","trial_index":146,"time_elapsed":704000,"internal_node_id":"0.0-3.0-0.143","subject_id":"605b54959aef6363ab65b4b1","study_id":"605e2a800ccfa0c8e820d869","session_id":"606202c86e84c47f746d66e0"},{"rt":3109.794999996666,"stimulus":"img/00496.png","slider_start":4,"response":6,"trial_type":"image-slider-response","trial_index":147,"time_elapsed":707117,"internal_node_id":"0.0-3.0-0.144","subject_id":"605b54959aef6363ab65b4b1","study_id":"605e2a800ccfa0c8e820d869","session_id":"606202c86e84c47f746d66e0"},{"rt":4214.0699999872595,"stimulus":"img/00101.png","slider_start":4,"response":2,"trial_type":"image-slider-response","trial_index":148,"time_elapsed":711339,"internal_node_id":"0.0-3.0-0.145","subject_id":"605b54959aef6363ab65b4b1","study_id":"605e2a800ccfa0c8e820d869","session_id":"606202c86e84c47f746d66e0"},{"rt":3552.670000004582,"stimulus":"img/00690.png","slider_start":4,"response":6,"trial_type":"image-slider-response","trial_index":149,"time_elapsed":714905,"internal_node_id":"0.0-3.0-0.146","subject_id":"605b54959aef6363ab65b4b1","study_id":"605e2a800ccfa0c8e820d869","session_id":"606202c86e84c47f746d66e0"},{"rt":7005.264999985229,"stimulus":"img/00878.png","slider_start":4,"response":3,"trial_type":"image-slider-response","trial_index":150,"time_elapsed":721916,"internal_node_id":"0.0-3.0-0.147","subject_id":"605b54959aef6363ab65b4b1","study_id":"605e2a800ccfa0c8e820d869","session_id":"606202c86e84c47f746d66e0"},{"rt":3752.580000029411,"stimulus":"img/00780.png","slider_start":4,"response":2,"trial_type":"image-slider-response","trial_index":151,"time_elapsed":725677,"internal_node_id":"0.0-3.0-0.148","subject_id":"605b54959aef6363ab65b4b1","study_id":"605e2a800ccfa0c8e820d869","session_id":"606202c86e84c47f746d66e0"},{"rt":4920.659999945201,"stimulus":"img/00454.png","slider_start":4,"response":2,"trial_type":"image-slider-response","trial_index":152,"time_elapsed":730604,"internal_node_id":"0.0-3.0-0.149","subject_id":"605b54959aef6363ab65b4b1","study_id":"605e2a800ccfa0c8e820d869","session_id":"606202c86e84c47f746d66e0"},{"rt":3415.655000018887,"stimulus":"img/00432.png","slider_start":4,"response":7,"trial_type":"image-slider-response","trial_index":153,"time_elapsed":734027,"internal_node_id":"0.0-3.0-0.150","subject_id":"605b54959aef6363ab65b4b1","study_id":"605e2a800ccfa0c8e820d869","session_id":"606202c86e84c47f746d66e0"},{"rt":4466.669999994338,"stimulus":"img/00037.png","slider_start":4,"response":4,"trial_type":"image-slider-response","trial_index":154,"time_elapsed":738500,"internal_node_id":"0.0-3.0-0.151","subject_id":"605b54959aef6363ab65b4b1","study_id":"605e2a800ccfa0c8e820d869","session_id":"606202c86e84c47f746d66e0"},{"rt":1477.6199999614619,"stimulus":"img/00956.png","slider_start":4,"response":4,"trial_type":"image-slider-response","trial_index":155,"time_elapsed":739984,"internal_node_id":"0.0-3.0-0.152","subject_id":"605b54959aef6363ab65b4b1","study_id":"605e2a800ccfa0c8e820d869","session_id":"606202c86e84c47f746d66e0"},{"rt":2662.3550000367686,"stimulus":"img/00456.png","slider_start":4,"response":2,"trial_type":"image-slider-response","trial_index":156,"time_elapsed":742652,"internal_node_id":"0.0-3.0-0.153","subject_id":"605b54959aef6363ab65b4b1","study_id":"605e2a800ccfa0c8e820d869","session_id":"606202c86e84c47f746d66e0"},{"rt":2261.6050000069663,"stimulus":"img/00903.png","slider_start":4,"response":4,"trial_type":"image-slider-response","trial_index":157,"time_elapsed":744920,"internal_node_id":"0.0-3.0-0.154","subject_id":"605b54959aef6363ab65b4b1","study_id":"605e2a800ccfa0c8e820d869","session_id":"606202c86e84c47f746d66e0"},{"rt":3520.7250000094064,"stimulus":"img/00789.png","slider_start":4,"response":3,"trial_type":"image-slider-response","trial_index":158,"time_elapsed":748447,"internal_node_id":"0.0-3.0-0.155","subject_id":"605b54959aef6363ab65b4b1","study_id":"605e2a800ccfa0c8e820d869","session_id":"606202c86e84c47f746d66e0"},{"rt":5339.24499998102,"stimulus":"img/00569.png","slider_start":4,"response":2,"trial_type":"image-slider-response","trial_index":159,"time_elapsed":753792,"internal_node_id":"0.0-3.0-0.156","subject_id":"605b54959aef6363ab65b4b1","study_id":"605e2a800ccfa0c8e820d869","session_id":"606202c86e84c47f746d66e0"},{"rt":2241.425000014715,"stimulus":"img/00756.png","slider_start":4,"response":4,"trial_type":"image-slider-response","trial_index":160,"time_elapsed":756042,"internal_node_id":"0.0-3.0-0.157","subject_id":"605b54959aef6363ab65b4b1","study_id":"605e2a800ccfa0c8e820d869","session_id":"606202c86e84c47f746d66e0"},{"rt":6734.560000011697,"stimulus":"img/00833.png","slider_start":4,"response":3,"trial_type":"image-slider-response","trial_index":161,"time_elapsed":762782,"internal_node_id":"0.0-3.0-0.158","subject_id":"605b54959aef6363ab65b4b1","study_id":"605e2a800ccfa0c8e820d869","session_id":"606202c86e84c47f746d66e0"},{"rt":3429.215000011027,"stimulus":"img/00401.png","slider_start":4,"response":2,"trial_type":"image-slider-response","trial_index":162,"time_elapsed":766218,"internal_node_id":"0.0-3.0-0.159","subject_id":"605b54959aef6363ab65b4b1","study_id":"605e2a800ccfa0c8e820d869","session_id":"606202c86e84c47f746d66e0"},{"rt":3099.0899999742396,"stimulus":"img/00543.png","slider_start":4,"response":5,"trial_type":"image-slider-response","trial_index":163,"time_elapsed":769325,"internal_node_id":"0.0-3.0-0.160","subject_id":"605b54959aef6363ab65b4b1","study_id":"605e2a800ccfa0c8e820d869","session_id":"606202c86e84c47f746d66e0"},{"rt":14921.39999999199,"stimulus":"img/00988.png","slider_start":4,"response":4,"trial_type":"image-slider-response","trial_index":164,"time_elapsed":784255,"internal_node_id":"0.0-3.0-0.161","subject_id":"605b54959aef6363ab65b4b1","study_id":"605e2a800ccfa0c8e820d869","session_id":"606202c86e84c47f746d66e0"},{"rt":3630.3900000057183,"stimulus":"img/00542.png","slider_start":4,"response":3,"trial_type":"image-slider-response","trial_index":165,"time_elapsed":787893,"internal_node_id":"0.0-3.0-0.162","subject_id":"605b54959aef6363ab65b4b1","study_id":"605e2a800ccfa0c8e820d869","session_id":"606202c86e84c47f746d66e0"},{"rt":4196.360000001732,"stimulus":"img/00867.png","slider_start":4,"response":3,"trial_type":"image-slider-response","trial_index":166,"time_elapsed":792095,"internal_node_id":"0.0-3.0-0.163","subject_id":"605b54959aef6363ab65b4b1","study_id":"605e2a800ccfa0c8e820d869","session_id":"606202c86e84c47f746d66e0"},{"rt":5743.895000021439,"stimulus":"img/00479.png","slider_start":4,"response":6,"trial_type":"image-slider-response","trial_index":167,"time_elapsed":797847,"internal_node_id":"0.0-3.0-0.164","subject_id":"605b54959aef6363ab65b4b1","study_id":"605e2a800ccfa0c8e820d869","session_id":"606202c86e84c47f746d66e0"},{"rt":11084.570000006352,"stimulus":"img/00973.png","slider_start":4,"response":3,"trial_type":"image-slider-response","trial_index":168,"time_elapsed":808940,"internal_node_id":"0.0-3.0-0.165","subject_id":"605b54959aef6363ab65b4b1","study_id":"605e2a800ccfa0c8e820d869","session_id":"606202c86e84c47f746d66e0"},{"rt":3258.9199999929406,"stimulus":"img/00472.png","slider_start":4,"response":1,"trial_type":"image-slider-response","trial_index":169,"time_elapsed":812206,"internal_node_id":"0.0-3.0-0.166","subject_id":"605b54959aef6363ab65b4b1","study_id":"605e2a800ccfa0c8e820d869","session_id":"606202c86e84c47f746d66e0"},{"rt":3586.219999997411,"stimulus":"img/00989.png","slider_start":4,"response":3,"trial_type":"image-slider-response","trial_index":170,"time_elapsed":815799,"internal_node_id":"0.0-3.0-0.167","subject_id":"605b54959aef6363ab65b4b1","study_id":"605e2a800ccfa0c8e820d869","session_id":"606202c86e84c47f746d66e0"},{"rt":3786.309999995865,"stimulus":"img/00437.png","slider_start":4,"response":5,"trial_type":"image-slider-response","trial_index":171,"time_elapsed":819593,"internal_node_id":"0.0-3.0-0.168","subject_id":"605b54959aef6363ab65b4b1","study_id":"605e2a800ccfa0c8e820d869","session_id":"606202c86e84c47f746d66e0"},{"rt":5697.43500003824,"stimulus":"img/00592.png","slider_start":4,"response":7,"trial_type":"image-slider-response","trial_index":172,"time_elapsed":825298,"internal_node_id":"0.0-3.0-0.169","subject_id":"605b54959aef6363ab65b4b1","study_id":"605e2a800ccfa0c8e820d869","session_id":"606202c86e84c47f746d66e0"},{"rt":2949.3149999761954,"stimulus":"img/00427.png","slider_start":4,"response":7,"trial_type":"image-slider-response","trial_index":173,"time_elapsed":828254,"internal_node_id":"0.0-3.0-0.170","subject_id":"605b54959aef6363ab65b4b1","study_id":"605e2a800ccfa0c8e820d869","session_id":"606202c86e84c47f746d66e0"},{"rt":3493.064999987837,"stimulus":"img/00768.png","slider_start":4,"response":4,"trial_type":"image-slider-response","trial_index":174,"time_elapsed":831753,"internal_node_id":"0.0-3.0-0.171","subject_id":"605b54959aef6363ab65b4b1","study_id":"605e2a800ccfa0c8e820d869","session_id":"606202c86e84c47f746d66e0"}]