[{"rt":21649.0600000252,"stimulus":"Welcome to the experiment. Press any key to begin.","response":" ","trial_type":"html-keyboard-response","trial_index":0,"time_elapsed":21650,"internal_node_id":"0.0-0.0","subject_id":"5fb5a0b59ba3a512d93382b7","study_id":"605e2a800ccfa0c8e820d869","session_id":"60622099f19211a56a5b025e"},{"rt":4798.115000012331,"stimulus":"\n        <p>In this experiment, a face will appear on-screen.</p><p> <strong>Rate the face on a 1 - 7 scale based on how attractive he / she is.</strong> </p>\n        </div>\n        <p>Press any key to begin.</p>\n      ","response":" ","trial_type":"html-keyboard-response","trial_index":1,"time_elapsed":26449,"internal_node_id":"0.0-1.0","subject_id":"5fb5a0b59ba3a512d93382b7","study_id":"605e2a800ccfa0c8e820d869","session_id":"60622099f19211a56a5b025e"},{"success":true,"timeout":false,"failed_images":[],"failed_audio":[],"failed_video":[],"trial_type":"preload","trial_index":2,"time_elapsed":75382,"internal_node_id":"0.0-2.0","subject_id":"5fb5a0b59ba3a512d93382b7","study_id":"605e2a800ccfa0c8e820d869","session_id":"60622099f19211a56a5b025e"},{"rt":21382.01499998104,"stimulus":"img/00078.png","slider_start":4,"response":3,"trial_type":"image-slider-response","trial_index":3,"time_elapsed":96777,"internal_node_id":"0.0-3.0-0.0","subject_id":"5fb5a0b59ba3a512d93382b7","study_id":"605e2a800ccfa0c8e820d869","session_id":"60622099f19211a56a5b025e"},{"rt":5046.875,"stimulus":"img/00454.png","slider_start":4,"response":3,"trial_type":"image-slider-response","trial_index":4,"time_elapsed":101825,"internal_node_id":"0.0-3.0-0.1","subject_id":"5fb5a0b59ba3a512d93382b7","study_id":"605e2a800ccfa0c8e820d869","session_id":"60622099f19211a56a5b025e"},{"rt":4768.694999977015,"stimulus":"img/00592.png","slider_start":4,"response":4,"trial_type":"image-slider-response","trial_index":5,"time_elapsed":106596,"internal_node_id":"0.0-3.0-0.2","subject_id":"5fb5a0b59ba3a512d93382b7","study_id":"605e2a800ccfa0c8e820d869","session_id":"60622099f19211a56a5b025e"},{"rt":2523.4899999923073,"stimulus":"img/00496.png","slider_start":4,"response":4,"trial_type":"image-slider-response","trial_index":6,"time_elapsed":109121,"internal_node_id":"0.0-3.0-0.3","subject_id":"5fb5a0b59ba3a512d93382b7","study_id":"605e2a800ccfa0c8e820d869","session_id":"60622099f19211a56a5b025e"},{"rt":5497.274999972433,"stimulus":"img/00612.png","slider_start":4,"response":3,"trial_type":"image-slider-response","trial_index":7,"time_elapsed":114620,"internal_node_id":"0.0-3.0-0.4","subject_id":"5fb5a0b59ba3a512d93382b7","study_id":"605e2a800ccfa0c8e820d869","session_id":"60622099f19211a56a5b025e"},{"rt":4502.235000021756,"stimulus":"img/00522.png","slider_start":4,"response":5,"trial_type":"image-slider-response","trial_index":8,"time_elapsed":119124,"internal_node_id":"0.0-3.0-0.5","subject_id":"5fb5a0b59ba3a512d93382b7","study_id":"605e2a800ccfa0c8e820d869","session_id":"60622099f19211a56a5b025e"},{"rt":3399.4650000240654,"stimulus":"img/00052.png","slider_start":4,"response":6,"trial_type":"image-slider-response","trial_index":9,"time_elapsed":122525,"internal_node_id":"0.0-3.0-0.6","subject_id":"5fb5a0b59ba3a512d93382b7","study_id":"605e2a800ccfa0c8e820d869","session_id":"60622099f19211a56a5b025e"},{"rt":7193.825000023935,"stimulus":"img/00478.png","slider_start":4,"response":4,"trial_type":"image-slider-response","trial_index":10,"time_elapsed":129720,"internal_node_id":"0.0-3.0-0.7","subject_id":"5fb5a0b59ba3a512d93382b7","study_id":"605e2a800ccfa0c8e820d869","session_id":"60622099f19211a56a5b025e"},{"rt":3401.555000047665,"stimulus":"img/00040.png","slider_start":4,"response":5,"trial_type":"image-slider-response","trial_index":11,"time_elapsed":133123,"internal_node_id":"0.0-3.0-0.8","subject_id":"5fb5a0b59ba3a512d93382b7","study_id":"605e2a800ccfa0c8e820d869","session_id":"60622099f19211a56a5b025e"},{"rt":2737.574999977369,"stimulus":"img/00957.png","slider_start":4,"response":3,"trial_type":"image-slider-response","trial_index":12,"time_elapsed":135862,"internal_node_id":"0.0-3.0-0.9","subject_id":"5fb5a0b59ba3a512d93382b7","study_id":"605e2a800ccfa0c8e820d869","session_id":"60622099f19211a56a5b025e"},{"rt":3088.5850000195205,"stimulus":"img/00780.png","slider_start":4,"response":4,"trial_type":"image-slider-response","trial_index":13,"time_elapsed":138952,"internal_node_id":"0.0-3.0-0.10","subject_id":"5fb5a0b59ba3a512d93382b7","study_id":"605e2a800ccfa0c8e820d869","session_id":"60622099f19211a56a5b025e"},{"rt":2350.6100000231527,"stimulus":"img/00581.png","slider_start":4,"response":4,"trial_type":"image-slider-response","trial_index":14,"time_elapsed":141304,"internal_node_id":"0.0-3.0-0.11","subject_id":"5fb5a0b59ba3a512d93382b7","study_id":"605e2a800ccfa0c8e820d869","session_id":"60622099f19211a56a5b025e"},{"rt":4597.710000001825,"stimulus":"img/00949.png","slider_start":4,"response":3,"trial_type":"image-slider-response","trial_index":15,"time_elapsed":145903,"internal_node_id":"0.0-3.0-0.12","subject_id":"5fb5a0b59ba3a512d93382b7","study_id":"605e2a800ccfa0c8e820d869","session_id":"60622099f19211a56a5b025e"},{"rt":8898.415000003297,"stimulus":"img/00418.png","slider_start":4,"response":3,"trial_type":"image-slider-response","trial_index":16,"time_elapsed":154803,"internal_node_id":"0.0-3.0-0.13","subject_id":"5fb5a0b59ba3a512d93382b7","study_id":"605e2a800ccfa0c8e820d869","session_id":"60622099f19211a56a5b025e"},{"rt":3781.295000051614,"stimulus":"img/00708.png","slider_start":4,"response":4,"trial_type":"image-slider-response","trial_index":17,"time_elapsed":158586,"internal_node_id":"0.0-3.0-0.14","subject_id":"5fb5a0b59ba3a512d93382b7","study_id":"605e2a800ccfa0c8e820d869","session_id":"60622099f19211a56a5b025e"},{"rt":1777.490000007674,"stimulus":"img/00928.png","slider_start":4,"response":4,"trial_type":"image-slider-response","trial_index":18,"time_elapsed":160365,"internal_node_id":"0.0-3.0-0.15","subject_id":"5fb5a0b59ba3a512d93382b7","study_id":"605e2a800ccfa0c8e820d869","session_id":"60622099f19211a56a5b025e"},{"rt":4687.604999984615,"stimulus":"img/00768.png","slider_start":4,"response":6,"trial_type":"image-slider-response","trial_index":19,"time_elapsed":165054,"internal_node_id":"0.0-3.0-0.16","subject_id":"5fb5a0b59ba3a512d93382b7","study_id":"605e2a800ccfa0c8e820d869","session_id":"60622099f19211a56a5b025e"},{"rt":3454.6449999907054,"stimulus":"img/00967.png","slider_start":4,"response":5,"trial_type":"image-slider-response","trial_index":20,"time_elapsed":168510,"internal_node_id":"0.0-3.0-0.17","subject_id":"5fb5a0b59ba3a512d93382b7","study_id":"605e2a800ccfa0c8e820d869","session_id":"60622099f19211a56a5b025e"},{"rt":2810.124999959953,"stimulus":"img/00686.png","slider_start":4,"response":4,"trial_type":"image-slider-response","trial_index":21,"time_elapsed":171321,"internal_node_id":"0.0-3.0-0.18","subject_id":"5fb5a0b59ba3a512d93382b7","study_id":"605e2a800ccfa0c8e820d869","session_id":"60622099f19211a56a5b025e"},{"rt":2762.2400000109337,"stimulus":"img/00507.png","slider_start":4,"response":4,"trial_type":"image-slider-response","trial_index":22,"time_elapsed":174085,"internal_node_id":"0.0-3.0-0.19","subject_id":"5fb5a0b59ba3a512d93382b7","study_id":"605e2a800ccfa0c8e820d869","session_id":"60622099f19211a56a5b025e"},{"rt":3055.8099999907427,"stimulus":"img/00122.png","slider_start":4,"response":6,"trial_type":"image-slider-response","trial_index":23,"time_elapsed":177142,"internal_node_id":"0.0-3.0-0.20","subject_id":"5fb5a0b59ba3a512d93382b7","study_id":"605e2a800ccfa0c8e820d869","session_id":"60622099f19211a56a5b025e"},{"rt":4009.66999999946,"stimulus":"img/00986.png","slider_start":4,"response":5,"trial_type":"image-slider-response","trial_index":24,"time_elapsed":181153,"internal_node_id":"0.0-3.0-0.21","subject_id":"5fb5a0b59ba3a512d93382b7","study_id":"605e2a800ccfa0c8e820d869","session_id":"60622099f19211a56a5b025e"},{"rt":2710.3750000242144,"stimulus":"img/00854.png","slider_start":4,"response":5,"trial_type":"image-slider-response","trial_index":25,"time_elapsed":183865,"internal_node_id":"0.0-3.0-0.22","subject_id":"5fb5a0b59ba3a512d93382b7","study_id":"605e2a800ccfa0c8e820d869","session_id":"60622099f19211a56a5b025e"},{"rt":1959.900000016205,"stimulus":"img/00460.png","slider_start":4,"response":4,"trial_type":"image-slider-response","trial_index":26,"time_elapsed":185826,"internal_node_id":"0.0-3.0-0.23","subject_id":"5fb5a0b59ba3a512d93382b7","study_id":"605e2a800ccfa0c8e820d869","session_id":"60622099f19211a56a5b025e"},{"rt":2638.6749999946915,"stimulus":"img/00029.png","slider_start":4,"response":3,"trial_type":"image-slider-response","trial_index":27,"time_elapsed":188465,"internal_node_id":"0.0-3.0-0.24","subject_id":"5fb5a0b59ba3a512d93382b7","study_id":"605e2a800ccfa0c8e820d869","session_id":"60622099f19211a56a5b025e"},{"rt":3374.850000021979,"stimulus":"img/00973.png","slider_start":4,"response":5,"trial_type":"image-slider-response","trial_index":28,"time_elapsed":191842,"internal_node_id":"0.0-3.0-0.25","subject_id":"5fb5a0b59ba3a512d93382b7","study_id":"605e2a800ccfa0c8e820d869","session_id":"60622099f19211a56a5b025e"},{"rt":2444.4099999964237,"stimulus":"img/00629.png","slider_start":4,"response":4,"trial_type":"image-slider-response","trial_index":29,"time_elapsed":194287,"internal_node_id":"0.0-3.0-0.26","subject_id":"5fb5a0b59ba3a512d93382b7","study_id":"605e2a800ccfa0c8e820d869","session_id":"60622099f19211a56a5b025e"},{"rt":2450.9499999694526,"stimulus":"img/00848.png","slider_start":4,"response":4,"trial_type":"image-slider-response","trial_index":30,"time_elapsed":196740,"internal_node_id":"0.0-3.0-0.27","subject_id":"5fb5a0b59ba3a512d93382b7","study_id":"605e2a800ccfa0c8e820d869","session_id":"60622099f19211a56a5b025e"},{"rt":3838.7600000132807,"stimulus":"img/00841.png","slider_start":4,"response":4,"trial_type":"image-slider-response","trial_index":31,"time_elapsed":200580,"internal_node_id":"0.0-3.0-0.28","subject_id":"5fb5a0b59ba3a512d93382b7","study_id":"605e2a800ccfa0c8e820d869","session_id":"60622099f19211a56a5b025e"},{"rt":9589.59499996854,"stimulus":"img/00481.png","slider_start":4,"response":2,"trial_type":"image-slider-response","trial_index":32,"time_elapsed":210171,"internal_node_id":"0.0-3.0-0.29","subject_id":"5fb5a0b59ba3a512d93382b7","study_id":"605e2a800ccfa0c8e820d869","session_id":"60622099f19211a56a5b025e"},{"rt":4277.314999955706,"stimulus":"img/00127.png","slider_start":4,"response":3,"trial_type":"image-slider-response","trial_index":33,"time_elapsed":214450,"internal_node_id":"0.0-3.0-0.30","subject_id":"5fb5a0b59ba3a512d93382b7","study_id":"605e2a800ccfa0c8e820d869","session_id":"60622099f19211a56a5b025e"},{"rt":4103.599999973085,"stimulus":"img/00833.png","slider_start":4,"response":3,"trial_type":"image-slider-response","trial_index":34,"time_elapsed":218555,"internal_node_id":"0.0-3.0-0.31","subject_id":"5fb5a0b59ba3a512d93382b7","study_id":"605e2a800ccfa0c8e820d869","session_id":"60622099f19211a56a5b025e"},{"rt":2238.6399999959394,"stimulus":"img/00631.png","slider_start":4,"response":5,"trial_type":"image-slider-response","trial_index":35,"time_elapsed":220795,"internal_node_id":"0.0-3.0-0.32","subject_id":"5fb5a0b59ba3a512d93382b7","study_id":"605e2a800ccfa0c8e820d869","session_id":"60622099f19211a56a5b025e"},{"rt":4115.724999981467,"stimulus":"img/00594.png","slider_start":4,"response":4,"trial_type":"image-slider-response","trial_index":36,"time_elapsed":224912,"internal_node_id":"0.0-3.0-0.33","subject_id":"5fb5a0b59ba3a512d93382b7","study_id":"605e2a800ccfa0c8e820d869","session_id":"60622099f19211a56a5b025e"},{"rt":3012.6000000163913,"stimulus":"img/00101.png","slider_start":4,"response":4,"trial_type":"image-slider-response","trial_index":37,"time_elapsed":227926,"internal_node_id":"0.0-3.0-0.34","subject_id":"5fb5a0b59ba3a512d93382b7","study_id":"605e2a800ccfa0c8e820d869","session_id":"60622099f19211a56a5b025e"},{"rt":2805.8600000222214,"stimulus":"img/00428.png","slider_start":4,"response":3,"trial_type":"image-slider-response","trial_index":38,"time_elapsed":230733,"internal_node_id":"0.0-3.0-0.35","subject_id":"5fb5a0b59ba3a512d93382b7","study_id":"605e2a800ccfa0c8e820d869","session_id":"60622099f19211a56a5b025e"},{"rt":5389.135000004899,"stimulus":"img/00045.png","slider_start":4,"response":4,"trial_type":"image-slider-response","trial_index":39,"time_elapsed":236124,"internal_node_id":"0.0-3.0-0.36","subject_id":"5fb5a0b59ba3a512d93382b7","study_id":"605e2a800ccfa0c8e820d869","session_id":"60622099f19211a56a5b025e"},{"rt":3415.945000015199,"stimulus":"img/00427.png","slider_start":4,"response":7,"trial_type":"image-slider-response","trial_index":40,"time_elapsed":239541,"internal_node_id":"0.0-3.0-0.37","subject_id":"5fb5a0b59ba3a512d93382b7","study_id":"605e2a800ccfa0c8e820d869","session_id":"60622099f19211a56a5b025e"},{"rt":4646.2899999460205,"stimulus":"img/00542.png","slider_start":4,"response":5,"trial_type":"image-slider-response","trial_index":41,"time_elapsed":244189,"internal_node_id":"0.0-3.0-0.38","subject_id":"5fb5a0b59ba3a512d93382b7","study_id":"605e2a800ccfa0c8e820d869","session_id":"60622099f19211a56a5b025e"},{"rt":4968.525000032969,"stimulus":"img/00926.png","slider_start":4,"response":6,"trial_type":"image-slider-response","trial_index":42,"time_elapsed":249159,"internal_node_id":"0.0-3.0-0.39","subject_id":"5fb5a0b59ba3a512d93382b7","study_id":"605e2a800ccfa0c8e820d869","session_id":"60622099f19211a56a5b025e"},{"rt":2600.5700000096112,"stimulus":"img/00810.png","slider_start":4,"response":5,"trial_type":"image-slider-response","trial_index":43,"time_elapsed":251761,"internal_node_id":"0.0-3.0-0.40","subject_id":"5fb5a0b59ba3a512d93382b7","study_id":"605e2a800ccfa0c8e820d869","session_id":"60622099f19211a56a5b025e"},{"rt":3270.7850000006147,"stimulus":"img/00995.png","slider_start":4,"response":5,"trial_type":"image-slider-response","trial_index":44,"time_elapsed":255033,"internal_node_id":"0.0-3.0-0.41","subject_id":"5fb5a0b59ba3a512d93382b7","study_id":"605e2a800ccfa0c8e820d869","session_id":"60622099f19211a56a5b025e"},{"rt":3489.4700000295416,"stimulus":"img/00504.png","slider_start":4,"response":4,"trial_type":"image-slider-response","trial_index":45,"time_elapsed":258524,"internal_node_id":"0.0-3.0-0.42","subject_id":"5fb5a0b59ba3a512d93382b7","study_id":"605e2a800ccfa0c8e820d869","session_id":"60622099f19211a56a5b025e"},{"rt":2199.480000010226,"stimulus":"img/00691.png","slider_start":4,"response":4,"trial_type":"image-slider-response","trial_index":46,"time_elapsed":260725,"internal_node_id":"0.0-3.0-0.43","subject_id":"5fb5a0b59ba3a512d93382b7","study_id":"605e2a800ccfa0c8e820d869","session_id":"60622099f19211a56a5b025e"},{"rt":2480.8649999904446,"stimulus":"img/00623.png","slider_start":4,"response":5,"trial_type":"image-slider-response","trial_index":47,"time_elapsed":263207,"internal_node_id":"0.0-3.0-0.44","subject_id":"5fb5a0b59ba3a512d93382b7","study_id":"605e2a800ccfa0c8e820d869","session_id":"60622099f19211a56a5b025e"},{"rt":2634.8049999796785,"stimulus":"img/00756.png","slider_start":4,"response":5,"trial_type":"image-slider-response","trial_index":48,"time_elapsed":265843,"internal_node_id":"0.0-3.0-0.45","subject_id":"5fb5a0b59ba3a512d93382b7","study_id":"605e2a800ccfa0c8e820d869","session_id":"60622099f19211a56a5b025e"},{"rt":4468.585000024177,"stimulus":"img/00042.png","slider_start":4,"response":5,"trial_type":"image-slider-response","trial_index":49,"time_elapsed":270313,"internal_node_id":"0.0-3.0-0.46","subject_id":"5fb5a0b59ba3a512d93382b7","study_id":"605e2a800ccfa0c8e820d869","session_id":"60622099f19211a56a5b025e"},{"rt":3207.479999982752,"stimulus":"img/00405.png","slider_start":4,"response":5,"trial_type":"image-slider-response","trial_index":50,"time_elapsed":273522,"internal_node_id":"0.0-3.0-0.47","subject_id":"5fb5a0b59ba3a512d93382b7","study_id":"605e2a800ccfa0c8e820d869","session_id":"60622099f19211a56a5b025e"},{"rt":2347.81499998644,"stimulus":"img/00002.png","slider_start":4,"response":4,"trial_type":"image-slider-response","trial_index":51,"time_elapsed":275871,"internal_node_id":"0.0-3.0-0.48","subject_id":"5fb5a0b59ba3a512d93382b7","study_id":"605e2a800ccfa0c8e820d869","session_id":"60622099f19211a56a5b025e"},{"rt":5067.609999969136,"stimulus":"img/00437.png","slider_start":4,"response":3,"trial_type":"image-slider-response","trial_index":52,"time_elapsed":280940,"internal_node_id":"0.0-3.0-0.49","subject_id":"5fb5a0b59ba3a512d93382b7","study_id":"605e2a800ccfa0c8e820d869","session_id":"60622099f19211a56a5b025e"},{"rt":3760.6099999975413,"stimulus":"img/00415.png","slider_start":4,"response":3,"trial_type":"image-slider-response","trial_index":53,"time_elapsed":284702,"internal_node_id":"0.0-3.0-0.50","subject_id":"5fb5a0b59ba3a512d93382b7","study_id":"605e2a800ccfa0c8e820d869","session_id":"60622099f19211a56a5b025e"},{"rt":4051.579999970272,"stimulus":"img/00472.png","slider_start":4,"response":5,"trial_type":"image-slider-response","trial_index":54,"time_elapsed":288755,"internal_node_id":"0.0-3.0-0.51","subject_id":"5fb5a0b59ba3a512d93382b7","study_id":"605e2a800ccfa0c8e820d869","session_id":"60622099f19211a56a5b025e"},{"rt":3137.5549999647774,"stimulus":"img/00511.png","slider_start":4,"response":5,"trial_type":"image-slider-response","trial_index":55,"time_elapsed":291894,"internal_node_id":"0.0-3.0-0.52","subject_id":"5fb5a0b59ba3a512d93382b7","study_id":"605e2a800ccfa0c8e820d869","session_id":"60622099f19211a56a5b025e"},{"rt":3856.599999999162,"stimulus":"img/00791.png","slider_start":4,"response":3,"trial_type":"image-slider-response","trial_index":56,"time_elapsed":295751,"internal_node_id":"0.0-3.0-0.53","subject_id":"5fb5a0b59ba3a512d93382b7","study_id":"605e2a800ccfa0c8e820d869","session_id":"60622099f19211a56a5b025e"},{"rt":5240.700000023935,"stimulus":"img/00653.png","slider_start":4,"response":3,"trial_type":"image-slider-response","trial_index":57,"time_elapsed":300994,"internal_node_id":"0.0-3.0-0.54","subject_id":"5fb5a0b59ba3a512d93382b7","study_id":"605e2a800ccfa0c8e820d869","session_id":"60622099f19211a56a5b025e"},{"rt":2241.4150000549853,"stimulus":"img/00549.png","slider_start":4,"response":5,"trial_type":"image-slider-response","trial_index":58,"time_elapsed":303236,"internal_node_id":"0.0-3.0-0.55","subject_id":"5fb5a0b59ba3a512d93382b7","study_id":"605e2a800ccfa0c8e820d869","session_id":"60622099f19211a56a5b025e"},{"rt":5775.804999982938,"stimulus":"img/00779.png","slider_start":4,"response":2,"trial_type":"image-slider-response","trial_index":59,"time_elapsed":309014,"internal_node_id":"0.0-3.0-0.56","subject_id":"5fb5a0b59ba3a512d93382b7","study_id":"605e2a800ccfa0c8e820d869","session_id":"60622099f19211a56a5b025e"},{"rt":3865.4849999584258,"stimulus":"img/00037.png","slider_start":4,"response":3,"trial_type":"image-slider-response","trial_index":60,"time_elapsed":312880,"internal_node_id":"0.0-3.0-0.57","subject_id":"5fb5a0b59ba3a512d93382b7","study_id":"605e2a800ccfa0c8e820d869","session_id":"60622099f19211a56a5b025e"},{"rt":4616.42999999458,"stimulus":"img/00693.png","slider_start":4,"response":3,"trial_type":"image-slider-response","trial_index":61,"time_elapsed":317498,"internal_node_id":"0.0-3.0-0.58","subject_id":"5fb5a0b59ba3a512d93382b7","study_id":"605e2a800ccfa0c8e820d869","session_id":"60622099f19211a56a5b025e"},{"rt":6138.480000023264,"stimulus":"img/00850.png","slider_start":4,"response":4,"trial_type":"image-slider-response","trial_index":62,"time_elapsed":323638,"internal_node_id":"0.0-3.0-0.59","subject_id":"5fb5a0b59ba3a512d93382b7","study_id":"605e2a800ccfa0c8e820d869","session_id":"60622099f19211a56a5b025e"},{"rt":2933.405000017956,"stimulus":"img/00982.png","slider_start":4,"response":3,"trial_type":"image-slider-response","trial_index":63,"time_elapsed":326573,"internal_node_id":"0.0-3.0-0.60","subject_id":"5fb5a0b59ba3a512d93382b7","study_id":"605e2a800ccfa0c8e820d869","session_id":"60622099f19211a56a5b025e"},{"rt":4941.575000004377,"stimulus":"img/00809.png","slider_start":4,"response":4,"trial_type":"image-slider-response","trial_index":64,"time_elapsed":331516,"internal_node_id":"0.0-3.0-0.61","subject_id":"5fb5a0b59ba3a512d93382b7","study_id":"605e2a800ccfa0c8e820d869","session_id":"60622099f19211a56a5b025e"},{"rt":5526.54499997152,"stimulus":"img/00483.png","slider_start":4,"response":4,"trial_type":"image-slider-response","trial_index":65,"time_elapsed":337044,"internal_node_id":"0.0-3.0-0.62","subject_id":"5fb5a0b59ba3a512d93382b7","study_id":"605e2a800ccfa0c8e820d869","session_id":"60622099f19211a56a5b025e"},{"rt":1935.4500000481494,"stimulus":"img/00413.png","slider_start":4,"response":4,"trial_type":"image-slider-response","trial_index":66,"time_elapsed":338981,"internal_node_id":"0.0-3.0-0.63","subject_id":"5fb5a0b59ba3a512d93382b7","study_id":"605e2a800ccfa0c8e820d869","session_id":"60622099f19211a56a5b025e"},{"rt":3373.874999990221,"stimulus":"img/00479.png","slider_start":4,"response":5,"trial_type":"image-slider-response","trial_index":67,"time_elapsed":342357,"internal_node_id":"0.0-3.0-0.64","subject_id":"5fb5a0b59ba3a512d93382b7","study_id":"605e2a800ccfa0c8e820d869","session_id":"60622099f19211a56a5b025e"},{"rt":4806.365000025835,"stimulus":"img/00853.png","slider_start":4,"response":4,"trial_type":"image-slider-response","trial_index":68,"time_elapsed":347164,"internal_node_id":"0.0-3.0-0.65","subject_id":"5fb5a0b59ba3a512d93382b7","study_id":"605e2a800ccfa0c8e820d869","session_id":"60622099f19211a56a5b025e"},{"rt":3089.655000017956,"stimulus":"img/00041.png","slider_start":4,"response":6,"trial_type":"image-slider-response","trial_index":69,"time_elapsed":350255,"internal_node_id":"0.0-3.0-0.66","subject_id":"5fb5a0b59ba3a512d93382b7","study_id":"605e2a800ccfa0c8e820d869","session_id":"60622099f19211a56a5b025e"},{"rt":3188.735000032466,"stimulus":"img/00690.png","slider_start":4,"response":5,"trial_type":"image-slider-response","trial_index":70,"time_elapsed":353445,"internal_node_id":"0.0-3.0-0.67","subject_id":"5fb5a0b59ba3a512d93382b7","study_id":"605e2a800ccfa0c8e820d869","session_id":"60622099f19211a56a5b025e"},{"rt":3139.560000039637,"stimulus":"img/00432.png","slider_start":4,"response":6,"trial_type":"image-slider-response","trial_index":71,"time_elapsed":356587,"internal_node_id":"0.0-3.0-0.68","subject_id":"5fb5a0b59ba3a512d93382b7","study_id":"605e2a800ccfa0c8e820d869","session_id":"60622099f19211a56a5b025e"},{"rt":2464.460000046529,"stimulus":"img/00747.png","slider_start":4,"response":4,"trial_type":"image-slider-response","trial_index":72,"time_elapsed":359053,"internal_node_id":"0.0-3.0-0.69","subject_id":"5fb5a0b59ba3a512d93382b7","study_id":"605e2a800ccfa0c8e820d869","session_id":"60622099f19211a56a5b025e"},{"rt":3087.7150000305846,"stimulus":"img/00100.png","slider_start":4,"response":5,"trial_type":"image-slider-response","trial_index":73,"time_elapsed":362142,"internal_node_id":"0.0-3.0-0.70","subject_id":"5fb5a0b59ba3a512d93382b7","study_id":"605e2a800ccfa0c8e820d869","session_id":"60622099f19211a56a5b025e"},{"rt":2736.7450000019744,"stimulus":"img/00440.png","slider_start":4,"response":3,"trial_type":"image-slider-response","trial_index":74,"time_elapsed":364880,"internal_node_id":"0.0-3.0-0.71","subject_id":"5fb5a0b59ba3a512d93382b7","study_id":"605e2a800ccfa0c8e820d869","session_id":"60622099f19211a56a5b025e"},{"rt":3740.425000025425,"stimulus":"img/00825.png","slider_start":4,"response":3,"trial_type":"image-slider-response","trial_index":75,"time_elapsed":368622,"internal_node_id":"0.0-3.0-0.72","subject_id":"5fb5a0b59ba3a512d93382b7","study_id":"605e2a800ccfa0c8e820d869","session_id":"60622099f19211a56a5b025e"},{"rt":1926.7949999775738,"stimulus":"img/00424.png","slider_start":4,"response":4,"trial_type":"image-slider-response","trial_index":76,"time_elapsed":370550,"internal_node_id":"0.0-3.0-0.73","subject_id":"5fb5a0b59ba3a512d93382b7","study_id":"605e2a800ccfa0c8e820d869","session_id":"60622099f19211a56a5b025e"},{"rt":3227.569999988191,"stimulus":"img/00587.png","slider_start":4,"response":5,"trial_type":"image-slider-response","trial_index":77,"time_elapsed":373779,"internal_node_id":"0.0-3.0-0.74","subject_id":"5fb5a0b59ba3a512d93382b7","study_id":"605e2a800ccfa0c8e820d869","session_id":"60622099f19211a56a5b025e"},{"rt":5631.930000032298,"stimulus":"img/00764.png","slider_start":4,"response":4,"trial_type":"image-slider-response","trial_index":78,"time_elapsed":379412,"internal_node_id":"0.0-3.0-0.75","subject_id":"5fb5a0b59ba3a512d93382b7","study_id":"605e2a800ccfa0c8e820d869","session_id":"60622099f19211a56a5b025e"},{"rt":2675.4349999828264,"stimulus":"img/00989.png","slider_start":4,"response":4,"trial_type":"image-slider-response","trial_index":79,"time_elapsed":382089,"internal_node_id":"0.0-3.0-0.76","subject_id":"5fb5a0b59ba3a512d93382b7","study_id":"605e2a800ccfa0c8e820d869","session_id":"60622099f19211a56a5b025e"},{"rt":6402.875000028871,"stimulus":"img/00554.png","slider_start":4,"response":4,"trial_type":"image-slider-response","trial_index":80,"time_elapsed":388493,"internal_node_id":"0.0-3.0-0.77","subject_id":"5fb5a0b59ba3a512d93382b7","study_id":"605e2a800ccfa0c8e820d869","session_id":"60622099f19211a56a5b025e"},{"rt":6647.415000014007,"stimulus":"img/00759.png","slider_start":4,"response":4,"trial_type":"image-slider-response","trial_index":81,"time_elapsed":395142,"internal_node_id":"0.0-3.0-0.78","subject_id":"5fb5a0b59ba3a512d93382b7","study_id":"605e2a800ccfa0c8e820d869","session_id":"60622099f19211a56a5b025e"},{"rt":2484.389999997802,"stimulus":"img/00576.png","slider_start":4,"response":6,"trial_type":"image-slider-response","trial_index":82,"time_elapsed":397628,"internal_node_id":"0.0-3.0-0.79","subject_id":"5fb5a0b59ba3a512d93382b7","study_id":"605e2a800ccfa0c8e820d869","session_id":"60622099f19211a56a5b025e"},{"rt":3059.6499999519438,"stimulus":"img/00064.png","slider_start":4,"response":3,"trial_type":"image-slider-response","trial_index":83,"time_elapsed":400688,"internal_node_id":"0.0-3.0-0.80","subject_id":"5fb5a0b59ba3a512d93382b7","study_id":"605e2a800ccfa0c8e820d869","session_id":"60622099f19211a56a5b025e"},{"rt":6507.585000013933,"stimulus":"img/00508.png","slider_start":4,"response":5,"trial_type":"image-slider-response","trial_index":84,"time_elapsed":407198,"internal_node_id":"0.0-3.0-0.81","subject_id":"5fb5a0b59ba3a512d93382b7","study_id":"605e2a800ccfa0c8e820d869","session_id":"60622099f19211a56a5b025e"},{"rt":2841.644999978598,"stimulus":"img/00105.png","slider_start":4,"response":4,"trial_type":"image-slider-response","trial_index":85,"time_elapsed":410041,"internal_node_id":"0.0-3.0-0.82","subject_id":"5fb5a0b59ba3a512d93382b7","study_id":"605e2a800ccfa0c8e820d869","session_id":"60622099f19211a56a5b025e"},{"rt":2666.7000000015832,"stimulus":"img/00790.png","slider_start":4,"response":3,"trial_type":"image-slider-response","trial_index":86,"time_elapsed":412709,"internal_node_id":"0.0-3.0-0.83","subject_id":"5fb5a0b59ba3a512d93382b7","study_id":"605e2a800ccfa0c8e820d869","session_id":"60622099f19211a56a5b025e"},{"rt":2720.629999996163,"stimulus":"img/00722.png","slider_start":4,"response":4,"trial_type":"image-slider-response","trial_index":87,"time_elapsed":415431,"internal_node_id":"0.0-3.0-0.84","subject_id":"5fb5a0b59ba3a512d93382b7","study_id":"605e2a800ccfa0c8e820d869","session_id":"60622099f19211a56a5b025e"},{"rt":2641.669999982696,"stimulus":"img/00126.png","slider_start":4,"response":3,"trial_type":"image-slider-response","trial_index":88,"time_elapsed":418074,"internal_node_id":"0.0-3.0-0.85","subject_id":"5fb5a0b59ba3a512d93382b7","study_id":"605e2a800ccfa0c8e820d869","session_id":"60622099f19211a56a5b025e"},{"rt":4384.729999990668,"stimulus":"img/00077.png","slider_start":4,"response":3,"trial_type":"image-slider-response","trial_index":89,"time_elapsed":422460,"internal_node_id":"0.0-3.0-0.86","subject_id":"5fb5a0b59ba3a512d93382b7","study_id":"605e2a800ccfa0c8e820d869","session_id":"60622099f19211a56a5b025e"},{"rt":4313.155000039842,"stimulus":"img/00404.png","slider_start":4,"response":3,"trial_type":"image-slider-response","trial_index":90,"time_elapsed":426774,"internal_node_id":"0.0-3.0-0.87","subject_id":"5fb5a0b59ba3a512d93382b7","study_id":"605e2a800ccfa0c8e820d869","session_id":"60622099f19211a56a5b025e"},{"rt":1377.764999982901,"stimulus":"img/00079.png","slider_start":4,"response":4,"trial_type":"image-slider-response","trial_index":91,"time_elapsed":428154,"internal_node_id":"0.0-3.0-0.88","subject_id":"5fb5a0b59ba3a512d93382b7","study_id":"605e2a800ccfa0c8e820d869","session_id":"60622099f19211a56a5b025e"},{"rt":19452.769999974407,"stimulus":"img/00688.png","slider_start":4,"response":4,"trial_type":"image-slider-response","trial_index":92,"time_elapsed":447608,"internal_node_id":"0.0-3.0-0.89","subject_id":"5fb5a0b59ba3a512d93382b7","study_id":"605e2a800ccfa0c8e820d869","session_id":"60622099f19211a56a5b025e"},{"rt":3074.5049999677576,"stimulus":"img/00998.png","slider_start":4,"response":4,"trial_type":"image-slider-response","trial_index":93,"time_elapsed":450684,"internal_node_id":"0.0-3.0-0.90","subject_id":"5fb5a0b59ba3a512d93382b7","study_id":"605e2a800ccfa0c8e820d869","session_id":"60622099f19211a56a5b025e"},{"rt":2607.8400000114925,"stimulus":"img/00603.png","slider_start":4,"response":4,"trial_type":"image-slider-response","trial_index":94,"time_elapsed":453293,"internal_node_id":"0.0-3.0-0.91","subject_id":"5fb5a0b59ba3a512d93382b7","study_id":"605e2a800ccfa0c8e820d869","session_id":"60622099f19211a56a5b025e"},{"rt":8672.610000008717,"stimulus":"img/00406.png","slider_start":4,"response":5,"trial_type":"image-slider-response","trial_index":95,"time_elapsed":461967,"internal_node_id":"0.0-3.0-0.92","subject_id":"5fb5a0b59ba3a512d93382b7","study_id":"605e2a800ccfa0c8e820d869","session_id":"60622099f19211a56a5b025e"},{"rt":8081.540000042878,"stimulus":"img/00503.png","slider_start":4,"response":4,"trial_type":"image-slider-response","trial_index":96,"time_elapsed":470050,"internal_node_id":"0.0-3.0-0.93","subject_id":"5fb5a0b59ba3a512d93382b7","study_id":"605e2a800ccfa0c8e820d869","session_id":"60622099f19211a56a5b025e"},{"rt":6649.494999961462,"stimulus":"img/00499.png","slider_start":4,"response":3,"trial_type":"image-slider-response","trial_index":97,"time_elapsed":476701,"internal_node_id":"0.0-3.0-0.94","subject_id":"5fb5a0b59ba3a512d93382b7","study_id":"605e2a800ccfa0c8e820d869","session_id":"60622099f19211a56a5b025e"},{"rt":7449.480000010226,"stimulus":"img/00689.png","slider_start":4,"response":4,"trial_type":"image-slider-response","trial_index":98,"time_elapsed":484152,"internal_node_id":"0.0-3.0-0.95","subject_id":"5fb5a0b59ba3a512d93382b7","study_id":"605e2a800ccfa0c8e820d869","session_id":"60622099f19211a56a5b025e"},{"rt":11387.4599999981,"stimulus":"img/40.png","slider_start":4,"response":4,"trial_type":"image-slider-response","trial_index":99,"time_elapsed":495541,"internal_node_id":"0.0-3.0-0.96","subject_id":"5fb5a0b59ba3a512d93382b7","study_id":"605e2a800ccfa0c8e820d869","session_id":"60622099f19211a56a5b025e"},{"rt":22900.489999970887,"stimulus":"img/00903.png","slider_start":4,"response":5,"trial_type":"image-slider-response","trial_index":100,"time_elapsed":518443,"internal_node_id":"0.0-3.0-0.97","subject_id":"5fb5a0b59ba3a512d93382b7","study_id":"605e2a800ccfa0c8e820d869","session_id":"60622099f19211a56a5b025e"},{"rt":4805.399999953806,"stimulus":"img/00570.png","slider_start":4,"response":4,"trial_type":"image-slider-response","trial_index":101,"time_elapsed":523250,"internal_node_id":"0.0-3.0-0.98","subject_id":"5fb5a0b59ba3a512d93382b7","study_id":"605e2a800ccfa0c8e820d869","session_id":"60622099f19211a56a5b025e"},{"rt":5406.544999976177,"stimulus":"img/00559.png","slider_start":4,"response":3,"trial_type":"image-slider-response","trial_index":102,"time_elapsed":528658,"internal_node_id":"0.0-3.0-0.99","subject_id":"5fb5a0b59ba3a512d93382b7","study_id":"605e2a800ccfa0c8e820d869","session_id":"60622099f19211a56a5b025e"},{"rt":2579.535000026226,"stimulus":"img/00644.png","slider_start":4,"response":4,"trial_type":"image-slider-response","trial_index":103,"time_elapsed":531239,"internal_node_id":"0.0-3.0-0.100","subject_id":"5fb5a0b59ba3a512d93382b7","study_id":"605e2a800ccfa0c8e820d869","session_id":"60622099f19211a56a5b025e"},{"rt":4858.720000018366,"stimulus":"img/00760.png","slider_start":4,"response":5,"trial_type":"image-slider-response","trial_index":104,"time_elapsed":536099,"internal_node_id":"0.0-3.0-0.101","subject_id":"5fb5a0b59ba3a512d93382b7","study_id":"605e2a800ccfa0c8e820d869","session_id":"60622099f19211a56a5b025e"},{"rt":3200.4500000039116,"stimulus":"img/00012.png","slider_start":4,"response":3,"trial_type":"image-slider-response","trial_index":105,"time_elapsed":539301,"internal_node_id":"0.0-3.0-0.102","subject_id":"5fb5a0b59ba3a512d93382b7","study_id":"605e2a800ccfa0c8e820d869","session_id":"60622099f19211a56a5b025e"},{"rt":7334.640000015497,"stimulus":"img/00082.png","slider_start":4,"response":4,"trial_type":"image-slider-response","trial_index":106,"time_elapsed":546637,"internal_node_id":"0.0-3.0-0.103","subject_id":"5fb5a0b59ba3a512d93382b7","study_id":"605e2a800ccfa0c8e820d869","session_id":"60622099f19211a56a5b025e"},{"rt":7709.419999970123,"stimulus":"img/00718.png","slider_start":4,"response":3,"trial_type":"image-slider-response","trial_index":107,"time_elapsed":554348,"internal_node_id":"0.0-3.0-0.104","subject_id":"5fb5a0b59ba3a512d93382b7","study_id":"605e2a800ccfa0c8e820d869","session_id":"60622099f19211a56a5b025e"},{"rt":5480.504999984987,"stimulus":"img/00018.png","slider_start":4,"response":4,"trial_type":"image-slider-response","trial_index":108,"time_elapsed":559830,"internal_node_id":"0.0-3.0-0.105","subject_id":"5fb5a0b59ba3a512d93382b7","study_id":"605e2a800ccfa0c8e820d869","session_id":"60622099f19211a56a5b025e"},{"rt":3809.484999976121,"stimulus":"img/00618.png","slider_start":4,"response":5,"trial_type":"image-slider-response","trial_index":109,"time_elapsed":563641,"internal_node_id":"0.0-3.0-0.106","subject_id":"5fb5a0b59ba3a512d93382b7","study_id":"605e2a800ccfa0c8e820d869","session_id":"60622099f19211a56a5b025e"},{"rt":2932.540000008885,"stimulus":"img/00438.png","slider_start":4,"response":3,"trial_type":"image-slider-response","trial_index":110,"time_elapsed":566575,"internal_node_id":"0.0-3.0-0.107","subject_id":"5fb5a0b59ba3a512d93382b7","study_id":"605e2a800ccfa0c8e820d869","session_id":"60622099f19211a56a5b025e"},{"rt":3034.4899999909103,"stimulus":"img/00752.png","slider_start":4,"response":3,"trial_type":"image-slider-response","trial_index":111,"time_elapsed":569611,"internal_node_id":"0.0-3.0-0.108","subject_id":"5fb5a0b59ba3a512d93382b7","study_id":"605e2a800ccfa0c8e820d869","session_id":"60622099f19211a56a5b025e"},{"rt":2231.854999961797,"stimulus":"img/00755.png","slider_start":4,"response":4,"trial_type":"image-slider-response","trial_index":112,"time_elapsed":571844,"internal_node_id":"0.0-3.0-0.109","subject_id":"5fb5a0b59ba3a512d93382b7","study_id":"605e2a800ccfa0c8e820d869","session_id":"60622099f19211a56a5b025e"},{"rt":2953.8700000266545,"stimulus":"img/00860.png","slider_start":4,"response":3,"trial_type":"image-slider-response","trial_index":113,"time_elapsed":574799,"internal_node_id":"0.0-3.0-0.110","subject_id":"5fb5a0b59ba3a512d93382b7","study_id":"605e2a800ccfa0c8e820d869","session_id":"60622099f19211a56a5b025e"},{"rt":3405.3050000220537,"stimulus":"img/00817.png","slider_start":4,"response":3,"trial_type":"image-slider-response","trial_index":114,"time_elapsed":578206,"internal_node_id":"0.0-3.0-0.111","subject_id":"5fb5a0b59ba3a512d93382b7","study_id":"605e2a800ccfa0c8e820d869","session_id":"60622099f19211a56a5b025e"},{"rt":2141.780000005383,"stimulus":"img/00439.png","slider_start":4,"response":3,"trial_type":"image-slider-response","trial_index":115,"time_elapsed":580349,"internal_node_id":"0.0-3.0-0.112","subject_id":"5fb5a0b59ba3a512d93382b7","study_id":"605e2a800ccfa0c8e820d869","session_id":"60622099f19211a56a5b025e"},{"rt":2995.7399999839254,"stimulus":"img/00797.png","slider_start":4,"response":3,"trial_type":"image-slider-response","trial_index":116,"time_elapsed":583346,"internal_node_id":"0.0-3.0-0.113","subject_id":"5fb5a0b59ba3a512d93382b7","study_id":"605e2a800ccfa0c8e820d869","session_id":"60622099f19211a56a5b025e"},{"rt":2481.5449999878183,"stimulus":"img/00956.png","slider_start":4,"response":4,"trial_type":"image-slider-response","trial_index":117,"time_elapsed":585829,"internal_node_id":"0.0-3.0-0.114","subject_id":"5fb5a0b59ba3a512d93382b7","study_id":"605e2a800ccfa0c8e820d869","session_id":"60622099f19211a56a5b025e"},{"rt":4629.639999999199,"stimulus":"img/00913.png","slider_start":4,"response":3,"trial_type":"image-slider-response","trial_index":118,"time_elapsed":590460,"internal_node_id":"0.0-3.0-0.115","subject_id":"5fb5a0b59ba3a512d93382b7","study_id":"605e2a800ccfa0c8e820d869","session_id":"60622099f19211a56a5b025e"},{"rt":7354.524999973364,"stimulus":"img/00902.png","slider_start":4,"response":5,"trial_type":"image-slider-response","trial_index":119,"time_elapsed":597815,"internal_node_id":"0.0-3.0-0.116","subject_id":"5fb5a0b59ba3a512d93382b7","study_id":"605e2a800ccfa0c8e820d869","session_id":"60622099f19211a56a5b025e"},{"rt":2945.5249999882653,"stimulus":"img/00811.png","slider_start":4,"response":4,"trial_type":"image-slider-response","trial_index":120,"time_elapsed":600763,"internal_node_id":"0.0-3.0-0.117","subject_id":"5fb5a0b59ba3a512d93382b7","study_id":"605e2a800ccfa0c8e820d869","session_id":"60622099f19211a56a5b025e"},{"rt":10805.500000016764,"stimulus":"img/00016.png","slider_start":4,"response":3,"trial_type":"image-slider-response","trial_index":121,"time_elapsed":611569,"internal_node_id":"0.0-3.0-0.118","subject_id":"5fb5a0b59ba3a512d93382b7","study_id":"605e2a800ccfa0c8e820d869","session_id":"60622099f19211a56a5b025e"},{"rt":7465.445000038017,"stimulus":"img/00401.png","slider_start":4,"response":6,"trial_type":"image-slider-response","trial_index":122,"time_elapsed":619037,"internal_node_id":"0.0-3.0-0.119","subject_id":"5fb5a0b59ba3a512d93382b7","study_id":"605e2a800ccfa0c8e820d869","session_id":"60622099f19211a56a5b025e"},{"rt":3630.4349999991246,"stimulus":"img/00879.png","slider_start":4,"response":5,"trial_type":"image-slider-response","trial_index":123,"time_elapsed":622668,"internal_node_id":"0.0-3.0-0.120","subject_id":"5fb5a0b59ba3a512d93382b7","study_id":"605e2a800ccfa0c8e820d869","session_id":"60622099f19211a56a5b025e"},{"rt":14994.435000000522,"stimulus":"img/00785.png","slider_start":4,"response":5,"trial_type":"image-slider-response","trial_index":124,"time_elapsed":637664,"internal_node_id":"0.0-3.0-0.121","subject_id":"5fb5a0b59ba3a512d93382b7","study_id":"605e2a800ccfa0c8e820d869","session_id":"60622099f19211a56a5b025e"},{"rt":6099.549999984447,"stimulus":"img/00464.png","slider_start":4,"response":4,"trial_type":"image-slider-response","trial_index":125,"time_elapsed":643766,"internal_node_id":"0.0-3.0-0.122","subject_id":"5fb5a0b59ba3a512d93382b7","study_id":"605e2a800ccfa0c8e820d869","session_id":"60622099f19211a56a5b025e"},{"rt":24267.370000015944,"stimulus":"img/00011.png","slider_start":4,"response":4,"trial_type":"image-slider-response","trial_index":126,"time_elapsed":668035,"internal_node_id":"0.0-3.0-0.123","subject_id":"5fb5a0b59ba3a512d93382b7","study_id":"605e2a800ccfa0c8e820d869","session_id":"60622099f19211a56a5b025e"},{"rt":2736.5350000327453,"stimulus":"img/00456.png","slider_start":4,"response":4,"trial_type":"image-slider-response","trial_index":127,"time_elapsed":670773,"internal_node_id":"0.0-3.0-0.124","subject_id":"5fb5a0b59ba3a512d93382b7","study_id":"605e2a800ccfa0c8e820d869","session_id":"60622099f19211a56a5b025e"},{"rt":26294.620000000577,"stimulus":"img/00761.png","slider_start":4,"response":4,"trial_type":"image-slider-response","trial_index":128,"time_elapsed":697069,"internal_node_id":"0.0-3.0-0.125","subject_id":"5fb5a0b59ba3a512d93382b7","study_id":"605e2a800ccfa0c8e820d869","session_id":"60622099f19211a56a5b025e"},{"rt":5646.224999974947,"stimulus":"img/00898.png","slider_start":4,"response":3,"trial_type":"image-slider-response","trial_index":129,"time_elapsed":702717,"internal_node_id":"0.0-3.0-0.126","subject_id":"5fb5a0b59ba3a512d93382b7","study_id":"605e2a800ccfa0c8e820d869","session_id":"60622099f19211a56a5b025e"},{"rt":9561.639999970794,"stimulus":"img/00748.png","slider_start":4,"response":4,"trial_type":"image-slider-response","trial_index":130,"time_elapsed":712280,"internal_node_id":"0.0-3.0-0.127","subject_id":"5fb5a0b59ba3a512d93382b7","study_id":"605e2a800ccfa0c8e820d869","session_id":"60622099f19211a56a5b025e"},{"rt":4826.310000033118,"stimulus":"img/00114.png","slider_start":4,"response":3,"trial_type":"image-slider-response","trial_index":131,"time_elapsed":717108,"internal_node_id":"0.0-3.0-0.128","subject_id":"5fb5a0b59ba3a512d93382b7","study_id":"605e2a800ccfa0c8e820d869","session_id":"60622099f19211a56a5b025e"},{"rt":3605.5899999919347,"stimulus":"img/00815.png","slider_start":4,"response":5,"trial_type":"image-slider-response","trial_index":132,"time_elapsed":720715,"internal_node_id":"0.0-3.0-0.129","subject_id":"5fb5a0b59ba3a512d93382b7","study_id":"605e2a800ccfa0c8e820d869","session_id":"60622099f19211a56a5b025e"},{"rt":8451.404999999795,"stimulus":"img/00773.png","slider_start":4,"response":5,"trial_type":"image-slider-response","trial_index":133,"time_elapsed":729168,"internal_node_id":"0.0-3.0-0.130","subject_id":"5fb5a0b59ba3a512d93382b7","study_id":"605e2a800ccfa0c8e820d869","session_id":"60622099f19211a56a5b025e"},{"rt":3046.4849999989383,"stimulus":"img/00130.png","slider_start":4,"response":4,"trial_type":"image-slider-response","trial_index":134,"time_elapsed":732216,"internal_node_id":"0.0-3.0-0.131","subject_id":"5fb5a0b59ba3a512d93382b7","study_id":"605e2a800ccfa0c8e820d869","session_id":"60622099f19211a56a5b025e"},{"rt":5953.639999963343,"stimulus":"img/00600.png","slider_start":4,"response":4,"trial_type":"image-slider-response","trial_index":135,"time_elapsed":738171,"internal_node_id":"0.0-3.0-0.132","subject_id":"5fb5a0b59ba3a512d93382b7","study_id":"605e2a800ccfa0c8e820d869","session_id":"60622099f19211a56a5b025e"},{"rt":2684.6350000123493,"stimulus":"img/00878.png","slider_start":4,"response":3,"trial_type":"image-slider-response","trial_index":136,"time_elapsed":740857,"internal_node_id":"0.0-3.0-0.133","subject_id":"5fb5a0b59ba3a512d93382b7","study_id":"605e2a800ccfa0c8e820d869","session_id":"60622099f19211a56a5b025e"},{"rt":8640.439999988303,"stimulus":"img/00023.png","slider_start":4,"response":4,"trial_type":"image-slider-response","trial_index":137,"time_elapsed":749499,"internal_node_id":"0.0-3.0-0.134","subject_id":"5fb5a0b59ba3a512d93382b7","study_id":"605e2a800ccfa0c8e820d869","session_id":"60622099f19211a56a5b025e"},{"rt":14510.354999976698,"stimulus":"img/00842.png","slider_start":4,"response":6,"trial_type":"image-slider-response","trial_index":138,"time_elapsed":764011,"internal_node_id":"0.0-3.0-0.135","subject_id":"5fb5a0b59ba3a512d93382b7","study_id":"605e2a800ccfa0c8e820d869","session_id":"60622099f19211a56a5b025e"},{"rt":7064.560000027996,"stimulus":"img/00564.png","slider_start":4,"response":5,"trial_type":"image-slider-response","trial_index":139,"time_elapsed":771077,"internal_node_id":"0.0-3.0-0.136","subject_id":"5fb5a0b59ba3a512d93382b7","study_id":"605e2a800ccfa0c8e820d869","session_id":"60622099f19211a56a5b025e"},{"rt":7903.484999958891,"stimulus":"img/00447.png","slider_start":4,"response":4,"trial_type":"image-slider-response","trial_index":140,"time_elapsed":778982,"internal_node_id":"0.0-3.0-0.137","subject_id":"5fb5a0b59ba3a512d93382b7","study_id":"605e2a800ccfa0c8e820d869","session_id":"60622099f19211a56a5b025e"},{"rt":2265.430000028573,"stimulus":"img/00466.png","slider_start":4,"response":4,"trial_type":"image-slider-response","trial_index":141,"time_elapsed":781249,"internal_node_id":"0.0-3.0-0.138","subject_id":"5fb5a0b59ba3a512d93382b7","study_id":"605e2a800ccfa0c8e820d869","session_id":"60622099f19211a56a5b025e"},{"rt":4071.9200000166893,"stimulus":"img/00988.png","slider_start":4,"response":5,"trial_type":"image-slider-response","trial_index":142,"time_elapsed":785323,"internal_node_id":"0.0-3.0-0.139","subject_id":"5fb5a0b59ba3a512d93382b7","study_id":"605e2a800ccfa0c8e820d869","session_id":"60622099f19211a56a5b025e"},{"rt":8878.44999996014,"stimulus":"img/00489.png","slider_start":4,"response":3,"trial_type":"image-slider-response","trial_index":143,"time_elapsed":794203,"internal_node_id":"0.0-3.0-0.140","subject_id":"5fb5a0b59ba3a512d93382b7","study_id":"605e2a800ccfa0c8e820d869","session_id":"60622099f19211a56a5b025e"},{"rt":3858.4649999975227,"stimulus":"img/00867.png","slider_start":4,"response":5,"trial_type":"image-slider-response","trial_index":144,"time_elapsed":798063,"internal_node_id":"0.0-3.0-0.141","subject_id":"5fb5a0b59ba3a512d93382b7","study_id":"605e2a800ccfa0c8e820d869","session_id":"60622099f19211a56a5b025e"},{"rt":3956.7999999853782,"stimulus":"img/00462.png","slider_start":4,"response":3,"trial_type":"image-slider-response","trial_index":145,"time_elapsed":802021,"internal_node_id":"0.0-3.0-0.142","subject_id":"5fb5a0b59ba3a512d93382b7","study_id":"605e2a800ccfa0c8e820d869","session_id":"60622099f19211a56a5b025e"},{"rt":3075.2450000145473,"stimulus":"img/00731.png","slider_start":4,"response":3,"trial_type":"image-slider-response","trial_index":146,"time_elapsed":805098,"internal_node_id":"0.0-3.0-0.143","subject_id":"5fb5a0b59ba3a512d93382b7","study_id":"605e2a800ccfa0c8e820d869","session_id":"60622099f19211a56a5b025e"},{"rt":3390.4399999883026,"stimulus":"img/00113.png","slider_start":4,"response":3,"trial_type":"image-slider-response","trial_index":147,"time_elapsed":808489,"internal_node_id":"0.0-3.0-0.144","subject_id":"5fb5a0b59ba3a512d93382b7","study_id":"605e2a800ccfa0c8e820d869","session_id":"60622099f19211a56a5b025e"},{"rt":4997.629999998026,"stimulus":"img/00545.png","slider_start":4,"response":4,"trial_type":"image-slider-response","trial_index":148,"time_elapsed":813489,"internal_node_id":"0.0-3.0-0.145","subject_id":"5fb5a0b59ba3a512d93382b7","study_id":"605e2a800ccfa0c8e820d869","session_id":"60622099f19211a56a5b025e"},{"rt":3189.5149999763817,"stimulus":"img/00744.png","slider_start":4,"response":3,"trial_type":"image-slider-response","trial_index":149,"time_elapsed":816680,"internal_node_id":"0.0-3.0-0.146","subject_id":"5fb5a0b59ba3a512d93382b7","study_id":"605e2a800ccfa0c8e820d869","session_id":"60622099f19211a56a5b025e"},{"rt":89013.41000001412,"stimulus":"img/00569.png","slider_start":4,"response":4,"trial_type":"image-slider-response","trial_index":150,"time_elapsed":905695,"internal_node_id":"0.0-3.0-0.147","subject_id":"5fb5a0b59ba3a512d93382b7","study_id":"605e2a800ccfa0c8e820d869","session_id":"60622099f19211a56a5b025e"},{"rt":3349.6649999869987,"stimulus":"img/00801.png","slider_start":4,"response":3,"trial_type":"image-slider-response","trial_index":151,"time_elapsed":909046,"internal_node_id":"0.0-3.0-0.148","subject_id":"5fb5a0b59ba3a512d93382b7","study_id":"605e2a800ccfa0c8e820d869","session_id":"60622099f19211a56a5b025e"},{"rt":7841.435000009369,"stimulus":"img/00822.png","slider_start":4,"response":3,"trial_type":"image-slider-response","trial_index":152,"time_elapsed":916889,"internal_node_id":"0.0-3.0-0.149","subject_id":"5fb5a0b59ba3a512d93382b7","study_id":"605e2a800ccfa0c8e820d869","session_id":"60622099f19211a56a5b025e"},{"rt":38205.485000042245,"stimulus":"img/00129.png","slider_start":4,"response":4,"trial_type":"image-slider-response","trial_index":153,"time_elapsed":955096,"internal_node_id":"0.0-3.0-0.150","subject_id":"5fb5a0b59ba3a512d93382b7","study_id":"605e2a800ccfa0c8e820d869","session_id":"60622099f19211a56a5b025e"},{"rt":10071.010000014212,"stimulus":"img/00048.png","slider_start":4,"response":3,"trial_type":"image-slider-response","trial_index":154,"time_elapsed":965169,"internal_node_id":"0.0-3.0-0.151","subject_id":"5fb5a0b59ba3a512d93382b7","study_id":"605e2a800ccfa0c8e820d869","session_id":"60622099f19211a56a5b025e"},{"rt":3116.4349999744445,"stimulus":"img/00742.png","slider_start":4,"response":4,"trial_type":"image-slider-response","trial_index":155,"time_elapsed":968287,"internal_node_id":"0.0-3.0-0.152","subject_id":"5fb5a0b59ba3a512d93382b7","study_id":"605e2a800ccfa0c8e820d869","session_id":"60622099f19211a56a5b025e"},{"rt":3028.679999988526,"stimulus":"img/00951.png","slider_start":4,"response":3,"trial_type":"image-slider-response","trial_index":156,"time_elapsed":971317,"internal_node_id":"0.0-3.0-0.153","subject_id":"5fb5a0b59ba3a512d93382b7","study_id":"605e2a800ccfa0c8e820d869","session_id":"60622099f19211a56a5b025e"},{"rt":9281.564999953844,"stimulus":"img/00563.png","slider_start":4,"response":3,"trial_type":"image-slider-response","trial_index":157,"time_elapsed":980600,"internal_node_id":"0.0-3.0-0.154","subject_id":"5fb5a0b59ba3a512d93382b7","study_id":"605e2a800ccfa0c8e820d869","session_id":"60622099f19211a56a5b025e"},{"rt":2853.2450000056997,"stimulus":"img/00525.png","slider_start":4,"response":3,"trial_type":"image-slider-response","trial_index":158,"time_elapsed":983455,"internal_node_id":"0.0-3.0-0.155","subject_id":"5fb5a0b59ba3a512d93382b7","study_id":"605e2a800ccfa0c8e820d869","session_id":"60622099f19211a56a5b025e"},{"rt":7387.530000007246,"stimulus":"img/00521.png","slider_start":4,"response":2,"trial_type":"image-slider-response","trial_index":159,"time_elapsed":990844,"internal_node_id":"0.0-3.0-0.156","subject_id":"5fb5a0b59ba3a512d93382b7","study_id":"605e2a800ccfa0c8e820d869","session_id":"60622099f19211a56a5b025e"},{"rt":4925.440000020899,"stimulus":"img/00093.png","slider_start":4,"response":5,"trial_type":"image-slider-response","trial_index":160,"time_elapsed":995771,"internal_node_id":"0.0-3.0-0.157","subject_id":"5fb5a0b59ba3a512d93382b7","study_id":"605e2a800ccfa0c8e820d869","session_id":"60622099f19211a56a5b025e"},{"rt":2589.555000013206,"stimulus":"img/00991.png","slider_start":4,"response":3,"trial_type":"image-slider-response","trial_index":161,"time_elapsed":998362,"internal_node_id":"0.0-3.0-0.158","subject_id":"5fb5a0b59ba3a512d93382b7","study_id":"605e2a800ccfa0c8e820d869","session_id":"60622099f19211a56a5b025e"},{"rt":11669.699999969453,"stimulus":"img/00543.png","slider_start":4,"response":4,"trial_type":"image-slider-response","trial_index":162,"time_elapsed":1010033,"internal_node_id":"0.0-3.0-0.159","subject_id":"5fb5a0b59ba3a512d93382b7","study_id":"605e2a800ccfa0c8e820d869","session_id":"60622099f19211a56a5b025e"},{"rt":4967.399999964982,"stimulus":"img/00006.png","slider_start":4,"response":3,"trial_type":"image-slider-response","trial_index":163,"time_elapsed":1015002,"internal_node_id":"0.0-3.0-0.160","subject_id":"5fb5a0b59ba3a512d93382b7","study_id":"605e2a800ccfa0c8e820d869","session_id":"60622099f19211a56a5b025e"},{"rt":3346.4849999872968,"stimulus":"img/00059.png","slider_start":4,"response":4,"trial_type":"image-slider-response","trial_index":164,"time_elapsed":1018350,"internal_node_id":"0.0-3.0-0.161","subject_id":"5fb5a0b59ba3a512d93382b7","study_id":"605e2a800ccfa0c8e820d869","session_id":"60622099f19211a56a5b025e"},{"rt":4183.595000009518,"stimulus":"img/00799.png","slider_start":4,"response":3,"trial_type":"image-slider-response","trial_index":165,"time_elapsed":1022535,"internal_node_id":"0.0-3.0-0.162","subject_id":"5fb5a0b59ba3a512d93382b7","study_id":"605e2a800ccfa0c8e820d869","session_id":"60622099f19211a56a5b025e"},{"rt":18025.424999999814,"stimulus":"img/00115.png","slider_start":4,"response":2,"trial_type":"image-slider-response","trial_index":166,"time_elapsed":1040562,"internal_node_id":"0.0-3.0-0.163","subject_id":"5fb5a0b59ba3a512d93382b7","study_id":"605e2a800ccfa0c8e820d869","session_id":"60622099f19211a56a5b025e"},{"rt":4995.29499997152,"stimulus":"img/00015.png","slider_start":4,"response":5,"trial_type":"image-slider-response","trial_index":167,"time_elapsed":1045559,"internal_node_id":"0.0-3.0-0.164","subject_id":"5fb5a0b59ba3a512d93382b7","study_id":"605e2a800ccfa0c8e820d869","session_id":"60622099f19211a56a5b025e"},{"rt":2727.4600000237115,"stimulus":"img/00896.png","slider_start":4,"response":3,"trial_type":"image-slider-response","trial_index":168,"time_elapsed":1048288,"internal_node_id":"0.0-3.0-0.165","subject_id":"5fb5a0b59ba3a512d93382b7","study_id":"605e2a800ccfa0c8e820d869","session_id":"60622099f19211a56a5b025e"},{"rt":3497.674999991432,"stimulus":"img/00793.png","slider_start":4,"response":5,"trial_type":"image-slider-response","trial_index":169,"time_elapsed":1051787,"internal_node_id":"0.0-3.0-0.166","subject_id":"5fb5a0b59ba3a512d93382b7","study_id":"605e2a800ccfa0c8e820d869","session_id":"60622099f19211a56a5b025e"},{"rt":4060.4049999965355,"stimulus":"img/00469.png","slider_start":4,"response":6,"trial_type":"image-slider-response","trial_index":170,"time_elapsed":1055849,"internal_node_id":"0.0-3.0-0.167","subject_id":"5fb5a0b59ba3a512d93382b7","study_id":"605e2a800ccfa0c8e820d869","session_id":"60622099f19211a56a5b025e"},{"rt":18922.664999961853,"stimulus":"img/00789.png","slider_start":4,"response":3,"trial_type":"image-slider-response","trial_index":171,"time_elapsed":1074773,"internal_node_id":"0.0-3.0-0.168","subject_id":"5fb5a0b59ba3a512d93382b7","study_id":"605e2a800ccfa0c8e820d869","session_id":"60622099f19211a56a5b025e"},{"rt":4795.310000015888,"stimulus":"img/00930.png","slider_start":4,"response":4,"trial_type":"image-slider-response","trial_index":172,"time_elapsed":1079570,"internal_node_id":"0.0-3.0-0.169","subject_id":"5fb5a0b59ba3a512d93382b7","study_id":"605e2a800ccfa0c8e820d869","session_id":"60622099f19211a56a5b025e"},{"rt":5385.4600000195205,"stimulus":"img/00561.png","slider_start":4,"response":3,"trial_type":"image-slider-response","trial_index":173,"time_elapsed":1084957,"internal_node_id":"0.0-3.0-0.170","subject_id":"5fb5a0b59ba3a512d93382b7","study_id":"605e2a800ccfa0c8e820d869","session_id":"60622099f19211a56a5b025e"},{"rt":5192.479999968782,"stimulus":"img/00055.png","slider_start":4,"response":6,"trial_type":"image-slider-response","trial_index":174,"time_elapsed":1090151,"internal_node_id":"0.0-3.0-0.171","subject_id":"5fb5a0b59ba3a512d93382b7","study_id":"605e2a800ccfa0c8e820d869","session_id":"60622099f19211a56a5b025e"}]