[{"rt":29985.70000000001,"stimulus":"Welcome to the experiment. Press any key to begin.","response":"m","trial_type":"html-keyboard-response","trial_index":0,"time_elapsed":29987,"internal_node_id":"0.0-0.0","subject_id":"5ed2994518f6bd211a146df2","study_id":"605e2a800ccfa0c8e820d869","session_id":"60622095eec9d747eba74648"},{"rt":9943.665000000008,"stimulus":"\n        <p>In this experiment, a face will appear on-screen.</p><p> <strong>Rate the face on a 1 - 7 scale based on how attractive he / she is.</strong> </p>\n        </div>\n        <p>Press any key to begin.</p>\n      ","response":" ","trial_type":"html-keyboard-response","trial_index":1,"time_elapsed":39932,"internal_node_id":"0.0-1.0","subject_id":"5ed2994518f6bd211a146df2","study_id":"605e2a800ccfa0c8e820d869","session_id":"60622095eec9d747eba74648"},{"success":true,"timeout":false,"failed_images":[],"failed_audio":[],"failed_video":[],"trial_type":"preload","trial_index":2,"time_elapsed":67131,"internal_node_id":"0.0-2.0","subject_id":"5ed2994518f6bd211a146df2","study_id":"605e2a800ccfa0c8e820d869","session_id":"60622095eec9d747eba74648"},{"rt":10909.515,"stimulus":"img/00023.png","slider_start":4,"response":1,"trial_type":"image-slider-response","trial_index":3,"time_elapsed":78052,"internal_node_id":"0.0-3.0-0.0","subject_id":"5ed2994518f6bd211a146df2","study_id":"605e2a800ccfa0c8e820d869","session_id":"60622095eec9d747eba74648"},{"rt":16482.330000000045,"stimulus":"img/00015.png","slider_start":4,"response":5,"trial_type":"image-slider-response","trial_index":4,"time_elapsed":94538,"internal_node_id":"0.0-3.0-0.1","subject_id":"5ed2994518f6bd211a146df2","study_id":"605e2a800ccfa0c8e820d869","session_id":"60622095eec9d747eba74648"},{"rt":7125.009999999966,"stimulus":"img/00592.png","slider_start":4,"response":6,"trial_type":"image-slider-response","trial_index":5,"time_elapsed":101667,"internal_node_id":"0.0-3.0-0.2","subject_id":"5ed2994518f6bd211a146df2","study_id":"605e2a800ccfa0c8e820d869","session_id":"60622095eec9d747eba74648"},{"rt":7980.005000000005,"stimulus":"img/00995.png","slider_start":4,"response":7,"trial_type":"image-slider-response","trial_index":6,"time_elapsed":109650,"internal_node_id":"0.0-3.0-0.3","subject_id":"5ed2994518f6bd211a146df2","study_id":"605e2a800ccfa0c8e820d869","session_id":"60622095eec9d747eba74648"},{"rt":8899.974999999977,"stimulus":"img/00973.png","slider_start":4,"response":5,"trial_type":"image-slider-response","trial_index":7,"time_elapsed":118554,"internal_node_id":"0.0-3.0-0.4","subject_id":"5ed2994518f6bd211a146df2","study_id":"605e2a800ccfa0c8e820d869","session_id":"60622095eec9d747eba74648"},{"rt":7269.7699999999895,"stimulus":"img/00594.png","slider_start":4,"response":5,"trial_type":"image-slider-response","trial_index":8,"time_elapsed":125826,"internal_node_id":"0.0-3.0-0.5","subject_id":"5ed2994518f6bd211a146df2","study_id":"605e2a800ccfa0c8e820d869","session_id":"60622095eec9d747eba74648"},{"rt":8252.76999999999,"stimulus":"img/00603.png","slider_start":4,"response":2,"trial_type":"image-slider-response","trial_index":9,"time_elapsed":134082,"internal_node_id":"0.0-3.0-0.6","subject_id":"5ed2994518f6bd211a146df2","study_id":"605e2a800ccfa0c8e820d869","session_id":"60622095eec9d747eba74648"},{"rt":6900.434999999998,"stimulus":"img/00055.png","slider_start":4,"response":3,"trial_type":"image-slider-response","trial_index":10,"time_elapsed":140986,"internal_node_id":"0.0-3.0-0.7","subject_id":"5ed2994518f6bd211a146df2","study_id":"605e2a800ccfa0c8e820d869","session_id":"60622095eec9d747eba74648"},{"rt":6996.920000000013,"stimulus":"img/00454.png","slider_start":4,"response":2,"trial_type":"image-slider-response","trial_index":11,"time_elapsed":147986,"internal_node_id":"0.0-3.0-0.8","subject_id":"5ed2994518f6bd211a146df2","study_id":"605e2a800ccfa0c8e820d869","session_id":"60622095eec9d747eba74648"},{"rt":11740.904999999999,"stimulus":"img/00018.png","slider_start":4,"response":5,"trial_type":"image-slider-response","trial_index":12,"time_elapsed":159730,"internal_node_id":"0.0-3.0-0.9","subject_id":"5ed2994518f6bd211a146df2","study_id":"605e2a800ccfa0c8e820d869","session_id":"60622095eec9d747eba74648"},{"rt":6820.780000000028,"stimulus":"img/00129.png","slider_start":4,"response":7,"trial_type":"image-slider-response","trial_index":13,"time_elapsed":166554,"internal_node_id":"0.0-3.0-0.10","subject_id":"5ed2994518f6bd211a146df2","study_id":"605e2a800ccfa0c8e820d869","session_id":"60622095eec9d747eba74648"},{"rt":7668.544999999984,"stimulus":"img/00902.png","slider_start":4,"response":6,"trial_type":"image-slider-response","trial_index":14,"time_elapsed":174227,"internal_node_id":"0.0-3.0-0.11","subject_id":"5ed2994518f6bd211a146df2","study_id":"605e2a800ccfa0c8e820d869","session_id":"60622095eec9d747eba74648"},{"rt":6884.774999999994,"stimulus":"img/00759.png","slider_start":4,"response":3,"trial_type":"image-slider-response","trial_index":15,"time_elapsed":181115,"internal_node_id":"0.0-3.0-0.12","subject_id":"5ed2994518f6bd211a146df2","study_id":"605e2a800ccfa0c8e820d869","session_id":"60622095eec9d747eba74648"},{"rt":7372.724999999948,"stimulus":"img/00511.png","slider_start":4,"response":3,"trial_type":"image-slider-response","trial_index":16,"time_elapsed":188491,"internal_node_id":"0.0-3.0-0.13","subject_id":"5ed2994518f6bd211a146df2","study_id":"605e2a800ccfa0c8e820d869","session_id":"60622095eec9d747eba74648"},{"rt":6780.9800000000105,"stimulus":"img/00879.png","slider_start":4,"response":6,"trial_type":"image-slider-response","trial_index":17,"time_elapsed":195275,"internal_node_id":"0.0-3.0-0.14","subject_id":"5ed2994518f6bd211a146df2","study_id":"605e2a800ccfa0c8e820d869","session_id":"60622095eec9d747eba74648"},{"rt":6044.195000000007,"stimulus":"img/00082.png","slider_start":4,"response":1,"trial_type":"image-slider-response","trial_index":18,"time_elapsed":201323,"internal_node_id":"0.0-3.0-0.15","subject_id":"5ed2994518f6bd211a146df2","study_id":"605e2a800ccfa0c8e820d869","session_id":"60622095eec9d747eba74648"},{"rt":5637.370000000024,"stimulus":"img/00773.png","slider_start":4,"response":5,"trial_type":"image-slider-response","trial_index":19,"time_elapsed":206963,"internal_node_id":"0.0-3.0-0.16","subject_id":"5ed2994518f6bd211a146df2","study_id":"605e2a800ccfa0c8e820d869","session_id":"60622095eec9d747eba74648"},{"rt":8868.63499999998,"stimulus":"img/00799.png","slider_start":4,"response":1,"trial_type":"image-slider-response","trial_index":20,"time_elapsed":215835,"internal_node_id":"0.0-3.0-0.17","subject_id":"5ed2994518f6bd211a146df2","study_id":"605e2a800ccfa0c8e820d869","session_id":"60622095eec9d747eba74648"},{"rt":9340.604999999981,"stimulus":"img/00822.png","slider_start":4,"response":2,"trial_type":"image-slider-response","trial_index":21,"time_elapsed":225179,"internal_node_id":"0.0-3.0-0.18","subject_id":"5ed2994518f6bd211a146df2","study_id":"605e2a800ccfa0c8e820d869","session_id":"60622095eec9d747eba74648"},{"rt":6812.939999999973,"stimulus":"img/00898.png","slider_start":4,"response":1,"trial_type":"image-slider-response","trial_index":22,"time_elapsed":231996,"internal_node_id":"0.0-3.0-0.19","subject_id":"5ed2994518f6bd211a146df2","study_id":"605e2a800ccfa0c8e820d869","session_id":"60622095eec9d747eba74648"},{"rt":6828.359999999986,"stimulus":"img/00011.png","slider_start":4,"response":5,"trial_type":"image-slider-response","trial_index":23,"time_elapsed":238827,"internal_node_id":"0.0-3.0-0.20","subject_id":"5ed2994518f6bd211a146df2","study_id":"605e2a800ccfa0c8e820d869","session_id":"60622095eec9d747eba74648"},{"rt":6332.559999999998,"stimulus":"img/00114.png","slider_start":4,"response":2,"trial_type":"image-slider-response","trial_index":24,"time_elapsed":245163,"internal_node_id":"0.0-3.0-0.21","subject_id":"5ed2994518f6bd211a146df2","study_id":"605e2a800ccfa0c8e820d869","session_id":"60622095eec9d747eba74648"},{"rt":6756.604999999923,"stimulus":"img/00686.png","slider_start":4,"response":6,"trial_type":"image-slider-response","trial_index":25,"time_elapsed":251922,"internal_node_id":"0.0-3.0-0.22","subject_id":"5ed2994518f6bd211a146df2","study_id":"605e2a800ccfa0c8e820d869","session_id":"60622095eec9d747eba74648"},{"rt":5437.469999999943,"stimulus":"img/00850.png","slider_start":4,"response":1,"trial_type":"image-slider-response","trial_index":26,"time_elapsed":257363,"internal_node_id":"0.0-3.0-0.23","subject_id":"5ed2994518f6bd211a146df2","study_id":"605e2a800ccfa0c8e820d869","session_id":"60622095eec9d747eba74648"},{"rt":5476.264999999985,"stimulus":"img/00967.png","slider_start":4,"response":1,"trial_type":"image-slider-response","trial_index":27,"time_elapsed":262843,"internal_node_id":"0.0-3.0-0.24","subject_id":"5ed2994518f6bd211a146df2","study_id":"605e2a800ccfa0c8e820d869","session_id":"60622095eec9d747eba74648"},{"rt":5501.525000000023,"stimulus":"img/00780.png","slider_start":4,"response":2,"trial_type":"image-slider-response","trial_index":28,"time_elapsed":268347,"internal_node_id":"0.0-3.0-0.25","subject_id":"5ed2994518f6bd211a146df2","study_id":"605e2a800ccfa0c8e820d869","session_id":"60622095eec9d747eba74648"},{"rt":8444.084999999963,"stimulus":"img/00653.png","slider_start":4,"response":3,"trial_type":"image-slider-response","trial_index":29,"time_elapsed":276795,"internal_node_id":"0.0-3.0-0.26","subject_id":"5ed2994518f6bd211a146df2","study_id":"605e2a800ccfa0c8e820d869","session_id":"60622095eec9d747eba74648"},{"rt":6396.804999999993,"stimulus":"img/00815.png","slider_start":4,"response":5,"trial_type":"image-slider-response","trial_index":30,"time_elapsed":283195,"internal_node_id":"0.0-3.0-0.27","subject_id":"5ed2994518f6bd211a146df2","study_id":"605e2a800ccfa0c8e820d869","session_id":"60622095eec9d747eba74648"},{"rt":5348.179999999935,"stimulus":"img/00545.png","slider_start":4,"response":6,"trial_type":"image-slider-response","trial_index":31,"time_elapsed":288547,"internal_node_id":"0.0-3.0-0.28","subject_id":"5ed2994518f6bd211a146df2","study_id":"605e2a800ccfa0c8e820d869","session_id":"60622095eec9d747eba74648"},{"rt":7253.410000000033,"stimulus":"img/00093.png","slider_start":4,"response":5,"trial_type":"image-slider-response","trial_index":32,"time_elapsed":295804,"internal_node_id":"0.0-3.0-0.29","subject_id":"5ed2994518f6bd211a146df2","study_id":"605e2a800ccfa0c8e820d869","session_id":"60622095eec9d747eba74648"},{"rt":7195.834999999963,"stimulus":"img/00542.png","slider_start":4,"response":1,"trial_type":"image-slider-response","trial_index":33,"time_elapsed":303004,"internal_node_id":"0.0-3.0-0.30","subject_id":"5ed2994518f6bd211a146df2","study_id":"605e2a800ccfa0c8e820d869","session_id":"60622095eec9d747eba74648"},{"rt":6348.225000000093,"stimulus":"img/00644.png","slider_start":4,"response":3,"trial_type":"image-slider-response","trial_index":34,"time_elapsed":309356,"internal_node_id":"0.0-3.0-0.31","subject_id":"5ed2994518f6bd211a146df2","study_id":"605e2a800ccfa0c8e820d869","session_id":"60622095eec9d747eba74648"},{"rt":6244.9049999999115,"stimulus":"img/00522.png","slider_start":4,"response":5,"trial_type":"image-slider-response","trial_index":35,"time_elapsed":315605,"internal_node_id":"0.0-3.0-0.32","subject_id":"5ed2994518f6bd211a146df2","study_id":"605e2a800ccfa0c8e820d869","session_id":"60622095eec9d747eba74648"},{"rt":4836.040000000037,"stimulus":"img/00801.png","slider_start":4,"response":2,"trial_type":"image-slider-response","trial_index":36,"time_elapsed":320444,"internal_node_id":"0.0-3.0-0.33","subject_id":"5ed2994518f6bd211a146df2","study_id":"605e2a800ccfa0c8e820d869","session_id":"60622095eec9d747eba74648"},{"rt":4717.014999999956,"stimulus":"img/00405.png","slider_start":4,"response":7,"trial_type":"image-slider-response","trial_index":37,"time_elapsed":325164,"internal_node_id":"0.0-3.0-0.34","subject_id":"5ed2994518f6bd211a146df2","study_id":"605e2a800ccfa0c8e820d869","session_id":"60622095eec9d747eba74648"},{"rt":7516.799999999988,"stimulus":"img/00689.png","slider_start":4,"response":3,"trial_type":"image-slider-response","trial_index":38,"time_elapsed":332684,"internal_node_id":"0.0-3.0-0.35","subject_id":"5ed2994518f6bd211a146df2","study_id":"605e2a800ccfa0c8e820d869","session_id":"60622095eec9d747eba74648"},{"rt":4908.565000000119,"stimulus":"img/00731.png","slider_start":4,"response":1,"trial_type":"image-slider-response","trial_index":39,"time_elapsed":337596,"internal_node_id":"0.0-3.0-0.36","subject_id":"5ed2994518f6bd211a146df2","study_id":"605e2a800ccfa0c8e820d869","session_id":"60622095eec9d747eba74648"},{"rt":5780.820000000065,"stimulus":"img/00998.png","slider_start":4,"response":2,"trial_type":"image-slider-response","trial_index":40,"time_elapsed":343380,"internal_node_id":"0.0-3.0-0.37","subject_id":"5ed2994518f6bd211a146df2","study_id":"605e2a800ccfa0c8e820d869","session_id":"60622095eec9d747eba74648"},{"rt":5628.73000000004,"stimulus":"img/00825.png","slider_start":4,"response":7,"trial_type":"image-slider-response","trial_index":41,"time_elapsed":349012,"internal_node_id":"0.0-3.0-0.38","subject_id":"5ed2994518f6bd211a146df2","study_id":"605e2a800ccfa0c8e820d869","session_id":"60622095eec9d747eba74648"},{"rt":5036.474999999977,"stimulus":"img/00860.png","slider_start":4,"response":1,"trial_type":"image-slider-response","trial_index":42,"time_elapsed":354052,"internal_node_id":"0.0-3.0-0.39","subject_id":"5ed2994518f6bd211a146df2","study_id":"605e2a800ccfa0c8e820d869","session_id":"60622095eec9d747eba74648"},{"rt":4692.540000000037,"stimulus":"img/00988.png","slider_start":4,"response":1,"trial_type":"image-slider-response","trial_index":43,"time_elapsed":358748,"internal_node_id":"0.0-3.0-0.40","subject_id":"5ed2994518f6bd211a146df2","study_id":"605e2a800ccfa0c8e820d869","session_id":"60622095eec9d747eba74648"},{"rt":5828.930000000051,"stimulus":"img/00424.png","slider_start":4,"response":7,"trial_type":"image-slider-response","trial_index":44,"time_elapsed":364580,"internal_node_id":"0.0-3.0-0.41","subject_id":"5ed2994518f6bd211a146df2","study_id":"605e2a800ccfa0c8e820d869","session_id":"60622095eec9d747eba74648"},{"rt":5756.284999999974,"stimulus":"img/00742.png","slider_start":4,"response":2,"trial_type":"image-slider-response","trial_index":45,"time_elapsed":370339,"internal_node_id":"0.0-3.0-0.42","subject_id":"5ed2994518f6bd211a146df2","study_id":"605e2a800ccfa0c8e820d869","session_id":"60622095eec9d747eba74648"},{"rt":5476.895000000019,"stimulus":"img/00462.png","slider_start":4,"response":3,"trial_type":"image-slider-response","trial_index":46,"time_elapsed":375819,"internal_node_id":"0.0-3.0-0.43","subject_id":"5ed2994518f6bd211a146df2","study_id":"605e2a800ccfa0c8e820d869","session_id":"60622095eec9d747eba74648"},{"rt":5190.26999999996,"stimulus":"img/00811.png","slider_start":4,"response":1,"trial_type":"image-slider-response","trial_index":47,"time_elapsed":381011,"internal_node_id":"0.0-3.0-0.44","subject_id":"5ed2994518f6bd211a146df2","study_id":"605e2a800ccfa0c8e820d869","session_id":"60622095eec9d747eba74648"},{"rt":5942.984999999986,"stimulus":"img/00130.png","slider_start":4,"response":5,"trial_type":"image-slider-response","trial_index":48,"time_elapsed":386957,"internal_node_id":"0.0-3.0-0.45","subject_id":"5ed2994518f6bd211a146df2","study_id":"605e2a800ccfa0c8e820d869","session_id":"60622095eec9d747eba74648"},{"rt":8715.780000000028,"stimulus":"img/00489.png","slider_start":4,"response":5,"trial_type":"image-slider-response","trial_index":49,"time_elapsed":395676,"internal_node_id":"0.0-3.0-0.46","subject_id":"5ed2994518f6bd211a146df2","study_id":"605e2a800ccfa0c8e820d869","session_id":"60622095eec9d747eba74648"},{"rt":4037.195000000007,"stimulus":"img/00956.png","slider_start":4,"response":5,"trial_type":"image-slider-response","trial_index":50,"time_elapsed":399716,"internal_node_id":"0.0-3.0-0.47","subject_id":"5ed2994518f6bd211a146df2","study_id":"605e2a800ccfa0c8e820d869","session_id":"60622095eec9d747eba74648"},{"rt":5244.640000000014,"stimulus":"img/00903.png","slider_start":4,"response":6,"trial_type":"image-slider-response","trial_index":51,"time_elapsed":404964,"internal_node_id":"0.0-3.0-0.48","subject_id":"5ed2994518f6bd211a146df2","study_id":"605e2a800ccfa0c8e820d869","session_id":"60622095eec9d747eba74648"},{"rt":6748.955000000016,"stimulus":"img/00926.png","slider_start":4,"response":6,"trial_type":"image-slider-response","trial_index":52,"time_elapsed":411716,"internal_node_id":"0.0-3.0-0.49","subject_id":"5ed2994518f6bd211a146df2","study_id":"605e2a800ccfa0c8e820d869","session_id":"60622095eec9d747eba74648"},{"rt":4716.85500000004,"stimulus":"img/00503.png","slider_start":4,"response":1,"trial_type":"image-slider-response","trial_index":53,"time_elapsed":416437,"internal_node_id":"0.0-3.0-0.50","subject_id":"5ed2994518f6bd211a146df2","study_id":"605e2a800ccfa0c8e820d869","session_id":"60622095eec9d747eba74648"},{"rt":4796.264999999956,"stimulus":"img/00472.png","slider_start":4,"response":1,"trial_type":"image-slider-response","trial_index":54,"time_elapsed":421236,"internal_node_id":"0.0-3.0-0.51","subject_id":"5ed2994518f6bd211a146df2","study_id":"605e2a800ccfa0c8e820d869","session_id":"60622095eec9d747eba74648"},{"rt":4532.859999999928,"stimulus":"img/00913.png","slider_start":4,"response":6,"trial_type":"image-slider-response","trial_index":55,"time_elapsed":425773,"internal_node_id":"0.0-3.0-0.52","subject_id":"5ed2994518f6bd211a146df2","study_id":"605e2a800ccfa0c8e820d869","session_id":"60622095eec9d747eba74648"},{"rt":4946.939999999944,"stimulus":"img/00016.png","slider_start":4,"response":1,"trial_type":"image-slider-response","trial_index":56,"time_elapsed":430723,"internal_node_id":"0.0-3.0-0.53","subject_id":"5ed2994518f6bd211a146df2","study_id":"605e2a800ccfa0c8e820d869","session_id":"60622095eec9d747eba74648"},{"rt":4367.000000000058,"stimulus":"img/00748.png","slider_start":4,"response":1,"trial_type":"image-slider-response","trial_index":57,"time_elapsed":435092,"internal_node_id":"0.0-3.0-0.54","subject_id":"5ed2994518f6bd211a146df2","study_id":"605e2a800ccfa0c8e820d869","session_id":"60622095eec9d747eba74648"},{"rt":4414.290000000037,"stimulus":"img/00440.png","slider_start":4,"response":1,"trial_type":"image-slider-response","trial_index":58,"time_elapsed":439508,"internal_node_id":"0.0-3.0-0.55","subject_id":"5ed2994518f6bd211a146df2","study_id":"605e2a800ccfa0c8e820d869","session_id":"60622095eec9d747eba74648"},{"rt":3965.4000000000815,"stimulus":"img/00042.png","slider_start":4,"response":1,"trial_type":"image-slider-response","trial_index":59,"time_elapsed":443476,"internal_node_id":"0.0-3.0-0.56","subject_id":"5ed2994518f6bd211a146df2","study_id":"605e2a800ccfa0c8e820d869","session_id":"60622095eec9d747eba74648"},{"rt":6661.155000000028,"stimulus":"img/00797.png","slider_start":4,"response":2,"trial_type":"image-slider-response","trial_index":60,"time_elapsed":450141,"internal_node_id":"0.0-3.0-0.57","subject_id":"5ed2994518f6bd211a146df2","study_id":"605e2a800ccfa0c8e820d869","session_id":"60622095eec9d747eba74648"},{"rt":7740.435000000056,"stimulus":"img/00793.png","slider_start":4,"response":7,"trial_type":"image-slider-response","trial_index":61,"time_elapsed":457884,"internal_node_id":"0.0-3.0-0.58","subject_id":"5ed2994518f6bd211a146df2","study_id":"605e2a800ccfa0c8e820d869","session_id":"60622095eec9d747eba74648"},{"rt":8236.909999999974,"stimulus":"img/00483.png","slider_start":4,"response":2,"trial_type":"image-slider-response","trial_index":62,"time_elapsed":466125,"internal_node_id":"0.0-3.0-0.59","subject_id":"5ed2994518f6bd211a146df2","study_id":"605e2a800ccfa0c8e820d869","session_id":"60622095eec9d747eba74648"},{"rt":5156.860000000044,"stimulus":"img/00113.png","slider_start":4,"response":1,"trial_type":"image-slider-response","trial_index":63,"time_elapsed":471285,"internal_node_id":"0.0-3.0-0.60","subject_id":"5ed2994518f6bd211a146df2","study_id":"605e2a800ccfa0c8e820d869","session_id":"60622095eec9d747eba74648"},{"rt":4548.25,"stimulus":"img/00982.png","slider_start":4,"response":1,"trial_type":"image-slider-response","trial_index":64,"time_elapsed":475837,"internal_node_id":"0.0-3.0-0.61","subject_id":"5ed2994518f6bd211a146df2","study_id":"605e2a800ccfa0c8e820d869","session_id":"60622095eec9d747eba74648"},{"rt":5780.484999999986,"stimulus":"img/00600.png","slider_start":4,"response":1,"trial_type":"image-slider-response","trial_index":65,"time_elapsed":481621,"internal_node_id":"0.0-3.0-0.62","subject_id":"5ed2994518f6bd211a146df2","study_id":"605e2a800ccfa0c8e820d869","session_id":"60622095eec9d747eba74648"},{"rt":5628.945000000065,"stimulus":"img/00744.png","slider_start":4,"response":1,"trial_type":"image-slider-response","trial_index":66,"time_elapsed":487253,"internal_node_id":"0.0-3.0-0.63","subject_id":"5ed2994518f6bd211a146df2","study_id":"605e2a800ccfa0c8e820d869","session_id":"60622095eec9d747eba74648"},{"rt":5412.800000000047,"stimulus":"img/00760.png","slider_start":4,"response":1,"trial_type":"image-slider-response","trial_index":67,"time_elapsed":492669,"internal_node_id":"0.0-3.0-0.64","subject_id":"5ed2994518f6bd211a146df2","study_id":"605e2a800ccfa0c8e820d869","session_id":"60622095eec9d747eba74648"},{"rt":5235.8300000000745,"stimulus":"img/00817.png","slider_start":4,"response":1,"trial_type":"image-slider-response","trial_index":68,"time_elapsed":497909,"internal_node_id":"0.0-3.0-0.65","subject_id":"5ed2994518f6bd211a146df2","study_id":"605e2a800ccfa0c8e820d869","session_id":"60622095eec9d747eba74648"},{"rt":4165.034999999974,"stimulus":"img/00718.png","slider_start":4,"response":1,"trial_type":"image-slider-response","trial_index":69,"time_elapsed":502077,"internal_node_id":"0.0-3.0-0.66","subject_id":"5ed2994518f6bd211a146df2","study_id":"605e2a800ccfa0c8e820d869","session_id":"60622095eec9d747eba74648"},{"rt":6573.195000000065,"stimulus":"img/00991.png","slider_start":4,"response":2,"trial_type":"image-slider-response","trial_index":70,"time_elapsed":508653,"internal_node_id":"0.0-3.0-0.67","subject_id":"5ed2994518f6bd211a146df2","study_id":"605e2a800ccfa0c8e820d869","session_id":"60622095eec9d747eba74648"},{"rt":4501.350000000093,"stimulus":"img/00722.png","slider_start":4,"response":2,"trial_type":"image-slider-response","trial_index":71,"time_elapsed":513158,"internal_node_id":"0.0-3.0-0.68","subject_id":"5ed2994518f6bd211a146df2","study_id":"605e2a800ccfa0c8e820d869","session_id":"60622095eec9d747eba74648"},{"rt":9060.369999999937,"stimulus":"img/00012.png","slider_start":4,"response":3,"trial_type":"image-slider-response","trial_index":72,"time_elapsed":522221,"internal_node_id":"0.0-3.0-0.69","subject_id":"5ed2994518f6bd211a146df2","study_id":"605e2a800ccfa0c8e820d869","session_id":"60622095eec9d747eba74648"},{"rt":4844.289999999979,"stimulus":"img/00439.png","slider_start":4,"response":1,"trial_type":"image-slider-response","trial_index":73,"time_elapsed":527070,"internal_node_id":"0.0-3.0-0.70","subject_id":"5ed2994518f6bd211a146df2","study_id":"605e2a800ccfa0c8e820d869","session_id":"60622095eec9d747eba74648"},{"rt":7733.414999999921,"stimulus":"img/00428.png","slider_start":4,"response":5,"trial_type":"image-slider-response","trial_index":74,"time_elapsed":534806,"internal_node_id":"0.0-3.0-0.71","subject_id":"5ed2994518f6bd211a146df2","study_id":"605e2a800ccfa0c8e820d869","session_id":"60622095eec9d747eba74648"},{"rt":5651.530000000028,"stimulus":"img/00951.png","slider_start":4,"response":1,"trial_type":"image-slider-response","trial_index":75,"time_elapsed":540461,"internal_node_id":"0.0-3.0-0.72","subject_id":"5ed2994518f6bd211a146df2","study_id":"605e2a800ccfa0c8e820d869","session_id":"60622095eec9d747eba74648"},{"rt":6300.9400000000605,"stimulus":"img/00456.png","slider_start":4,"response":5,"trial_type":"image-slider-response","trial_index":76,"time_elapsed":546765,"internal_node_id":"0.0-3.0-0.73","subject_id":"5ed2994518f6bd211a146df2","study_id":"605e2a800ccfa0c8e820d869","session_id":"60622095eec9d747eba74648"},{"rt":4332.739999999991,"stimulus":"img/00785.png","slider_start":4,"response":7,"trial_type":"image-slider-response","trial_index":77,"time_elapsed":551101,"internal_node_id":"0.0-3.0-0.74","subject_id":"5ed2994518f6bd211a146df2","study_id":"605e2a800ccfa0c8e820d869","session_id":"60622095eec9d747eba74648"},{"rt":5164.67499999993,"stimulus":"img/00504.png","slider_start":4,"response":3,"trial_type":"image-slider-response","trial_index":78,"time_elapsed":556269,"internal_node_id":"0.0-3.0-0.75","subject_id":"5ed2994518f6bd211a146df2","study_id":"605e2a800ccfa0c8e820d869","session_id":"60622095eec9d747eba74648"},{"rt":8428.41499999992,"stimulus":"img/00693.png","slider_start":4,"response":2,"trial_type":"image-slider-response","trial_index":79,"time_elapsed":564701,"internal_node_id":"0.0-3.0-0.76","subject_id":"5ed2994518f6bd211a146df2","study_id":"605e2a800ccfa0c8e820d869","session_id":"60622095eec9d747eba74648"},{"rt":6500.875,"stimulus":"img/00079.png","slider_start":4,"response":5,"trial_type":"image-slider-response","trial_index":80,"time_elapsed":571205,"internal_node_id":"0.0-3.0-0.77","subject_id":"5ed2994518f6bd211a146df2","study_id":"605e2a800ccfa0c8e820d869","session_id":"60622095eec9d747eba74648"},{"rt":5516.164999999921,"stimulus":"img/00521.png","slider_start":4,"response":1,"trial_type":"image-slider-response","trial_index":81,"time_elapsed":576725,"internal_node_id":"0.0-3.0-0.78","subject_id":"5ed2994518f6bd211a146df2","study_id":"605e2a800ccfa0c8e820d869","session_id":"60622095eec9d747eba74648"},{"rt":6412.949999999953,"stimulus":"img/00833.png","slider_start":4,"response":3,"trial_type":"image-slider-response","trial_index":82,"time_elapsed":583142,"internal_node_id":"0.0-3.0-0.79","subject_id":"5ed2994518f6bd211a146df2","study_id":"605e2a800ccfa0c8e820d869","session_id":"60622095eec9d747eba74648"},{"rt":6740.280000000261,"stimulus":"img/00037.png","slider_start":4,"response":6,"trial_type":"image-slider-response","trial_index":83,"time_elapsed":589885,"internal_node_id":"0.0-3.0-0.80","subject_id":"5ed2994518f6bd211a146df2","study_id":"605e2a800ccfa0c8e820d869","session_id":"60622095eec9d747eba74648"},{"rt":4253.079999999958,"stimulus":"img/00406.png","slider_start":4,"response":1,"trial_type":"image-slider-response","trial_index":84,"time_elapsed":594142,"internal_node_id":"0.0-3.0-0.81","subject_id":"5ed2994518f6bd211a146df2","study_id":"605e2a800ccfa0c8e820d869","session_id":"60622095eec9d747eba74648"},{"rt":4802.249999999884,"stimulus":"img/00896.png","slider_start":4,"response":1,"trial_type":"image-slider-response","trial_index":85,"time_elapsed":598949,"internal_node_id":"0.0-3.0-0.82","subject_id":"5ed2994518f6bd211a146df2","study_id":"605e2a800ccfa0c8e820d869","session_id":"60622095eec9d747eba74648"},{"rt":4973.780000000028,"stimulus":"img/00418.png","slider_start":4,"response":7,"trial_type":"image-slider-response","trial_index":86,"time_elapsed":603927,"internal_node_id":"0.0-3.0-0.83","subject_id":"5ed2994518f6bd211a146df2","study_id":"605e2a800ccfa0c8e820d869","session_id":"60622095eec9d747eba74648"},{"rt":5972.450000000186,"stimulus":"img/00623.png","slider_start":4,"response":6,"trial_type":"image-slider-response","trial_index":87,"time_elapsed":609902,"internal_node_id":"0.0-3.0-0.84","subject_id":"5ed2994518f6bd211a146df2","study_id":"605e2a800ccfa0c8e820d869","session_id":"60622095eec9d747eba74648"},{"rt":5180.8450000000885,"stimulus":"img/00708.png","slider_start":4,"response":7,"trial_type":"image-slider-response","trial_index":88,"time_elapsed":615086,"internal_node_id":"0.0-3.0-0.85","subject_id":"5ed2994518f6bd211a146df2","study_id":"605e2a800ccfa0c8e820d869","session_id":"60622095eec9d747eba74648"},{"rt":5876.8150000000605,"stimulus":"img/00105.png","slider_start":4,"response":6,"trial_type":"image-slider-response","trial_index":89,"time_elapsed":620966,"internal_node_id":"0.0-3.0-0.86","subject_id":"5ed2994518f6bd211a146df2","study_id":"605e2a800ccfa0c8e820d869","session_id":"60622095eec9d747eba74648"},{"rt":6708.3400000002,"stimulus":"img/00631.png","slider_start":4,"response":3,"trial_type":"image-slider-response","trial_index":90,"time_elapsed":627678,"internal_node_id":"0.0-3.0-0.87","subject_id":"5ed2994518f6bd211a146df2","study_id":"605e2a800ccfa0c8e820d869","session_id":"60622095eec9d747eba74648"},{"rt":5045.17499999993,"stimulus":"img/00122.png","slider_start":4,"response":7,"trial_type":"image-slider-response","trial_index":91,"time_elapsed":632726,"internal_node_id":"0.0-3.0-0.88","subject_id":"5ed2994518f6bd211a146df2","study_id":"605e2a800ccfa0c8e820d869","session_id":"60622095eec9d747eba74648"},{"rt":5268.640000000014,"stimulus":"img/00691.png","slider_start":4,"response":3,"trial_type":"image-slider-response","trial_index":92,"time_elapsed":637998,"internal_node_id":"0.0-3.0-0.89","subject_id":"5ed2994518f6bd211a146df2","study_id":"605e2a800ccfa0c8e820d869","session_id":"60622095eec9d747eba74648"},{"rt":5148.530000000028,"stimulus":"img/00688.png","slider_start":4,"response":7,"trial_type":"image-slider-response","trial_index":93,"time_elapsed":643150,"internal_node_id":"0.0-3.0-0.90","subject_id":"5ed2994518f6bd211a146df2","study_id":"605e2a800ccfa0c8e820d869","session_id":"60622095eec9d747eba74648"},{"rt":6853.290000000037,"stimulus":"img/00496.png","slider_start":4,"response":5,"trial_type":"image-slider-response","trial_index":94,"time_elapsed":650006,"internal_node_id":"0.0-3.0-0.91","subject_id":"5ed2994518f6bd211a146df2","study_id":"605e2a800ccfa0c8e820d869","session_id":"60622095eec9d747eba74648"},{"rt":3772.5750000001863,"stimulus":"img/00401.png","slider_start":4,"response":1,"trial_type":"image-slider-response","trial_index":95,"time_elapsed":653782,"internal_node_id":"0.0-3.0-0.92","subject_id":"5ed2994518f6bd211a146df2","study_id":"605e2a800ccfa0c8e820d869","session_id":"60622095eec9d747eba74648"},{"rt":4668.620000000112,"stimulus":"img/00576.png","slider_start":4,"response":7,"trial_type":"image-slider-response","trial_index":96,"time_elapsed":658454,"internal_node_id":"0.0-3.0-0.93","subject_id":"5ed2994518f6bd211a146df2","study_id":"605e2a800ccfa0c8e820d869","session_id":"60622095eec9d747eba74648"},{"rt":3788.3699999999953,"stimulus":"img/00761.png","slider_start":4,"response":7,"trial_type":"image-slider-response","trial_index":97,"time_elapsed":662246,"internal_node_id":"0.0-3.0-0.94","subject_id":"5ed2994518f6bd211a146df2","study_id":"605e2a800ccfa0c8e820d869","session_id":"60622095eec9d747eba74648"},{"rt":6046.314999999944,"stimulus":"img/00554.png","slider_start":4,"response":1,"trial_type":"image-slider-response","trial_index":98,"time_elapsed":668295,"internal_node_id":"0.0-3.0-0.95","subject_id":"5ed2994518f6bd211a146df2","study_id":"605e2a800ccfa0c8e820d869","session_id":"60622095eec9d747eba74648"},{"rt":7779.979999999981,"stimulus":"img/00447.png","slider_start":4,"response":5,"trial_type":"image-slider-response","trial_index":99,"time_elapsed":676078,"internal_node_id":"0.0-3.0-0.96","subject_id":"5ed2994518f6bd211a146df2","study_id":"605e2a800ccfa0c8e820d869","session_id":"60622095eec9d747eba74648"},{"rt":4572.77500000014,"stimulus":"img/00747.png","slider_start":4,"response":7,"trial_type":"image-slider-response","trial_index":100,"time_elapsed":680654,"internal_node_id":"0.0-3.0-0.97","subject_id":"5ed2994518f6bd211a146df2","study_id":"605e2a800ccfa0c8e820d869","session_id":"60622095eec9d747eba74648"},{"rt":5677.110000000102,"stimulus":"img/00790.png","slider_start":4,"response":7,"trial_type":"image-slider-response","trial_index":101,"time_elapsed":686335,"internal_node_id":"0.0-3.0-0.98","subject_id":"5ed2994518f6bd211a146df2","study_id":"605e2a800ccfa0c8e820d869","session_id":"60622095eec9d747eba74648"},{"rt":5476.730000000098,"stimulus":"img/00768.png","slider_start":4,"response":6,"trial_type":"image-slider-response","trial_index":102,"time_elapsed":691815,"internal_node_id":"0.0-3.0-0.99","subject_id":"5ed2994518f6bd211a146df2","study_id":"605e2a800ccfa0c8e820d869","session_id":"60622095eec9d747eba74648"},{"rt":4212.3300000000745,"stimulus":"img/00789.png","slider_start":4,"response":1,"trial_type":"image-slider-response","trial_index":103,"time_elapsed":696030,"internal_node_id":"0.0-3.0-0.100","subject_id":"5ed2994518f6bd211a146df2","study_id":"605e2a800ccfa0c8e820d869","session_id":"60622095eec9d747eba74648"},{"rt":6180.625,"stimulus":"img/00478.png","slider_start":4,"response":2,"trial_type":"image-slider-response","trial_index":104,"time_elapsed":702215,"internal_node_id":"0.0-3.0-0.101","subject_id":"5ed2994518f6bd211a146df2","study_id":"605e2a800ccfa0c8e820d869","session_id":"60622095eec9d747eba74648"},{"rt":5068.564999999828,"stimulus":"img/00006.png","slider_start":4,"response":6,"trial_type":"image-slider-response","trial_index":105,"time_elapsed":707286,"internal_node_id":"0.0-3.0-0.102","subject_id":"5ed2994518f6bd211a146df2","study_id":"605e2a800ccfa0c8e820d869","session_id":"60622095eec9d747eba74648"},{"rt":3988.230000000214,"stimulus":"img/00041.png","slider_start":4,"response":7,"trial_type":"image-slider-response","trial_index":106,"time_elapsed":711278,"internal_node_id":"0.0-3.0-0.103","subject_id":"5ed2994518f6bd211a146df2","study_id":"605e2a800ccfa0c8e820d869","session_id":"60622095eec9d747eba74648"},{"rt":4398.235000000102,"stimulus":"img/00048.png","slider_start":4,"response":1,"trial_type":"image-slider-response","trial_index":107,"time_elapsed":715679,"internal_node_id":"0.0-3.0-0.104","subject_id":"5ed2994518f6bd211a146df2","study_id":"605e2a800ccfa0c8e820d869","session_id":"60622095eec9d747eba74648"},{"rt":3980.5800000000745,"stimulus":"img/00127.png","slider_start":4,"response":1,"trial_type":"image-slider-response","trial_index":108,"time_elapsed":719662,"internal_node_id":"0.0-3.0-0.105","subject_id":"5ed2994518f6bd211a146df2","study_id":"605e2a800ccfa0c8e820d869","session_id":"60622095eec9d747eba74648"},{"rt":5461.775000000023,"stimulus":"img/00854.png","slider_start":4,"response":6,"trial_type":"image-slider-response","trial_index":109,"time_elapsed":725127,"internal_node_id":"0.0-3.0-0.106","subject_id":"5ed2994518f6bd211a146df2","study_id":"605e2a800ccfa0c8e820d869","session_id":"60622095eec9d747eba74648"},{"rt":5413.3150000000605,"stimulus":"img/00052.png","slider_start":4,"response":2,"trial_type":"image-slider-response","trial_index":110,"time_elapsed":730544,"internal_node_id":"0.0-3.0-0.107","subject_id":"5ed2994518f6bd211a146df2","study_id":"605e2a800ccfa0c8e820d869","session_id":"60622095eec9d747eba74648"},{"rt":6267.965000000084,"stimulus":"img/00867.png","slider_start":4,"response":3,"trial_type":"image-slider-response","trial_index":111,"time_elapsed":736815,"internal_node_id":"0.0-3.0-0.108","subject_id":"5ed2994518f6bd211a146df2","study_id":"605e2a800ccfa0c8e820d869","session_id":"60622095eec9d747eba74648"},{"rt":7428.494999999879,"stimulus":"img/00564.png","slider_start":4,"response":3,"trial_type":"image-slider-response","trial_index":112,"time_elapsed":744247,"internal_node_id":"0.0-3.0-0.109","subject_id":"5ed2994518f6bd211a146df2","study_id":"605e2a800ccfa0c8e820d869","session_id":"60622095eec9d747eba74648"},{"rt":5100.850000000093,"stimulus":"img/00064.png","slider_start":4,"response":7,"trial_type":"image-slider-response","trial_index":113,"time_elapsed":749351,"internal_node_id":"0.0-3.0-0.110","subject_id":"5ed2994518f6bd211a146df2","study_id":"605e2a800ccfa0c8e820d869","session_id":"60622095eec9d747eba74648"},{"rt":5380.579999999958,"stimulus":"img/00100.png","slider_start":4,"response":3,"trial_type":"image-slider-response","trial_index":114,"time_elapsed":754735,"internal_node_id":"0.0-3.0-0.111","subject_id":"5ed2994518f6bd211a146df2","study_id":"605e2a800ccfa0c8e820d869","session_id":"60622095eec9d747eba74648"},{"rt":4380.949999999953,"stimulus":"img/00115.png","slider_start":4,"response":1,"trial_type":"image-slider-response","trial_index":115,"time_elapsed":759119,"internal_node_id":"0.0-3.0-0.112","subject_id":"5ed2994518f6bd211a146df2","study_id":"605e2a800ccfa0c8e820d869","session_id":"60622095eec9d747eba74648"},{"rt":3500.464999999851,"stimulus":"img/00561.png","slider_start":4,"response":1,"trial_type":"image-slider-response","trial_index":116,"time_elapsed":762623,"internal_node_id":"0.0-3.0-0.113","subject_id":"5ed2994518f6bd211a146df2","study_id":"605e2a800ccfa0c8e820d869","session_id":"60622095eec9d747eba74648"},{"rt":5645.004999999888,"stimulus":"img/00809.png","slider_start":4,"response":6,"trial_type":"image-slider-response","trial_index":117,"time_elapsed":768271,"internal_node_id":"0.0-3.0-0.114","subject_id":"5ed2994518f6bd211a146df2","study_id":"605e2a800ccfa0c8e820d869","session_id":"60622095eec9d747eba74648"},{"rt":5365.184999999823,"stimulus":"img/00752.png","slider_start":4,"response":2,"trial_type":"image-slider-response","trial_index":118,"time_elapsed":773639,"internal_node_id":"0.0-3.0-0.115","subject_id":"5ed2994518f6bd211a146df2","study_id":"605e2a800ccfa0c8e820d869","session_id":"60622095eec9d747eba74648"},{"rt":4612.464999999967,"stimulus":"img/00587.png","slider_start":4,"response":7,"trial_type":"image-slider-response","trial_index":119,"time_elapsed":778254,"internal_node_id":"0.0-3.0-0.116","subject_id":"5ed2994518f6bd211a146df2","study_id":"605e2a800ccfa0c8e820d869","session_id":"60622095eec9d747eba74648"},{"rt":4548.9199999999255,"stimulus":"img/00469.png","slider_start":4,"response":7,"trial_type":"image-slider-response","trial_index":120,"time_elapsed":782807,"internal_node_id":"0.0-3.0-0.117","subject_id":"5ed2994518f6bd211a146df2","study_id":"605e2a800ccfa0c8e820d869","session_id":"60622095eec9d747eba74648"},{"rt":5708.340000000084,"stimulus":"img/00413.png","slider_start":4,"response":5,"trial_type":"image-slider-response","trial_index":121,"time_elapsed":788519,"internal_node_id":"0.0-3.0-0.118","subject_id":"5ed2994518f6bd211a146df2","study_id":"605e2a800ccfa0c8e820d869","session_id":"60622095eec9d747eba74648"},{"rt":6524.175000000047,"stimulus":"img/00629.png","slider_start":4,"response":3,"trial_type":"image-slider-response","trial_index":122,"time_elapsed":795046,"internal_node_id":"0.0-3.0-0.119","subject_id":"5ed2994518f6bd211a146df2","study_id":"605e2a800ccfa0c8e820d869","session_id":"60622095eec9d747eba74648"},{"rt":6157.480000000098,"stimulus":"img/00466.png","slider_start":4,"response":2,"trial_type":"image-slider-response","trial_index":123,"time_elapsed":801207,"internal_node_id":"0.0-3.0-0.120","subject_id":"5ed2994518f6bd211a146df2","study_id":"605e2a800ccfa0c8e820d869","session_id":"60622095eec9d747eba74648"},{"rt":5882.264999999898,"stimulus":"img/00853.png","slider_start":4,"response":7,"trial_type":"image-slider-response","trial_index":124,"time_elapsed":807095,"internal_node_id":"0.0-3.0-0.121","subject_id":"5ed2994518f6bd211a146df2","study_id":"605e2a800ccfa0c8e820d869","session_id":"60622095eec9d747eba74648"},{"rt":4356.744999999995,"stimulus":"img/00126.png","slider_start":4,"response":1,"trial_type":"image-slider-response","trial_index":125,"time_elapsed":811455,"internal_node_id":"0.0-3.0-0.122","subject_id":"5ed2994518f6bd211a146df2","study_id":"605e2a800ccfa0c8e820d869","session_id":"60622095eec9d747eba74648"},{"rt":3932.8499999998603,"stimulus":"img/00569.png","slider_start":4,"response":1,"trial_type":"image-slider-response","trial_index":126,"time_elapsed":815391,"internal_node_id":"0.0-3.0-0.123","subject_id":"5ed2994518f6bd211a146df2","study_id":"605e2a800ccfa0c8e820d869","session_id":"60622095eec9d747eba74648"},{"rt":6180.289999999804,"stimulus":"img/00432.png","slider_start":4,"response":7,"trial_type":"image-slider-response","trial_index":127,"time_elapsed":821575,"internal_node_id":"0.0-3.0-0.124","subject_id":"5ed2994518f6bd211a146df2","study_id":"605e2a800ccfa0c8e820d869","session_id":"60622095eec9d747eba74648"},{"rt":4492.255000000121,"stimulus":"img/00612.png","slider_start":4,"response":2,"trial_type":"image-slider-response","trial_index":128,"time_elapsed":826071,"internal_node_id":"0.0-3.0-0.125","subject_id":"5ed2994518f6bd211a146df2","study_id":"605e2a800ccfa0c8e820d869","session_id":"60622095eec9d747eba74648"},{"rt":7580.660000000149,"stimulus":"img/00508.png","slider_start":4,"response":5,"trial_type":"image-slider-response","trial_index":129,"time_elapsed":833656,"internal_node_id":"0.0-3.0-0.126","subject_id":"5ed2994518f6bd211a146df2","study_id":"605e2a800ccfa0c8e820d869","session_id":"60622095eec9d747eba74648"},{"rt":4052.7100000001956,"stimulus":"img/00029.png","slider_start":4,"response":1,"trial_type":"image-slider-response","trial_index":130,"time_elapsed":837712,"internal_node_id":"0.0-3.0-0.127","subject_id":"5ed2994518f6bd211a146df2","study_id":"605e2a800ccfa0c8e820d869","session_id":"60622095eec9d747eba74648"},{"rt":5364.189999999944,"stimulus":"img/00878.png","slider_start":4,"response":3,"trial_type":"image-slider-response","trial_index":131,"time_elapsed":843079,"internal_node_id":"0.0-3.0-0.128","subject_id":"5ed2994518f6bd211a146df2","study_id":"605e2a800ccfa0c8e820d869","session_id":"60622095eec9d747eba74648"},{"rt":6805.984999999986,"stimulus":"img/00549.png","slider_start":4,"response":6,"trial_type":"image-slider-response","trial_index":132,"time_elapsed":849888,"internal_node_id":"0.0-3.0-0.129","subject_id":"5ed2994518f6bd211a146df2","study_id":"605e2a800ccfa0c8e820d869","session_id":"60622095eec9d747eba74648"},{"rt":5645.285000000033,"stimulus":"img/00949.png","slider_start":4,"response":5,"trial_type":"image-slider-response","trial_index":133,"time_elapsed":855536,"internal_node_id":"0.0-3.0-0.130","subject_id":"5ed2994518f6bd211a146df2","study_id":"605e2a800ccfa0c8e820d869","session_id":"60622095eec9d747eba74648"},{"rt":4100.914999999921,"stimulus":"img/00481.png","slider_start":4,"response":7,"trial_type":"image-slider-response","trial_index":134,"time_elapsed":859640,"internal_node_id":"0.0-3.0-0.131","subject_id":"5ed2994518f6bd211a146df2","study_id":"605e2a800ccfa0c8e820d869","session_id":"60622095eec9d747eba74648"},{"rt":5612.635000000009,"stimulus":"img/00563.png","slider_start":4,"response":2,"trial_type":"image-slider-response","trial_index":135,"time_elapsed":865256,"internal_node_id":"0.0-3.0-0.132","subject_id":"5ed2994518f6bd211a146df2","study_id":"605e2a800ccfa0c8e820d869","session_id":"60622095eec9d747eba74648"},{"rt":5468.5950000000885,"stimulus":"img/00791.png","slider_start":4,"response":1,"trial_type":"image-slider-response","trial_index":136,"time_elapsed":870728,"internal_node_id":"0.0-3.0-0.133","subject_id":"5ed2994518f6bd211a146df2","study_id":"605e2a800ccfa0c8e820d869","session_id":"60622095eec9d747eba74648"},{"rt":4156.694999999949,"stimulus":"img/00460.png","slider_start":4,"response":6,"trial_type":"image-slider-response","trial_index":137,"time_elapsed":874888,"internal_node_id":"0.0-3.0-0.134","subject_id":"5ed2994518f6bd211a146df2","study_id":"605e2a800ccfa0c8e820d869","session_id":"60622095eec9d747eba74648"},{"rt":6221.719999999972,"stimulus":"img/00437.png","slider_start":4,"response":3,"trial_type":"image-slider-response","trial_index":138,"time_elapsed":881113,"internal_node_id":"0.0-3.0-0.135","subject_id":"5ed2994518f6bd211a146df2","study_id":"605e2a800ccfa0c8e820d869","session_id":"60622095eec9d747eba74648"},{"rt":4404.010000000009,"stimulus":"img/00438.png","slider_start":4,"response":3,"trial_type":"image-slider-response","trial_index":139,"time_elapsed":885520,"internal_node_id":"0.0-3.0-0.136","subject_id":"5ed2994518f6bd211a146df2","study_id":"605e2a800ccfa0c8e820d869","session_id":"60622095eec9d747eba74648"},{"rt":4228.395000000135,"stimulus":"img/00756.png","slider_start":4,"response":7,"trial_type":"image-slider-response","trial_index":140,"time_elapsed":889752,"internal_node_id":"0.0-3.0-0.137","subject_id":"5ed2994518f6bd211a146df2","study_id":"605e2a800ccfa0c8e820d869","session_id":"60622095eec9d747eba74648"},{"rt":5796.954999999842,"stimulus":"img/00930.png","slider_start":4,"response":3,"trial_type":"image-slider-response","trial_index":141,"time_elapsed":895552,"internal_node_id":"0.0-3.0-0.138","subject_id":"5ed2994518f6bd211a146df2","study_id":"605e2a800ccfa0c8e820d869","session_id":"60622095eec9d747eba74648"},{"rt":3619.92499999993,"stimulus":"img/00427.png","slider_start":4,"response":7,"trial_type":"image-slider-response","trial_index":142,"time_elapsed":899176,"internal_node_id":"0.0-3.0-0.139","subject_id":"5ed2994518f6bd211a146df2","study_id":"605e2a800ccfa0c8e820d869","session_id":"60622095eec9d747eba74648"},{"rt":4460.3099999999395,"stimulus":"img/00755.png","slider_start":4,"response":6,"trial_type":"image-slider-response","trial_index":143,"time_elapsed":903640,"internal_node_id":"0.0-3.0-0.140","subject_id":"5ed2994518f6bd211a146df2","study_id":"605e2a800ccfa0c8e820d869","session_id":"60622095eec9d747eba74648"},{"rt":4436.824999999953,"stimulus":"img/00059.png","slider_start":4,"response":7,"trial_type":"image-slider-response","trial_index":144,"time_elapsed":908080,"internal_node_id":"0.0-3.0-0.141","subject_id":"5ed2994518f6bd211a146df2","study_id":"605e2a800ccfa0c8e820d869","session_id":"60622095eec9d747eba74648"},{"rt":4556.594999999739,"stimulus":"img/00499.png","slider_start":4,"response":1,"trial_type":"image-slider-response","trial_index":145,"time_elapsed":912640,"internal_node_id":"0.0-3.0-0.142","subject_id":"5ed2994518f6bd211a146df2","study_id":"605e2a800ccfa0c8e820d869","session_id":"60622095eec9d747eba74648"},{"rt":4412.725000000093,"stimulus":"img/00581.png","slider_start":4,"response":1,"trial_type":"image-slider-response","trial_index":146,"time_elapsed":917056,"internal_node_id":"0.0-3.0-0.143","subject_id":"5ed2994518f6bd211a146df2","study_id":"605e2a800ccfa0c8e820d869","session_id":"60622095eec9d747eba74648"},{"rt":4282.165000000037,"stimulus":"img/00957.png","slider_start":4,"response":1,"trial_type":"image-slider-response","trial_index":147,"time_elapsed":921344,"internal_node_id":"0.0-3.0-0.144","subject_id":"5ed2994518f6bd211a146df2","study_id":"605e2a800ccfa0c8e820d869","session_id":"60622095eec9d747eba74648"},{"rt":3835.7950000001583,"stimulus":"img/00045.png","slider_start":4,"response":1,"trial_type":"image-slider-response","trial_index":148,"time_elapsed":925184,"internal_node_id":"0.0-3.0-0.145","subject_id":"5ed2994518f6bd211a146df2","study_id":"605e2a800ccfa0c8e820d869","session_id":"60622095eec9d747eba74648"},{"rt":5053.094999999972,"stimulus":"img/00415.png","slider_start":4,"response":1,"trial_type":"image-slider-response","trial_index":149,"time_elapsed":930240,"internal_node_id":"0.0-3.0-0.146","subject_id":"5ed2994518f6bd211a146df2","study_id":"605e2a800ccfa0c8e820d869","session_id":"60622095eec9d747eba74648"},{"rt":5804.384999999893,"stimulus":"img/00986.png","slider_start":4,"response":3,"trial_type":"image-slider-response","trial_index":150,"time_elapsed":936048,"internal_node_id":"0.0-3.0-0.147","subject_id":"5ed2994518f6bd211a146df2","study_id":"605e2a800ccfa0c8e820d869","session_id":"60622095eec9d747eba74648"},{"rt":3796.6649999998044,"stimulus":"img/00078.png","slider_start":4,"response":1,"trial_type":"image-slider-response","trial_index":151,"time_elapsed":939848,"internal_node_id":"0.0-3.0-0.148","subject_id":"5ed2994518f6bd211a146df2","study_id":"605e2a800ccfa0c8e820d869","session_id":"60622095eec9d747eba74648"},{"rt":7317.099999999977,"stimulus":"img/00989.png","slider_start":4,"response":7,"trial_type":"image-slider-response","trial_index":152,"time_elapsed":947168,"internal_node_id":"0.0-3.0-0.149","subject_id":"5ed2994518f6bd211a146df2","study_id":"605e2a800ccfa0c8e820d869","session_id":"60622095eec9d747eba74648"},{"rt":5332.795000000042,"stimulus":"img/00618.png","slider_start":4,"response":7,"trial_type":"image-slider-response","trial_index":153,"time_elapsed":952504,"internal_node_id":"0.0-3.0-0.150","subject_id":"5ed2994518f6bd211a146df2","study_id":"605e2a800ccfa0c8e820d869","session_id":"60622095eec9d747eba74648"},{"rt":4675.929999999935,"stimulus":"img/00464.png","slider_start":4,"response":1,"trial_type":"image-slider-response","trial_index":154,"time_elapsed":957184,"internal_node_id":"0.0-3.0-0.151","subject_id":"5ed2994518f6bd211a146df2","study_id":"605e2a800ccfa0c8e820d869","session_id":"60622095eec9d747eba74648"},{"rt":5365.254999999888,"stimulus":"img/00842.png","slider_start":4,"response":7,"trial_type":"image-slider-response","trial_index":155,"time_elapsed":962552,"internal_node_id":"0.0-3.0-0.152","subject_id":"5ed2994518f6bd211a146df2","study_id":"605e2a800ccfa0c8e820d869","session_id":"60622095eec9d747eba74648"},{"rt":4764.635000000009,"stimulus":"img/00543.png","slider_start":4,"response":1,"trial_type":"image-slider-response","trial_index":156,"time_elapsed":967320,"internal_node_id":"0.0-3.0-0.153","subject_id":"5ed2994518f6bd211a146df2","study_id":"605e2a800ccfa0c8e820d869","session_id":"60622095eec9d747eba74648"},{"rt":6868.804999999818,"stimulus":"img/00810.png","slider_start":4,"response":3,"trial_type":"image-slider-response","trial_index":157,"time_elapsed":974192,"internal_node_id":"0.0-3.0-0.154","subject_id":"5ed2994518f6bd211a146df2","study_id":"605e2a800ccfa0c8e820d869","session_id":"60622095eec9d747eba74648"},{"rt":3908.8950000000186,"stimulus":"img/00841.png","slider_start":4,"response":7,"trial_type":"image-slider-response","trial_index":158,"time_elapsed":978105,"internal_node_id":"0.0-3.0-0.155","subject_id":"5ed2994518f6bd211a146df2","study_id":"605e2a800ccfa0c8e820d869","session_id":"60622095eec9d747eba74648"},{"rt":6012.160000000033,"stimulus":"img/40.png","slider_start":4,"response":7,"trial_type":"image-slider-response","trial_index":159,"time_elapsed":984120,"internal_node_id":"0.0-3.0-0.156","subject_id":"5ed2994518f6bd211a146df2","study_id":"605e2a800ccfa0c8e820d869","session_id":"60622095eec9d747eba74648"},{"rt":5556.98499999987,"stimulus":"img/00040.png","slider_start":4,"response":2,"trial_type":"image-slider-response","trial_index":160,"time_elapsed":989680,"internal_node_id":"0.0-3.0-0.157","subject_id":"5ed2994518f6bd211a146df2","study_id":"605e2a800ccfa0c8e820d869","session_id":"60622095eec9d747eba74648"},{"rt":4860.439999999944,"stimulus":"img/00559.png","slider_start":4,"response":6,"trial_type":"image-slider-response","trial_index":161,"time_elapsed":994545,"internal_node_id":"0.0-3.0-0.158","subject_id":"5ed2994518f6bd211a146df2","study_id":"605e2a800ccfa0c8e820d869","session_id":"60622095eec9d747eba74648"},{"rt":4036.2099999999627,"stimulus":"img/00101.png","slider_start":4,"response":1,"trial_type":"image-slider-response","trial_index":162,"time_elapsed":998584,"internal_node_id":"0.0-3.0-0.159","subject_id":"5ed2994518f6bd211a146df2","study_id":"605e2a800ccfa0c8e820d869","session_id":"60622095eec9d747eba74648"},{"rt":8836.71000000008,"stimulus":"img/00779.png","slider_start":4,"response":5,"trial_type":"image-slider-response","trial_index":163,"time_elapsed":1007425,"internal_node_id":"0.0-3.0-0.160","subject_id":"5ed2994518f6bd211a146df2","study_id":"605e2a800ccfa0c8e820d869","session_id":"60622095eec9d747eba74648"},{"rt":4716.494999999879,"stimulus":"img/00764.png","slider_start":4,"response":1,"trial_type":"image-slider-response","trial_index":164,"time_elapsed":1012144,"internal_node_id":"0.0-3.0-0.161","subject_id":"5ed2994518f6bd211a146df2","study_id":"605e2a800ccfa0c8e820d869","session_id":"60622095eec9d747eba74648"},{"rt":6100.055000000051,"stimulus":"img/00525.png","slider_start":4,"response":7,"trial_type":"image-slider-response","trial_index":165,"time_elapsed":1018248,"internal_node_id":"0.0-3.0-0.162","subject_id":"5ed2994518f6bd211a146df2","study_id":"605e2a800ccfa0c8e820d869","session_id":"60622095eec9d747eba74648"},{"rt":4596.929999999935,"stimulus":"img/00690.png","slider_start":4,"response":7,"trial_type":"image-slider-response","trial_index":166,"time_elapsed":1022848,"internal_node_id":"0.0-3.0-0.163","subject_id":"5ed2994518f6bd211a146df2","study_id":"605e2a800ccfa0c8e820d869","session_id":"60622095eec9d747eba74648"},{"rt":5180.655000000028,"stimulus":"img/00507.png","slider_start":4,"response":2,"trial_type":"image-slider-response","trial_index":167,"time_elapsed":1028032,"internal_node_id":"0.0-3.0-0.164","subject_id":"5ed2994518f6bd211a146df2","study_id":"605e2a800ccfa0c8e820d869","session_id":"60622095eec9d747eba74648"},{"rt":4637.219999999972,"stimulus":"img/00848.png","slider_start":4,"response":5,"trial_type":"image-slider-response","trial_index":168,"time_elapsed":1032672,"internal_node_id":"0.0-3.0-0.165","subject_id":"5ed2994518f6bd211a146df2","study_id":"605e2a800ccfa0c8e820d869","session_id":"60622095eec9d747eba74648"},{"rt":4950.454999999958,"stimulus":"img/00077.png","slider_start":4,"response":6,"trial_type":"image-slider-response","trial_index":169,"time_elapsed":1037625,"internal_node_id":"0.0-3.0-0.166","subject_id":"5ed2994518f6bd211a146df2","study_id":"605e2a800ccfa0c8e820d869","session_id":"60622095eec9d747eba74648"},{"rt":6148.539999999921,"stimulus":"img/00002.png","slider_start":4,"response":2,"trial_type":"image-slider-response","trial_index":170,"time_elapsed":1043777,"internal_node_id":"0.0-3.0-0.167","subject_id":"5ed2994518f6bd211a146df2","study_id":"605e2a800ccfa0c8e820d869","session_id":"60622095eec9d747eba74648"},{"rt":4284.369999999879,"stimulus":"img/00928.png","slider_start":4,"response":2,"trial_type":"image-slider-response","trial_index":171,"time_elapsed":1048065,"internal_node_id":"0.0-3.0-0.168","subject_id":"5ed2994518f6bd211a146df2","study_id":"605e2a800ccfa0c8e820d869","session_id":"60622095eec9d747eba74648"},{"rt":4676.905000000028,"stimulus":"img/00479.png","slider_start":4,"response":7,"trial_type":"image-slider-response","trial_index":172,"time_elapsed":1052745,"internal_node_id":"0.0-3.0-0.169","subject_id":"5ed2994518f6bd211a146df2","study_id":"605e2a800ccfa0c8e820d869","session_id":"60622095eec9d747eba74648"},{"rt":4668.175000000047,"stimulus":"img/00570.png","slider_start":4,"response":6,"trial_type":"image-slider-response","trial_index":173,"time_elapsed":1057417,"internal_node_id":"0.0-3.0-0.170","subject_id":"5ed2994518f6bd211a146df2","study_id":"605e2a800ccfa0c8e820d869","session_id":"60622095eec9d747eba74648"},{"rt":7412.614999999991,"stimulus":"img/00404.png","slider_start":4,"response":1,"trial_type":"image-slider-response","trial_index":174,"time_elapsed":1064832,"internal_node_id":"0.0-3.0-0.171","subject_id":"5ed2994518f6bd211a146df2","study_id":"605e2a800ccfa0c8e820d869","session_id":"60622095eec9d747eba74648"}]