[{"rt":6733.075000112876,"stimulus":"Welcome to the experiment. Press any key to begin.","response":"arrowdown","trial_type":"html-keyboard-response","trial_index":0,"time_elapsed":6736,"internal_node_id":"0.0-0.0","subject_id":"5dd5819a535a715242f83192","study_id":"605e2a800ccfa0c8e820d869","session_id":"60620291e08951a1904de509"},{"rt":5876.9849999807775,"stimulus":"\n        <p>In this experiment, a face will appear on-screen.</p><p> <strong>Rate the face on a 1 - 7 scale based on how attractive he / she is.</strong> </p>\n        </div>\n        <p>Press any key to begin.</p>\n      ","response":"arrowdown","trial_type":"html-keyboard-response","trial_index":1,"time_elapsed":12615,"internal_node_id":"0.0-1.0","subject_id":"5dd5819a535a715242f83192","study_id":"605e2a800ccfa0c8e820d869","session_id":"60620291e08951a1904de509"},{"success":true,"timeout":false,"failed_images":[],"failed_audio":[],"failed_video":[],"trial_type":"preload","trial_index":2,"time_elapsed":30490,"internal_node_id":"0.0-2.0","subject_id":"5dd5819a535a715242f83192","study_id":"605e2a800ccfa0c8e820d869","session_id":"60620291e08951a1904de509"},{"rt":5757.830000016838,"stimulus":"img/00842.png","slider_start":4,"response":6,"trial_type":"image-slider-response","trial_index":3,"time_elapsed":36262,"internal_node_id":"0.0-3.0-0.0","subject_id":"5dd5819a535a715242f83192","study_id":"605e2a800ccfa0c8e820d869","session_id":"60620291e08951a1904de509"},{"rt":5741.0450000315905,"stimulus":"img/00576.png","slider_start":4,"response":6,"trial_type":"image-slider-response","trial_index":4,"time_elapsed":42005,"internal_node_id":"0.0-3.0-0.1","subject_id":"5dd5819a535a715242f83192","study_id":"605e2a800ccfa0c8e820d869","session_id":"60620291e08951a1904de509"},{"rt":6005.684999981895,"stimulus":"img/00811.png","slider_start":4,"response":6,"trial_type":"image-slider-response","trial_index":5,"time_elapsed":48014,"internal_node_id":"0.0-3.0-0.2","subject_id":"5dd5819a535a715242f83192","study_id":"605e2a800ccfa0c8e820d869","session_id":"60620291e08951a1904de509"},{"rt":3812.9450001288205,"stimulus":"img/00439.png","slider_start":4,"response":6,"trial_type":"image-slider-response","trial_index":6,"time_elapsed":51830,"internal_node_id":"0.0-3.0-0.3","subject_id":"5dd5819a535a715242f83192","study_id":"605e2a800ccfa0c8e820d869","session_id":"60620291e08951a1904de509"},{"rt":5973.994999891147,"stimulus":"img/00760.png","slider_start":4,"response":3,"trial_type":"image-slider-response","trial_index":7,"time_elapsed":57806,"internal_node_id":"0.0-3.0-0.4","subject_id":"5dd5819a535a715242f83192","study_id":"605e2a800ccfa0c8e820d869","session_id":"60620291e08951a1904de509"},{"rt":3637.760000070557,"stimulus":"img/00418.png","slider_start":4,"response":5,"trial_type":"image-slider-response","trial_index":8,"time_elapsed":61447,"internal_node_id":"0.0-3.0-0.5","subject_id":"5dd5819a535a715242f83192","study_id":"605e2a800ccfa0c8e820d869","session_id":"60620291e08951a1904de509"},{"rt":3301.020000129938,"stimulus":"img/00011.png","slider_start":4,"response":2,"trial_type":"image-slider-response","trial_index":9,"time_elapsed":64750,"internal_node_id":"0.0-3.0-0.6","subject_id":"5dd5819a535a715242f83192","study_id":"605e2a800ccfa0c8e820d869","session_id":"60620291e08951a1904de509"},{"rt":3165.525000076741,"stimulus":"img/00508.png","slider_start":4,"response":1,"trial_type":"image-slider-response","trial_index":10,"time_elapsed":67919,"internal_node_id":"0.0-3.0-0.7","subject_id":"5dd5819a535a715242f83192","study_id":"605e2a800ccfa0c8e820d869","session_id":"60620291e08951a1904de509"},{"rt":3197.7500000502914,"stimulus":"img/00752.png","slider_start":4,"response":5,"trial_type":"image-slider-response","trial_index":11,"time_elapsed":71119,"internal_node_id":"0.0-3.0-0.8","subject_id":"5dd5819a535a715242f83192","study_id":"605e2a800ccfa0c8e820d869","session_id":"60620291e08951a1904de509"},{"rt":2644.9950002133846,"stimulus":"img/00469.png","slider_start":4,"response":2,"trial_type":"image-slider-response","trial_index":12,"time_elapsed":73766,"internal_node_id":"0.0-3.0-0.9","subject_id":"5dd5819a535a715242f83192","study_id":"605e2a800ccfa0c8e820d869","session_id":"60620291e08951a1904de509"},{"rt":3445.7799999509007,"stimulus":"img/00850.png","slider_start":4,"response":5,"trial_type":"image-slider-response","trial_index":13,"time_elapsed":77214,"internal_node_id":"0.0-3.0-0.10","subject_id":"5dd5819a535a715242f83192","study_id":"605e2a800ccfa0c8e820d869","session_id":"60620291e08951a1904de509"},{"rt":3372.9549997951835,"stimulus":"img/00126.png","slider_start":4,"response":1,"trial_type":"image-slider-response","trial_index":14,"time_elapsed":80590,"internal_node_id":"0.0-3.0-0.11","subject_id":"5dd5819a535a715242f83192","study_id":"605e2a800ccfa0c8e820d869","session_id":"60620291e08951a1904de509"},{"rt":3110.5199998710304,"stimulus":"img/00951.png","slider_start":4,"response":5,"trial_type":"image-slider-response","trial_index":15,"time_elapsed":83702,"internal_node_id":"0.0-3.0-0.12","subject_id":"5dd5819a535a715242f83192","study_id":"605e2a800ccfa0c8e820d869","session_id":"60620291e08951a1904de509"},{"rt":4253.844999941066,"stimulus":"img/00129.png","slider_start":4,"response":2,"trial_type":"image-slider-response","trial_index":16,"time_elapsed":87959,"internal_node_id":"0.0-3.0-0.13","subject_id":"5dd5819a535a715242f83192","study_id":"605e2a800ccfa0c8e820d869","session_id":"60620291e08951a1904de509"},{"rt":3892.8849999792874,"stimulus":"img/00472.png","slider_start":4,"response":3,"trial_type":"image-slider-response","trial_index":17,"time_elapsed":91854,"internal_node_id":"0.0-3.0-0.14","subject_id":"5dd5819a535a715242f83192","study_id":"605e2a800ccfa0c8e820d869","session_id":"60620291e08951a1904de509"},{"rt":5414.349999977276,"stimulus":"img/00504.png","slider_start":4,"response":4,"trial_type":"image-slider-response","trial_index":18,"time_elapsed":97270,"internal_node_id":"0.0-3.0-0.15","subject_id":"5dd5819a535a715242f83192","study_id":"605e2a800ccfa0c8e820d869","session_id":"60620291e08951a1904de509"},{"rt":3909.195000072941,"stimulus":"img/00853.png","slider_start":4,"response":4,"trial_type":"image-slider-response","trial_index":19,"time_elapsed":101182,"internal_node_id":"0.0-3.0-0.16","subject_id":"5dd5819a535a715242f83192","study_id":"605e2a800ccfa0c8e820d869","session_id":"60620291e08951a1904de509"},{"rt":3829.965000040829,"stimulus":"img/00037.png","slider_start":4,"response":3,"trial_type":"image-slider-response","trial_index":20,"time_elapsed":105014,"internal_node_id":"0.0-3.0-0.17","subject_id":"5dd5819a535a715242f83192","study_id":"605e2a800ccfa0c8e820d869","session_id":"60620291e08951a1904de509"},{"rt":5141.23999979347,"stimulus":"img/00789.png","slider_start":4,"response":3,"trial_type":"image-slider-response","trial_index":21,"time_elapsed":110157,"internal_node_id":"0.0-3.0-0.18","subject_id":"5dd5819a535a715242f83192","study_id":"605e2a800ccfa0c8e820d869","session_id":"60620291e08951a1904de509"},{"rt":4677.155000157654,"stimulus":"img/00653.png","slider_start":4,"response":4,"trial_type":"image-slider-response","trial_index":22,"time_elapsed":114837,"internal_node_id":"0.0-3.0-0.19","subject_id":"5dd5819a535a715242f83192","study_id":"605e2a800ccfa0c8e820d869","session_id":"60620291e08951a1904de509"},{"rt":4446.029999991879,"stimulus":"img/00404.png","slider_start":4,"response":5,"trial_type":"image-slider-response","trial_index":23,"time_elapsed":119285,"internal_node_id":"0.0-3.0-0.20","subject_id":"5dd5819a535a715242f83192","study_id":"605e2a800ccfa0c8e820d869","session_id":"60620291e08951a1904de509"},{"rt":4613.320000004023,"stimulus":"img/00691.png","slider_start":4,"response":2,"trial_type":"image-slider-response","trial_index":24,"time_elapsed":123901,"internal_node_id":"0.0-3.0-0.21","subject_id":"5dd5819a535a715242f83192","study_id":"605e2a800ccfa0c8e820d869","session_id":"60620291e08951a1904de509"},{"rt":3460.9950000885874,"stimulus":"img/00989.png","slider_start":4,"response":3,"trial_type":"image-slider-response","trial_index":25,"time_elapsed":127365,"internal_node_id":"0.0-3.0-0.22","subject_id":"5dd5819a535a715242f83192","study_id":"605e2a800ccfa0c8e820d869","session_id":"60620291e08951a1904de509"},{"rt":3662.3749998398125,"stimulus":"img/00780.png","slider_start":4,"response":4,"trial_type":"image-slider-response","trial_index":26,"time_elapsed":131030,"internal_node_id":"0.0-3.0-0.23","subject_id":"5dd5819a535a715242f83192","study_id":"605e2a800ccfa0c8e820d869","session_id":"60620291e08951a1904de509"},{"rt":4733.035000041127,"stimulus":"img/00545.png","slider_start":4,"response":3,"trial_type":"image-slider-response","trial_index":27,"time_elapsed":135765,"internal_node_id":"0.0-3.0-0.24","subject_id":"5dd5819a535a715242f83192","study_id":"605e2a800ccfa0c8e820d869","session_id":"60620291e08951a1904de509"},{"rt":3518.0849998723716,"stimulus":"img/00957.png","slider_start":4,"response":3,"trial_type":"image-slider-response","trial_index":28,"time_elapsed":139285,"internal_node_id":"0.0-3.0-0.25","subject_id":"5dd5819a535a715242f83192","study_id":"605e2a800ccfa0c8e820d869","session_id":"60620291e08951a1904de509"},{"rt":3229.3499999213964,"stimulus":"img/00564.png","slider_start":4,"response":4,"trial_type":"image-slider-response","trial_index":29,"time_elapsed":142517,"internal_node_id":"0.0-3.0-0.26","subject_id":"5dd5819a535a715242f83192","study_id":"605e2a800ccfa0c8e820d869","session_id":"60620291e08951a1904de509"},{"rt":2645.9650001488626,"stimulus":"img/00790.png","slider_start":4,"response":6,"trial_type":"image-slider-response","trial_index":30,"time_elapsed":145166,"internal_node_id":"0.0-3.0-0.27","subject_id":"5dd5819a535a715242f83192","study_id":"605e2a800ccfa0c8e820d869","session_id":"60620291e08951a1904de509"},{"rt":3213.074999861419,"stimulus":"img/00460.png","slider_start":4,"response":4,"trial_type":"image-slider-response","trial_index":31,"time_elapsed":148381,"internal_node_id":"0.0-3.0-0.28","subject_id":"5dd5819a535a715242f83192","study_id":"605e2a800ccfa0c8e820d869","session_id":"60620291e08951a1904de509"},{"rt":4333.2799999043345,"stimulus":"img/00015.png","slider_start":4,"response":3,"trial_type":"image-slider-response","trial_index":32,"time_elapsed":152717,"internal_node_id":"0.0-3.0-0.29","subject_id":"5dd5819a535a715242f83192","study_id":"605e2a800ccfa0c8e820d869","session_id":"60620291e08951a1904de509"},{"rt":3734.4349999912083,"stimulus":"img/00995.png","slider_start":4,"response":4,"trial_type":"image-slider-response","trial_index":33,"time_elapsed":156453,"internal_node_id":"0.0-3.0-0.30","subject_id":"5dd5819a535a715242f83192","study_id":"605e2a800ccfa0c8e820d869","session_id":"60620291e08951a1904de509"},{"rt":4853.270000079647,"stimulus":"img/00768.png","slider_start":4,"response":2,"trial_type":"image-slider-response","trial_index":34,"time_elapsed":161309,"internal_node_id":"0.0-3.0-0.31","subject_id":"5dd5819a535a715242f83192","study_id":"605e2a800ccfa0c8e820d869","session_id":"60620291e08951a1904de509"},{"rt":2486.060000024736,"stimulus":"img/00438.png","slider_start":4,"response":6,"trial_type":"image-slider-response","trial_index":35,"time_elapsed":163797,"internal_node_id":"0.0-3.0-0.32","subject_id":"5dd5819a535a715242f83192","study_id":"605e2a800ccfa0c8e820d869","session_id":"60620291e08951a1904de509"},{"rt":3094.180000014603,"stimulus":"img/00406.png","slider_start":4,"response":6,"trial_type":"image-slider-response","trial_index":36,"time_elapsed":166893,"internal_node_id":"0.0-3.0-0.33","subject_id":"5dd5819a535a715242f83192","study_id":"605e2a800ccfa0c8e820d869","session_id":"60620291e08951a1904de509"},{"rt":3717.6099999342114,"stimulus":"img/00878.png","slider_start":4,"response":4,"trial_type":"image-slider-response","trial_index":37,"time_elapsed":170613,"internal_node_id":"0.0-3.0-0.34","subject_id":"5dd5819a535a715242f83192","study_id":"605e2a800ccfa0c8e820d869","session_id":"60620291e08951a1904de509"},{"rt":5438.100000144914,"stimulus":"img/00100.png","slider_start":4,"response":2,"trial_type":"image-slider-response","trial_index":38,"time_elapsed":176053,"internal_node_id":"0.0-3.0-0.35","subject_id":"5dd5819a535a715242f83192","study_id":"605e2a800ccfa0c8e820d869","session_id":"60620291e08951a1904de509"},{"rt":3477.275000186637,"stimulus":"img/00569.png","slider_start":4,"response":4,"trial_type":"image-slider-response","trial_index":39,"time_elapsed":179533,"internal_node_id":"0.0-3.0-0.36","subject_id":"5dd5819a535a715242f83192","study_id":"605e2a800ccfa0c8e820d869","session_id":"60620291e08951a1904de509"},{"rt":2829.2699998710304,"stimulus":"img/00077.png","slider_start":4,"response":6,"trial_type":"image-slider-response","trial_index":40,"time_elapsed":182365,"internal_node_id":"0.0-3.0-0.37","subject_id":"5dd5819a535a715242f83192","study_id":"605e2a800ccfa0c8e820d869","session_id":"60620291e08951a1904de509"},{"rt":2813.615000108257,"stimulus":"img/00982.png","slider_start":4,"response":6,"trial_type":"image-slider-response","trial_index":41,"time_elapsed":185181,"internal_node_id":"0.0-3.0-0.38","subject_id":"5dd5819a535a715242f83192","study_id":"605e2a800ccfa0c8e820d869","session_id":"60620291e08951a1904de509"},{"rt":3429.255000082776,"stimulus":"img/00499.png","slider_start":4,"response":3,"trial_type":"image-slider-response","trial_index":42,"time_elapsed":188613,"internal_node_id":"0.0-3.0-0.39","subject_id":"5dd5819a535a715242f83192","study_id":"605e2a800ccfa0c8e820d869","session_id":"60620291e08951a1904de509"},{"rt":2565.510000102222,"stimulus":"img/00130.png","slider_start":4,"response":2,"trial_type":"image-slider-response","trial_index":43,"time_elapsed":191181,"internal_node_id":"0.0-3.0-0.40","subject_id":"5dd5819a535a715242f83192","study_id":"605e2a800ccfa0c8e820d869","session_id":"60620291e08951a1904de509"},{"rt":2741.6749999392778,"stimulus":"img/00797.png","slider_start":4,"response":5,"trial_type":"image-slider-response","trial_index":44,"time_elapsed":193925,"internal_node_id":"0.0-3.0-0.41","subject_id":"5dd5819a535a715242f83192","study_id":"605e2a800ccfa0c8e820d869","session_id":"60620291e08951a1904de509"},{"rt":4933.719999855384,"stimulus":"img/00456.png","slider_start":4,"response":4,"trial_type":"image-slider-response","trial_index":45,"time_elapsed":198861,"internal_node_id":"0.0-3.0-0.42","subject_id":"5dd5819a535a715242f83192","study_id":"605e2a800ccfa0c8e820d869","session_id":"60620291e08951a1904de509"},{"rt":4709.289999911562,"stimulus":"img/00755.png","slider_start":4,"response":3,"trial_type":"image-slider-response","trial_index":46,"time_elapsed":203573,"internal_node_id":"0.0-3.0-0.43","subject_id":"5dd5819a535a715242f83192","study_id":"605e2a800ccfa0c8e820d869","session_id":"60620291e08951a1904de509"},{"rt":2357.2449998464435,"stimulus":"img/00986.png","slider_start":4,"response":3,"trial_type":"image-slider-response","trial_index":47,"time_elapsed":205933,"internal_node_id":"0.0-3.0-0.44","subject_id":"5dd5819a535a715242f83192","study_id":"605e2a800ccfa0c8e820d869","session_id":"60620291e08951a1904de509"},{"rt":6414.080000016838,"stimulus":"img/00693.png","slider_start":4,"response":6,"trial_type":"image-slider-response","trial_index":48,"time_elapsed":212349,"internal_node_id":"0.0-3.0-0.45","subject_id":"5dd5819a535a715242f83192","study_id":"605e2a800ccfa0c8e820d869","session_id":"60620291e08951a1904de509"},{"rt":3109.1550001874566,"stimulus":"img/00854.png","slider_start":4,"response":4,"trial_type":"image-slider-response","trial_index":49,"time_elapsed":215461,"internal_node_id":"0.0-3.0-0.46","subject_id":"5dd5819a535a715242f83192","study_id":"605e2a800ccfa0c8e820d869","session_id":"60620291e08951a1904de509"},{"rt":3493.3500001206994,"stimulus":"img/00815.png","slider_start":4,"response":4,"trial_type":"image-slider-response","trial_index":50,"time_elapsed":218957,"internal_node_id":"0.0-3.0-0.47","subject_id":"5dd5819a535a715242f83192","study_id":"605e2a800ccfa0c8e820d869","session_id":"60620291e08951a1904de509"},{"rt":3357.1500000543892,"stimulus":"img/00967.png","slider_start":4,"response":4,"trial_type":"image-slider-response","trial_index":51,"time_elapsed":222317,"internal_node_id":"0.0-3.0-0.48","subject_id":"5dd5819a535a715242f83192","study_id":"605e2a800ccfa0c8e820d869","session_id":"60620291e08951a1904de509"},{"rt":2725.8099999744445,"stimulus":"img/00688.png","slider_start":4,"response":5,"trial_type":"image-slider-response","trial_index":52,"time_elapsed":225045,"internal_node_id":"0.0-3.0-0.49","subject_id":"5dd5819a535a715242f83192","study_id":"605e2a800ccfa0c8e820d869","session_id":"60620291e08951a1904de509"},{"rt":3973.085000179708,"stimulus":"img/00722.png","slider_start":4,"response":4,"trial_type":"image-slider-response","trial_index":53,"time_elapsed":229021,"internal_node_id":"0.0-3.0-0.50","subject_id":"5dd5819a535a715242f83192","study_id":"605e2a800ccfa0c8e820d869","session_id":"60620291e08951a1904de509"},{"rt":4565.275000175461,"stimulus":"img/00543.png","slider_start":4,"response":3,"trial_type":"image-slider-response","trial_index":54,"time_elapsed":233590,"internal_node_id":"0.0-3.0-0.51","subject_id":"5dd5819a535a715242f83192","study_id":"605e2a800ccfa0c8e820d869","session_id":"60620291e08951a1904de509"},{"rt":3005.170000018552,"stimulus":"img/00810.png","slider_start":4,"response":4,"trial_type":"image-slider-response","trial_index":55,"time_elapsed":236598,"internal_node_id":"0.0-3.0-0.52","subject_id":"5dd5819a535a715242f83192","study_id":"605e2a800ccfa0c8e820d869","session_id":"60620291e08951a1904de509"},{"rt":2813.330000033602,"stimulus":"img/00928.png","slider_start":4,"response":4,"trial_type":"image-slider-response","trial_index":56,"time_elapsed":239414,"internal_node_id":"0.0-3.0-0.53","subject_id":"5dd5819a535a715242f83192","study_id":"605e2a800ccfa0c8e820d869","session_id":"60620291e08951a1904de509"},{"rt":2877.739999908954,"stimulus":"img/00029.png","slider_start":4,"response":5,"trial_type":"image-slider-response","trial_index":57,"time_elapsed":242294,"internal_node_id":"0.0-3.0-0.54","subject_id":"5dd5819a535a715242f83192","study_id":"605e2a800ccfa0c8e820d869","session_id":"60620291e08951a1904de509"},{"rt":4253.934999927878,"stimulus":"img/00563.png","slider_start":4,"response":3,"trial_type":"image-slider-response","trial_index":58,"time_elapsed":246550,"internal_node_id":"0.0-3.0-0.55","subject_id":"5dd5819a535a715242f83192","study_id":"605e2a800ccfa0c8e820d869","session_id":"60620291e08951a1904de509"},{"rt":3133.089999901131,"stimulus":"img/00511.png","slider_start":4,"response":4,"trial_type":"image-slider-response","trial_index":59,"time_elapsed":249686,"internal_node_id":"0.0-3.0-0.56","subject_id":"5dd5819a535a715242f83192","study_id":"605e2a800ccfa0c8e820d869","session_id":"60620291e08951a1904de509"},{"rt":6765.409999992698,"stimulus":"img/00006.png","slider_start":4,"response":3,"trial_type":"image-slider-response","trial_index":60,"time_elapsed":256454,"internal_node_id":"0.0-3.0-0.57","subject_id":"5dd5819a535a715242f83192","study_id":"605e2a800ccfa0c8e820d869","session_id":"60620291e08951a1904de509"},{"rt":3005.220000166446,"stimulus":"img/00413.png","slider_start":4,"response":3,"trial_type":"image-slider-response","trial_index":61,"time_elapsed":259462,"internal_node_id":"0.0-3.0-0.58","subject_id":"5dd5819a535a715242f83192","study_id":"605e2a800ccfa0c8e820d869","session_id":"60620291e08951a1904de509"},{"rt":4597.400000086054,"stimulus":"img/00052.png","slider_start":4,"response":3,"trial_type":"image-slider-response","trial_index":62,"time_elapsed":264062,"internal_node_id":"0.0-3.0-0.59","subject_id":"5dd5819a535a715242f83192","study_id":"605e2a800ccfa0c8e820d869","session_id":"60620291e08951a1904de509"},{"rt":2749.169999966398,"stimulus":"img/00612.png","slider_start":4,"response":2,"trial_type":"image-slider-response","trial_index":63,"time_elapsed":266814,"internal_node_id":"0.0-3.0-0.60","subject_id":"5dd5819a535a715242f83192","study_id":"605e2a800ccfa0c8e820d869","session_id":"60620291e08951a1904de509"},{"rt":6405.324999941513,"stimulus":"img/00903.png","slider_start":4,"response":1,"trial_type":"image-slider-response","trial_index":64,"time_elapsed":273222,"internal_node_id":"0.0-3.0-0.61","subject_id":"5dd5819a535a715242f83192","study_id":"605e2a800ccfa0c8e820d869","session_id":"60620291e08951a1904de509"},{"rt":3853.1049999874085,"stimulus":"img/00761.png","slider_start":4,"response":3,"trial_type":"image-slider-response","trial_index":65,"time_elapsed":277078,"internal_node_id":"0.0-3.0-0.62","subject_id":"5dd5819a535a715242f83192","study_id":"605e2a800ccfa0c8e820d869","session_id":"60620291e08951a1904de509"},{"rt":2852.3049999494106,"stimulus":"img/00521.png","slider_start":4,"response":4,"trial_type":"image-slider-response","trial_index":66,"time_elapsed":279934,"internal_node_id":"0.0-3.0-0.63","subject_id":"5dd5819a535a715242f83192","study_id":"605e2a800ccfa0c8e820d869","session_id":"60620291e08951a1904de509"},{"rt":4069.779999786988,"stimulus":"img/00833.png","slider_start":4,"response":5,"trial_type":"image-slider-response","trial_index":67,"time_elapsed":284006,"internal_node_id":"0.0-3.0-0.64","subject_id":"5dd5819a535a715242f83192","study_id":"605e2a800ccfa0c8e820d869","session_id":"60620291e08951a1904de509"},{"rt":4133.290000027046,"stimulus":"img/00570.png","slider_start":4,"response":3,"trial_type":"image-slider-response","trial_index":68,"time_elapsed":288142,"internal_node_id":"0.0-3.0-0.65","subject_id":"5dd5819a535a715242f83192","study_id":"605e2a800ccfa0c8e820d869","session_id":"60620291e08951a1904de509"},{"rt":3421.1349999532104,"stimulus":"img/00779.png","slider_start":4,"response":1,"trial_type":"image-slider-response","trial_index":69,"time_elapsed":291566,"internal_node_id":"0.0-3.0-0.66","subject_id":"5dd5819a535a715242f83192","study_id":"605e2a800ccfa0c8e820d869","session_id":"60620291e08951a1904de509"},{"rt":3764.7750000469387,"stimulus":"img/00405.png","slider_start":4,"response":2,"trial_type":"image-slider-response","trial_index":70,"time_elapsed":295334,"internal_node_id":"0.0-3.0-0.67","subject_id":"5dd5819a535a715242f83192","study_id":"605e2a800ccfa0c8e820d869","session_id":"60620291e08951a1904de509"},{"rt":3597.130000125617,"stimulus":"img/00973.png","slider_start":4,"response":4,"trial_type":"image-slider-response","trial_index":71,"time_elapsed":298934,"internal_node_id":"0.0-3.0-0.68","subject_id":"5dd5819a535a715242f83192","study_id":"605e2a800ccfa0c8e820d869","session_id":"60620291e08951a1904de509"},{"rt":2653.215000173077,"stimulus":"img/00489.png","slider_start":4,"response":3,"trial_type":"image-slider-response","trial_index":72,"time_elapsed":301590,"internal_node_id":"0.0-3.0-0.69","subject_id":"5dd5819a535a715242f83192","study_id":"605e2a800ccfa0c8e820d869","session_id":"60620291e08951a1904de509"},{"rt":2669.7900001890957,"stimulus":"img/00998.png","slider_start":4,"response":2,"trial_type":"image-slider-response","trial_index":73,"time_elapsed":304262,"internal_node_id":"0.0-3.0-0.70","subject_id":"5dd5819a535a715242f83192","study_id":"605e2a800ccfa0c8e820d869","session_id":"60620291e08951a1904de509"},{"rt":3525.8349999785423,"stimulus":"img/00042.png","slider_start":4,"response":4,"trial_type":"image-slider-response","trial_index":74,"time_elapsed":307790,"internal_node_id":"0.0-3.0-0.71","subject_id":"5dd5819a535a715242f83192","study_id":"605e2a800ccfa0c8e820d869","session_id":"60620291e08951a1904de509"},{"rt":3573.1699999887496,"stimulus":"img/00432.png","slider_start":4,"response":4,"trial_type":"image-slider-response","trial_index":75,"time_elapsed":311366,"internal_node_id":"0.0-3.0-0.72","subject_id":"5dd5819a535a715242f83192","study_id":"605e2a800ccfa0c8e820d869","session_id":"60620291e08951a1904de509"},{"rt":3469.325000187382,"stimulus":"img/00742.png","slider_start":4,"response":3,"trial_type":"image-slider-response","trial_index":76,"time_elapsed":314838,"internal_node_id":"0.0-3.0-0.73","subject_id":"5dd5819a535a715242f83192","study_id":"605e2a800ccfa0c8e820d869","session_id":"60620291e08951a1904de509"},{"rt":2853.4600001294166,"stimulus":"img/00988.png","slider_start":4,"response":6,"trial_type":"image-slider-response","trial_index":77,"time_elapsed":317694,"internal_node_id":"0.0-3.0-0.74","subject_id":"5dd5819a535a715242f83192","study_id":"605e2a800ccfa0c8e820d869","session_id":"60620291e08951a1904de509"},{"rt":2821.54000014998,"stimulus":"img/00594.png","slider_start":4,"response":4,"trial_type":"image-slider-response","trial_index":78,"time_elapsed":320518,"internal_node_id":"0.0-3.0-0.75","subject_id":"5dd5819a535a715242f83192","study_id":"605e2a800ccfa0c8e820d869","session_id":"60620291e08951a1904de509"},{"rt":5718.3550000190735,"stimulus":"img/00956.png","slider_start":4,"response":4,"trial_type":"image-slider-response","trial_index":79,"time_elapsed":326238,"internal_node_id":"0.0-3.0-0.76","subject_id":"5dd5819a535a715242f83192","study_id":"605e2a800ccfa0c8e820d869","session_id":"60620291e08951a1904de509"},{"rt":2373.294999822974,"stimulus":"img/00913.png","slider_start":4,"response":3,"trial_type":"image-slider-response","trial_index":80,"time_elapsed":328614,"internal_node_id":"0.0-3.0-0.77","subject_id":"5dd5819a535a715242f83192","study_id":"605e2a800ccfa0c8e820d869","session_id":"60620291e08951a1904de509"},{"rt":2605.659999884665,"stimulus":"img/00744.png","slider_start":4,"response":3,"trial_type":"image-slider-response","trial_index":81,"time_elapsed":331222,"internal_node_id":"0.0-3.0-0.78","subject_id":"5dd5819a535a715242f83192","study_id":"605e2a800ccfa0c8e820d869","session_id":"60620291e08951a1904de509"},{"rt":12981.17999988608,"stimulus":"img/00747.png","slider_start":4,"response":3,"trial_type":"image-slider-response","trial_index":82,"time_elapsed":344206,"internal_node_id":"0.0-3.0-0.79","subject_id":"5dd5819a535a715242f83192","study_id":"605e2a800ccfa0c8e820d869","session_id":"60620291e08951a1904de509"},{"rt":2949.2249998729676,"stimulus":"img/00822.png","slider_start":4,"response":4,"trial_type":"image-slider-response","trial_index":83,"time_elapsed":347158,"internal_node_id":"0.0-3.0-0.80","subject_id":"5dd5819a535a715242f83192","study_id":"605e2a800ccfa0c8e820d869","session_id":"60620291e08951a1904de509"},{"rt":4813.799999887124,"stimulus":"img/00127.png","slider_start":4,"response":4,"trial_type":"image-slider-response","trial_index":84,"time_elapsed":351974,"internal_node_id":"0.0-3.0-0.81","subject_id":"5dd5819a535a715242f83192","study_id":"605e2a800ccfa0c8e820d869","session_id":"60620291e08951a1904de509"},{"rt":2181.739999912679,"stimulus":"img/00587.png","slider_start":4,"response":5,"trial_type":"image-slider-response","trial_index":85,"time_elapsed":354158,"internal_node_id":"0.0-3.0-0.82","subject_id":"5dd5819a535a715242f83192","study_id":"605e2a800ccfa0c8e820d869","session_id":"60620291e08951a1904de509"},{"rt":2437.279999954626,"stimulus":"img/00542.png","slider_start":4,"response":5,"trial_type":"image-slider-response","trial_index":86,"time_elapsed":356598,"internal_node_id":"0.0-3.0-0.83","subject_id":"5dd5819a535a715242f83192","study_id":"605e2a800ccfa0c8e820d869","session_id":"60620291e08951a1904de509"},{"rt":2997.154999990016,"stimulus":"img/00437.png","slider_start":4,"response":2,"trial_type":"image-slider-response","trial_index":87,"time_elapsed":359598,"internal_node_id":"0.0-3.0-0.84","subject_id":"5dd5819a535a715242f83192","study_id":"605e2a800ccfa0c8e820d869","session_id":"60620291e08951a1904de509"},{"rt":2805.879999883473,"stimulus":"img/00059.png","slider_start":4,"response":4,"trial_type":"image-slider-response","trial_index":88,"time_elapsed":362406,"internal_node_id":"0.0-3.0-0.85","subject_id":"5dd5819a535a715242f83192","study_id":"605e2a800ccfa0c8e820d869","session_id":"60620291e08951a1904de509"},{"rt":2317.5949999131262,"stimulus":"img/00708.png","slider_start":4,"response":5,"trial_type":"image-slider-response","trial_index":89,"time_elapsed":364725,"internal_node_id":"0.0-3.0-0.86","subject_id":"5dd5819a535a715242f83192","study_id":"605e2a800ccfa0c8e820d869","session_id":"60620291e08951a1904de509"},{"rt":2782.7800000086427,"stimulus":"img/00773.png","slider_start":4,"response":4,"trial_type":"image-slider-response","trial_index":90,"time_elapsed":367510,"internal_node_id":"0.0-3.0-0.87","subject_id":"5dd5819a535a715242f83192","study_id":"605e2a800ccfa0c8e820d869","session_id":"60620291e08951a1904de509"},{"rt":2421.62000015378,"stimulus":"img/00686.png","slider_start":4,"response":4,"trial_type":"image-slider-response","trial_index":91,"time_elapsed":369934,"internal_node_id":"0.0-3.0-0.88","subject_id":"5dd5819a535a715242f83192","study_id":"605e2a800ccfa0c8e820d869","session_id":"60620291e08951a1904de509"},{"rt":3333.7850000243634,"stimulus":"img/00718.png","slider_start":4,"response":6,"trial_type":"image-slider-response","trial_index":92,"time_elapsed":373270,"internal_node_id":"0.0-3.0-0.89","subject_id":"5dd5819a535a715242f83192","study_id":"605e2a800ccfa0c8e820d869","session_id":"60620291e08951a1904de509"},{"rt":4021.1700000800192,"stimulus":"img/00631.png","slider_start":4,"response":4,"trial_type":"image-slider-response","trial_index":93,"time_elapsed":377294,"internal_node_id":"0.0-3.0-0.90","subject_id":"5dd5819a535a715242f83192","study_id":"605e2a800ccfa0c8e820d869","session_id":"60620291e08951a1904de509"},{"rt":3125.0350000336766,"stimulus":"img/00860.png","slider_start":4,"response":5,"trial_type":"image-slider-response","trial_index":94,"time_elapsed":380422,"internal_node_id":"0.0-3.0-0.91","subject_id":"5dd5819a535a715242f83192","study_id":"605e2a800ccfa0c8e820d869","session_id":"60620291e08951a1904de509"},{"rt":5301.484999945387,"stimulus":"img/00016.png","slider_start":4,"response":3,"trial_type":"image-slider-response","trial_index":95,"time_elapsed":385726,"internal_node_id":"0.0-3.0-0.92","subject_id":"5dd5819a535a715242f83192","study_id":"605e2a800ccfa0c8e820d869","session_id":"60620291e08951a1904de509"},{"rt":2541.105000069365,"stimulus":"img/00462.png","slider_start":4,"response":4,"trial_type":"image-slider-response","trial_index":96,"time_elapsed":388270,"internal_node_id":"0.0-3.0-0.93","subject_id":"5dd5819a535a715242f83192","study_id":"605e2a800ccfa0c8e820d869","session_id":"60620291e08951a1904de509"},{"rt":2333.379999967292,"stimulus":"img/00896.png","slider_start":4,"response":6,"trial_type":"image-slider-response","trial_index":97,"time_elapsed":390606,"internal_node_id":"0.0-3.0-0.94","subject_id":"5dd5819a535a715242f83192","study_id":"605e2a800ccfa0c8e820d869","session_id":"60620291e08951a1904de509"},{"rt":4694.235000060871,"stimulus":"img/00690.png","slider_start":4,"response":4,"trial_type":"image-slider-response","trial_index":98,"time_elapsed":395302,"internal_node_id":"0.0-3.0-0.95","subject_id":"5dd5819a535a715242f83192","study_id":"605e2a800ccfa0c8e820d869","session_id":"60620291e08951a1904de509"},{"rt":2957.090000156313,"stimulus":"img/00481.png","slider_start":4,"response":2,"trial_type":"image-slider-response","trial_index":99,"time_elapsed":398262,"internal_node_id":"0.0-3.0-0.96","subject_id":"5dd5819a535a715242f83192","study_id":"605e2a800ccfa0c8e820d869","session_id":"60620291e08951a1904de509"},{"rt":2765.1150000747293,"stimulus":"img/00507.png","slider_start":4,"response":3,"trial_type":"image-slider-response","trial_index":100,"time_elapsed":401030,"internal_node_id":"0.0-3.0-0.97","subject_id":"5dd5819a535a715242f83192","study_id":"605e2a800ccfa0c8e820d869","session_id":"60620291e08951a1904de509"},{"rt":2654.1599999181926,"stimulus":"img/00559.png","slider_start":4,"response":2,"trial_type":"image-slider-response","trial_index":101,"time_elapsed":403686,"internal_node_id":"0.0-3.0-0.98","subject_id":"5dd5819a535a715242f83192","study_id":"605e2a800ccfa0c8e820d869","session_id":"60620291e08951a1904de509"},{"rt":4181.820000056177,"stimulus":"img/00898.png","slider_start":4,"response":4,"trial_type":"image-slider-response","trial_index":102,"time_elapsed":407870,"internal_node_id":"0.0-3.0-0.99","subject_id":"5dd5819a535a715242f83192","study_id":"605e2a800ccfa0c8e820d869","session_id":"60620291e08951a1904de509"},{"rt":2836.9650000240654,"stimulus":"img/00428.png","slider_start":4,"response":3,"trial_type":"image-slider-response","trial_index":103,"time_elapsed":410709,"internal_node_id":"0.0-3.0-0.100","subject_id":"5dd5819a535a715242f83192","study_id":"605e2a800ccfa0c8e820d869","session_id":"60620291e08951a1904de509"},{"rt":4581.349999876693,"stimulus":"img/00093.png","slider_start":4,"response":3,"trial_type":"image-slider-response","trial_index":104,"time_elapsed":415294,"internal_node_id":"0.0-3.0-0.101","subject_id":"5dd5819a535a715242f83192","study_id":"605e2a800ccfa0c8e820d869","session_id":"60620291e08951a1904de509"},{"rt":3964.5100000780076,"stimulus":"img/00522.png","slider_start":4,"response":4,"trial_type":"image-slider-response","trial_index":105,"time_elapsed":419262,"internal_node_id":"0.0-3.0-0.102","subject_id":"5dd5819a535a715242f83192","study_id":"605e2a800ccfa0c8e820d869","session_id":"60620291e08951a1904de509"},{"rt":2500.880000181496,"stimulus":"img/00600.png","slider_start":4,"response":6,"trial_type":"image-slider-response","trial_index":106,"time_elapsed":421766,"internal_node_id":"0.0-3.0-0.103","subject_id":"5dd5819a535a715242f83192","study_id":"605e2a800ccfa0c8e820d869","session_id":"60620291e08951a1904de509"},{"rt":6718.619999941438,"stimulus":"img/00748.png","slider_start":4,"response":6,"trial_type":"image-slider-response","trial_index":107,"time_elapsed":428486,"internal_node_id":"0.0-3.0-0.104","subject_id":"5dd5819a535a715242f83192","study_id":"605e2a800ccfa0c8e820d869","session_id":"60620291e08951a1904de509"},{"rt":3820.880000013858,"stimulus":"img/40.png","slider_start":4,"response":3,"trial_type":"image-slider-response","trial_index":108,"time_elapsed":432309,"internal_node_id":"0.0-3.0-0.105","subject_id":"5dd5819a535a715242f83192","study_id":"605e2a800ccfa0c8e820d869","session_id":"60620291e08951a1904de509"},{"rt":2568.9499999862164,"stimulus":"img/00618.png","slider_start":4,"response":5,"trial_type":"image-slider-response","trial_index":109,"time_elapsed":434881,"internal_node_id":"0.0-3.0-0.106","subject_id":"5dd5819a535a715242f83192","study_id":"605e2a800ccfa0c8e820d869","session_id":"60620291e08951a1904de509"},{"rt":3418.494999874383,"stimulus":"img/00041.png","slider_start":4,"response":4,"trial_type":"image-slider-response","trial_index":110,"time_elapsed":438302,"internal_node_id":"0.0-3.0-0.107","subject_id":"5dd5819a535a715242f83192","study_id":"605e2a800ccfa0c8e820d869","session_id":"60620291e08951a1904de509"},{"rt":2701.300000073388,"stimulus":"img/00902.png","slider_start":4,"response":5,"trial_type":"image-slider-response","trial_index":111,"time_elapsed":441006,"internal_node_id":"0.0-3.0-0.108","subject_id":"5dd5819a535a715242f83192","study_id":"605e2a800ccfa0c8e820d869","session_id":"60620291e08951a1904de509"},{"rt":3334.0600000228733,"stimulus":"img/00581.png","slider_start":4,"response":4,"trial_type":"image-slider-response","trial_index":112,"time_elapsed":444342,"internal_node_id":"0.0-3.0-0.109","subject_id":"5dd5819a535a715242f83192","study_id":"605e2a800ccfa0c8e820d869","session_id":"60620291e08951a1904de509"},{"rt":2421.5100000146776,"stimulus":"img/00554.png","slider_start":4,"response":5,"trial_type":"image-slider-response","trial_index":113,"time_elapsed":446766,"internal_node_id":"0.0-3.0-0.110","subject_id":"5dd5819a535a715242f83192","study_id":"605e2a800ccfa0c8e820d869","session_id":"60620291e08951a1904de509"},{"rt":3230.265000136569,"stimulus":"img/00478.png","slider_start":4,"response":3,"trial_type":"image-slider-response","trial_index":114,"time_elapsed":449998,"internal_node_id":"0.0-3.0-0.111","subject_id":"5dd5819a535a715242f83192","study_id":"605e2a800ccfa0c8e820d869","session_id":"60620291e08951a1904de509"},{"rt":3101.930000120774,"stimulus":"img/00415.png","slider_start":4,"response":3,"trial_type":"image-slider-response","trial_index":115,"time_elapsed":453102,"internal_node_id":"0.0-3.0-0.112","subject_id":"5dd5819a535a715242f83192","study_id":"605e2a800ccfa0c8e820d869","session_id":"60620291e08951a1904de509"},{"rt":5005.104999989271,"stimulus":"img/00012.png","slider_start":4,"response":2,"trial_type":"image-slider-response","trial_index":116,"time_elapsed":458110,"internal_node_id":"0.0-3.0-0.113","subject_id":"5dd5819a535a715242f83192","study_id":"605e2a800ccfa0c8e820d869","session_id":"60620291e08951a1904de509"},{"rt":2837.3000000137836,"stimulus":"img/00040.png","slider_start":4,"response":4,"trial_type":"image-slider-response","trial_index":117,"time_elapsed":460950,"internal_node_id":"0.0-3.0-0.114","subject_id":"5dd5819a535a715242f83192","study_id":"605e2a800ccfa0c8e820d869","session_id":"60620291e08951a1904de509"},{"rt":2061.2549998331815,"stimulus":"img/00991.png","slider_start":4,"response":5,"trial_type":"image-slider-response","trial_index":118,"time_elapsed":463014,"internal_node_id":"0.0-3.0-0.115","subject_id":"5dd5819a535a715242f83192","study_id":"605e2a800ccfa0c8e820d869","session_id":"60620291e08951a1904de509"},{"rt":3885.774999856949,"stimulus":"img/00817.png","slider_start":4,"response":4,"trial_type":"image-slider-response","trial_index":119,"time_elapsed":466902,"internal_node_id":"0.0-3.0-0.116","subject_id":"5dd5819a535a715242f83192","study_id":"605e2a800ccfa0c8e820d869","session_id":"60620291e08951a1904de509"},{"rt":2548.5599997919053,"stimulus":"img/00503.png","slider_start":4,"response":3,"trial_type":"image-slider-response","trial_index":120,"time_elapsed":469454,"internal_node_id":"0.0-3.0-0.117","subject_id":"5dd5819a535a715242f83192","study_id":"605e2a800ccfa0c8e820d869","session_id":"60620291e08951a1904de509"},{"rt":3085.6800000183284,"stimulus":"img/00592.png","slider_start":4,"response":4,"trial_type":"image-slider-response","trial_index":121,"time_elapsed":472542,"internal_node_id":"0.0-3.0-0.118","subject_id":"5dd5819a535a715242f83192","study_id":"605e2a800ccfa0c8e820d869","session_id":"60620291e08951a1904de509"},{"rt":3116.6250000242144,"stimulus":"img/00793.png","slider_start":4,"response":4,"trial_type":"image-slider-response","trial_index":122,"time_elapsed":475661,"internal_node_id":"0.0-3.0-0.119","subject_id":"5dd5819a535a715242f83192","study_id":"605e2a800ccfa0c8e820d869","session_id":"60620291e08951a1904de509"},{"rt":3525.7599998731166,"stimulus":"img/00082.png","slider_start":4,"response":6,"trial_type":"image-slider-response","trial_index":123,"time_elapsed":479189,"internal_node_id":"0.0-3.0-0.120","subject_id":"5dd5819a535a715242f83192","study_id":"605e2a800ccfa0c8e820d869","session_id":"60620291e08951a1904de509"},{"rt":2797.21499979496,"stimulus":"img/00454.png","slider_start":4,"response":2,"trial_type":"image-slider-response","trial_index":124,"time_elapsed":481989,"internal_node_id":"0.0-3.0-0.121","subject_id":"5dd5819a535a715242f83192","study_id":"605e2a800ccfa0c8e820d869","session_id":"60620291e08951a1904de509"},{"rt":2677.4749998003244,"stimulus":"img/00424.png","slider_start":4,"response":2,"trial_type":"image-slider-response","trial_index":125,"time_elapsed":484669,"internal_node_id":"0.0-3.0-0.122","subject_id":"5dd5819a535a715242f83192","study_id":"605e2a800ccfa0c8e820d869","session_id":"60620291e08951a1904de509"},{"rt":2732.645000098273,"stimulus":"img/00479.png","slider_start":4,"response":2,"trial_type":"image-slider-response","trial_index":126,"time_elapsed":487405,"internal_node_id":"0.0-3.0-0.123","subject_id":"5dd5819a535a715242f83192","study_id":"605e2a800ccfa0c8e820d869","session_id":"60620291e08951a1904de509"},{"rt":6325.720000080764,"stimulus":"img/00064.png","slider_start":4,"response":2,"trial_type":"image-slider-response","trial_index":127,"time_elapsed":493733,"internal_node_id":"0.0-3.0-0.124","subject_id":"5dd5819a535a715242f83192","study_id":"605e2a800ccfa0c8e820d869","session_id":"60620291e08951a1904de509"},{"rt":2149.1699998732656,"stimulus":"img/00644.png","slider_start":4,"response":3,"trial_type":"image-slider-response","trial_index":128,"time_elapsed":495885,"internal_node_id":"0.0-3.0-0.125","subject_id":"5dd5819a535a715242f83192","study_id":"605e2a800ccfa0c8e820d869","session_id":"60620291e08951a1904de509"},{"rt":3333.745000185445,"stimulus":"img/00114.png","slider_start":4,"response":5,"trial_type":"image-slider-response","trial_index":129,"time_elapsed":499221,"internal_node_id":"0.0-3.0-0.126","subject_id":"5dd5819a535a715242f83192","study_id":"605e2a800ccfa0c8e820d869","session_id":"60620291e08951a1904de509"},{"rt":2765.4649999458343,"stimulus":"img/00549.png","slider_start":4,"response":6,"trial_type":"image-slider-response","trial_index":130,"time_elapsed":501989,"internal_node_id":"0.0-3.0-0.127","subject_id":"5dd5819a535a715242f83192","study_id":"605e2a800ccfa0c8e820d869","session_id":"60620291e08951a1904de509"},{"rt":2853.5099998116493,"stimulus":"img/00930.png","slider_start":4,"response":4,"trial_type":"image-slider-response","trial_index":131,"time_elapsed":504845,"internal_node_id":"0.0-3.0-0.128","subject_id":"5dd5819a535a715242f83192","study_id":"605e2a800ccfa0c8e820d869","session_id":"60620291e08951a1904de509"},{"rt":2853.2650000415742,"stimulus":"img/00629.png","slider_start":4,"response":3,"trial_type":"image-slider-response","trial_index":132,"time_elapsed":507701,"internal_node_id":"0.0-3.0-0.129","subject_id":"5dd5819a535a715242f83192","study_id":"605e2a800ccfa0c8e820d869","session_id":"60620291e08951a1904de509"},{"rt":2885.550000006333,"stimulus":"img/00447.png","slider_start":4,"response":2,"trial_type":"image-slider-response","trial_index":133,"time_elapsed":510589,"internal_node_id":"0.0-3.0-0.130","subject_id":"5dd5819a535a715242f83192","study_id":"605e2a800ccfa0c8e820d869","session_id":"60620291e08951a1904de509"},{"rt":3029.060000088066,"stimulus":"img/00764.png","slider_start":4,"response":3,"trial_type":"image-slider-response","trial_index":134,"time_elapsed":513621,"internal_node_id":"0.0-3.0-0.131","subject_id":"5dd5819a535a715242f83192","study_id":"605e2a800ccfa0c8e820d869","session_id":"60620291e08951a1904de509"},{"rt":4107.4249998200685,"stimulus":"img/00002.png","slider_start":4,"response":4,"trial_type":"image-slider-response","trial_index":135,"time_elapsed":517733,"internal_node_id":"0.0-3.0-0.132","subject_id":"5dd5819a535a715242f83192","study_id":"605e2a800ccfa0c8e820d869","session_id":"60620291e08951a1904de509"},{"rt":2957.3349999263883,"stimulus":"img/00689.png","slider_start":4,"response":4,"trial_type":"image-slider-response","trial_index":136,"time_elapsed":520693,"internal_node_id":"0.0-3.0-0.133","subject_id":"5dd5819a535a715242f83192","study_id":"605e2a800ccfa0c8e820d869","session_id":"60620291e08951a1904de509"},{"rt":2621.1050001438707,"stimulus":"img/00113.png","slider_start":4,"response":2,"trial_type":"image-slider-response","trial_index":137,"time_elapsed":523317,"internal_node_id":"0.0-3.0-0.134","subject_id":"5dd5819a535a715242f83192","study_id":"605e2a800ccfa0c8e820d869","session_id":"60620291e08951a1904de509"},{"rt":3293.6099998187274,"stimulus":"img/00464.png","slider_start":4,"response":4,"trial_type":"image-slider-response","trial_index":138,"time_elapsed":526613,"internal_node_id":"0.0-3.0-0.135","subject_id":"5dd5819a535a715242f83192","study_id":"605e2a800ccfa0c8e820d869","session_id":"60620291e08951a1904de509"},{"rt":3037.1000000741333,"stimulus":"img/00496.png","slider_start":4,"response":4,"trial_type":"image-slider-response","trial_index":139,"time_elapsed":529653,"internal_node_id":"0.0-3.0-0.136","subject_id":"5dd5819a535a715242f83192","study_id":"605e2a800ccfa0c8e820d869","session_id":"60620291e08951a1904de509"},{"rt":2773.849999997765,"stimulus":"img/00926.png","slider_start":4,"response":4,"trial_type":"image-slider-response","trial_index":140,"time_elapsed":532430,"internal_node_id":"0.0-3.0-0.137","subject_id":"5dd5819a535a715242f83192","study_id":"605e2a800ccfa0c8e820d869","session_id":"60620291e08951a1904de509"},{"rt":2205.7349998503923,"stimulus":"img/00623.png","slider_start":4,"response":4,"trial_type":"image-slider-response","trial_index":141,"time_elapsed":534638,"internal_node_id":"0.0-3.0-0.138","subject_id":"5dd5819a535a715242f83192","study_id":"605e2a800ccfa0c8e820d869","session_id":"60620291e08951a1904de509"},{"rt":2515.790000092238,"stimulus":"img/00466.png","slider_start":4,"response":5,"trial_type":"image-slider-response","trial_index":142,"time_elapsed":537157,"internal_node_id":"0.0-3.0-0.139","subject_id":"5dd5819a535a715242f83192","study_id":"605e2a800ccfa0c8e820d869","session_id":"60620291e08951a1904de509"},{"rt":3054.0199999231845,"stimulus":"img/00809.png","slider_start":4,"response":5,"trial_type":"image-slider-response","trial_index":143,"time_elapsed":540213,"internal_node_id":"0.0-3.0-0.140","subject_id":"5dd5819a535a715242f83192","study_id":"605e2a800ccfa0c8e820d869","session_id":"60620291e08951a1904de509"},{"rt":2157.674999907613,"stimulus":"img/00785.png","slider_start":4,"response":5,"trial_type":"image-slider-response","trial_index":144,"time_elapsed":542373,"internal_node_id":"0.0-3.0-0.141","subject_id":"5dd5819a535a715242f83192","study_id":"605e2a800ccfa0c8e820d869","session_id":"60620291e08951a1904de509"},{"rt":2189.974999986589,"stimulus":"img/00561.png","slider_start":4,"response":6,"trial_type":"image-slider-response","trial_index":145,"time_elapsed":544565,"internal_node_id":"0.0-3.0-0.142","subject_id":"5dd5819a535a715242f83192","study_id":"605e2a800ccfa0c8e820d869","session_id":"60620291e08951a1904de509"},{"rt":2773.5299998894334,"stimulus":"img/00401.png","slider_start":4,"response":5,"trial_type":"image-slider-response","trial_index":146,"time_elapsed":547341,"internal_node_id":"0.0-3.0-0.143","subject_id":"5dd5819a535a715242f83192","study_id":"605e2a800ccfa0c8e820d869","session_id":"60620291e08951a1904de509"},{"rt":2501.7949999310076,"stimulus":"img/00756.png","slider_start":4,"response":3,"trial_type":"image-slider-response","trial_index":147,"time_elapsed":549845,"internal_node_id":"0.0-3.0-0.144","subject_id":"5dd5819a535a715242f83192","study_id":"605e2a800ccfa0c8e820d869","session_id":"60620291e08951a1904de509"},{"rt":3197.694999864325,"stimulus":"img/00759.png","slider_start":4,"response":4,"trial_type":"image-slider-response","trial_index":148,"time_elapsed":553045,"internal_node_id":"0.0-3.0-0.145","subject_id":"5dd5819a535a715242f83192","study_id":"605e2a800ccfa0c8e820d869","session_id":"60620291e08951a1904de509"},{"rt":2378.8099999073893,"stimulus":"img/00055.png","slider_start":4,"response":4,"trial_type":"image-slider-response","trial_index":149,"time_elapsed":555429,"internal_node_id":"0.0-3.0-0.146","subject_id":"5dd5819a535a715242f83192","study_id":"605e2a800ccfa0c8e820d869","session_id":"60620291e08951a1904de509"},{"rt":3158.3099998533726,"stimulus":"img/00525.png","slider_start":4,"response":4,"trial_type":"image-slider-response","trial_index":150,"time_elapsed":558589,"internal_node_id":"0.0-3.0-0.147","subject_id":"5dd5819a535a715242f83192","study_id":"605e2a800ccfa0c8e820d869","session_id":"60620291e08951a1904de509"},{"rt":3197.3299998790026,"stimulus":"img/00867.png","slider_start":4,"response":5,"trial_type":"image-slider-response","trial_index":151,"time_elapsed":561789,"internal_node_id":"0.0-3.0-0.148","subject_id":"5dd5819a535a715242f83192","study_id":"605e2a800ccfa0c8e820d869","session_id":"60620291e08951a1904de509"},{"rt":2541.5449999272823,"stimulus":"img/00440.png","slider_start":4,"response":3,"trial_type":"image-slider-response","trial_index":152,"time_elapsed":564333,"internal_node_id":"0.0-3.0-0.149","subject_id":"5dd5819a535a715242f83192","study_id":"605e2a800ccfa0c8e820d869","session_id":"60620291e08951a1904de509"},{"rt":2452.8850000351667,"stimulus":"img/00799.png","slider_start":4,"response":4,"trial_type":"image-slider-response","trial_index":153,"time_elapsed":566789,"internal_node_id":"0.0-3.0-0.150","subject_id":"5dd5819a535a715242f83192","study_id":"605e2a800ccfa0c8e820d869","session_id":"60620291e08951a1904de509"},{"rt":2445.5399999860674,"stimulus":"img/00949.png","slider_start":4,"response":3,"trial_type":"image-slider-response","trial_index":154,"time_elapsed":569237,"internal_node_id":"0.0-3.0-0.151","subject_id":"5dd5819a535a715242f83192","study_id":"605e2a800ccfa0c8e820d869","session_id":"60620291e08951a1904de509"},{"rt":2221.7250000685453,"stimulus":"img/00101.png","slider_start":4,"response":5,"trial_type":"image-slider-response","trial_index":155,"time_elapsed":571461,"internal_node_id":"0.0-3.0-0.152","subject_id":"5dd5819a535a715242f83192","study_id":"605e2a800ccfa0c8e820d869","session_id":"60620291e08951a1904de509"},{"rt":2485.534999985248,"stimulus":"img/00731.png","slider_start":4,"response":6,"trial_type":"image-slider-response","trial_index":156,"time_elapsed":573949,"internal_node_id":"0.0-3.0-0.153","subject_id":"5dd5819a535a715242f83192","study_id":"605e2a800ccfa0c8e820d869","session_id":"60620291e08951a1904de509"},{"rt":2261.9200001936406,"stimulus":"img/00045.png","slider_start":4,"response":5,"trial_type":"image-slider-response","trial_index":157,"time_elapsed":576213,"internal_node_id":"0.0-3.0-0.154","subject_id":"5dd5819a535a715242f83192","study_id":"605e2a800ccfa0c8e820d869","session_id":"60620291e08951a1904de509"},{"rt":5525.984999956563,"stimulus":"img/00791.png","slider_start":4,"response":3,"trial_type":"image-slider-response","trial_index":158,"time_elapsed":581741,"internal_node_id":"0.0-3.0-0.155","subject_id":"5dd5819a535a715242f83192","study_id":"605e2a800ccfa0c8e820d869","session_id":"60620291e08951a1904de509"},{"rt":3310.50999998115,"stimulus":"img/00825.png","slider_start":4,"response":2,"trial_type":"image-slider-response","trial_index":159,"time_elapsed":585054,"internal_node_id":"0.0-3.0-0.156","subject_id":"5dd5819a535a715242f83192","study_id":"605e2a800ccfa0c8e820d869","session_id":"60620291e08951a1904de509"},{"rt":2364.510000217706,"stimulus":"img/00079.png","slider_start":4,"response":5,"trial_type":"image-slider-response","trial_index":160,"time_elapsed":587421,"internal_node_id":"0.0-3.0-0.157","subject_id":"5dd5819a535a715242f83192","study_id":"605e2a800ccfa0c8e820d869","session_id":"60620291e08951a1904de509"},{"rt":2950.5600000265986,"stimulus":"img/00879.png","slider_start":4,"response":2,"trial_type":"image-slider-response","trial_index":161,"time_elapsed":590373,"internal_node_id":"0.0-3.0-0.158","subject_id":"5dd5819a535a715242f83192","study_id":"605e2a800ccfa0c8e820d869","session_id":"60620291e08951a1904de509"},{"rt":3613.474999787286,"stimulus":"img/00427.png","slider_start":4,"response":4,"trial_type":"image-slider-response","trial_index":162,"time_elapsed":593989,"internal_node_id":"0.0-3.0-0.159","subject_id":"5dd5819a535a715242f83192","study_id":"605e2a800ccfa0c8e820d869","session_id":"60620291e08951a1904de509"},{"rt":4525.595000013709,"stimulus":"img/00023.png","slider_start":4,"response":7,"trial_type":"image-slider-response","trial_index":163,"time_elapsed":598517,"internal_node_id":"0.0-3.0-0.160","subject_id":"5dd5819a535a715242f83192","study_id":"605e2a800ccfa0c8e820d869","session_id":"60620291e08951a1904de509"},{"rt":3124.9600001610816,"stimulus":"img/00115.png","slider_start":4,"response":5,"trial_type":"image-slider-response","trial_index":164,"time_elapsed":601645,"internal_node_id":"0.0-3.0-0.161","subject_id":"5dd5819a535a715242f83192","study_id":"605e2a800ccfa0c8e820d869","session_id":"60620291e08951a1904de509"},{"rt":2453.795000212267,"stimulus":"img/00841.png","slider_start":4,"response":4,"trial_type":"image-slider-response","trial_index":165,"time_elapsed":604101,"internal_node_id":"0.0-3.0-0.162","subject_id":"5dd5819a535a715242f83192","study_id":"605e2a800ccfa0c8e820d869","session_id":"60620291e08951a1904de509"},{"rt":2285.6250000186265,"stimulus":"img/00483.png","slider_start":4,"response":6,"trial_type":"image-slider-response","trial_index":166,"time_elapsed":606388,"internal_node_id":"0.0-3.0-0.163","subject_id":"5dd5819a535a715242f83192","study_id":"605e2a800ccfa0c8e820d869","session_id":"60620291e08951a1904de509"},{"rt":5582.02000008896,"stimulus":"img/00105.png","slider_start":4,"response":5,"trial_type":"image-slider-response","trial_index":167,"time_elapsed":611973,"internal_node_id":"0.0-3.0-0.164","subject_id":"5dd5819a535a715242f83192","study_id":"605e2a800ccfa0c8e820d869","session_id":"60620291e08951a1904de509"},{"rt":2758.0099999904633,"stimulus":"img/00801.png","slider_start":4,"response":4,"trial_type":"image-slider-response","trial_index":168,"time_elapsed":614733,"internal_node_id":"0.0-3.0-0.165","subject_id":"5dd5819a535a715242f83192","study_id":"605e2a800ccfa0c8e820d869","session_id":"60620291e08951a1904de509"},{"rt":2572.799999965355,"stimulus":"img/00018.png","slider_start":4,"response":5,"trial_type":"image-slider-response","trial_index":169,"time_elapsed":617308,"internal_node_id":"0.0-3.0-0.166","subject_id":"5dd5819a535a715242f83192","study_id":"605e2a800ccfa0c8e820d869","session_id":"60620291e08951a1904de509"},{"rt":2454.8899999354035,"stimulus":"img/00122.png","slider_start":4,"response":4,"trial_type":"image-slider-response","trial_index":170,"time_elapsed":619765,"internal_node_id":"0.0-3.0-0.167","subject_id":"5dd5819a535a715242f83192","study_id":"605e2a800ccfa0c8e820d869","session_id":"60620291e08951a1904de509"},{"rt":2605.7450000662357,"stimulus":"img/00078.png","slider_start":4,"response":6,"trial_type":"image-slider-response","trial_index":171,"time_elapsed":622373,"internal_node_id":"0.0-3.0-0.168","subject_id":"5dd5819a535a715242f83192","study_id":"605e2a800ccfa0c8e820d869","session_id":"60620291e08951a1904de509"},{"rt":2437.2199999634176,"stimulus":"img/00848.png","slider_start":4,"response":4,"trial_type":"image-slider-response","trial_index":172,"time_elapsed":624813,"internal_node_id":"0.0-3.0-0.169","subject_id":"5dd5819a535a715242f83192","study_id":"605e2a800ccfa0c8e820d869","session_id":"60620291e08951a1904de509"},{"rt":2549.925000173971,"stimulus":"img/00048.png","slider_start":4,"response":4,"trial_type":"image-slider-response","trial_index":173,"time_elapsed":627365,"internal_node_id":"0.0-3.0-0.170","subject_id":"5dd5819a535a715242f83192","study_id":"605e2a800ccfa0c8e820d869","session_id":"60620291e08951a1904de509"},{"rt":3381.404999876395,"stimulus":"img/00603.png","slider_start":4,"response":3,"trial_type":"image-slider-response","trial_index":174,"time_elapsed":630749,"internal_node_id":"0.0-3.0-0.171","subject_id":"5dd5819a535a715242f83192","study_id":"605e2a800ccfa0c8e820d869","session_id":"60620291e08951a1904de509"}]