[{"rt":1784.5300000044517,"stimulus":"Welcome to the experiment. Press any key to begin.","response":"h","trial_type":"html-keyboard-response","trial_index":0,"time_elapsed":1785,"internal_node_id":"0.0-0.0","subject_id":"5c71da185cb1830001ffb572","study_id":"605e2a800ccfa0c8e820d869","session_id":"60620257a44faddadc57d400"},{"rt":6958.4649999887915,"stimulus":"\n        <p>In this experiment, a face will appear on-screen.</p><p> <strong>Rate the face on a 1 - 7 scale based on how attractive he / she is.</strong> </p>\n        </div>\n        <p>Press any key to begin.</p>\n      ","response":"f","trial_type":"html-keyboard-response","trial_index":1,"time_elapsed":8744,"internal_node_id":"0.0-1.0","subject_id":"5c71da185cb1830001ffb572","study_id":"605e2a800ccfa0c8e820d869","session_id":"60620257a44faddadc57d400"},{"success":true,"timeout":false,"failed_images":[],"failed_audio":[],"failed_video":[],"trial_type":"preload","trial_index":2,"time_elapsed":56544,"internal_node_id":"0.0-2.0","subject_id":"5c71da185cb1830001ffb572","study_id":"605e2a800ccfa0c8e820d869","session_id":"60620257a44faddadc57d400"},{"rt":15758.889999997336,"stimulus":"img/00957.png","slider_start":4,"response":3,"trial_type":"image-slider-response","trial_index":3,"time_elapsed":72309,"internal_node_id":"0.0-3.0-0.0","subject_id":"5c71da185cb1830001ffb572","study_id":"605e2a800ccfa0c8e820d869","session_id":"60620257a44faddadc57d400"},{"rt":8109.779999998864,"stimulus":"img/00623.png","slider_start":4,"response":6,"trial_type":"image-slider-response","trial_index":4,"time_elapsed":80420,"internal_node_id":"0.0-3.0-0.1","subject_id":"5c71da185cb1830001ffb572","study_id":"605e2a800ccfa0c8e820d869","session_id":"60620257a44faddadc57d400"},{"rt":15613.819999998668,"stimulus":"img/00742.png","slider_start":4,"response":4,"trial_type":"image-slider-response","trial_index":5,"time_elapsed":96036,"internal_node_id":"0.0-3.0-0.2","subject_id":"5c71da185cb1830001ffb572","study_id":"605e2a800ccfa0c8e820d869","session_id":"60620257a44faddadc57d400"},{"rt":6078.395000004093,"stimulus":"img/00581.png","slider_start":4,"response":3,"trial_type":"image-slider-response","trial_index":6,"time_elapsed":102115,"internal_node_id":"0.0-3.0-0.3","subject_id":"5c71da185cb1830001ffb572","study_id":"605e2a800ccfa0c8e820d869","session_id":"60620257a44faddadc57d400"},{"rt":8038.270000004559,"stimulus":"img/00926.png","slider_start":4,"response":3,"trial_type":"image-slider-response","trial_index":7,"time_elapsed":110155,"internal_node_id":"0.0-3.0-0.4","subject_id":"5c71da185cb1830001ffb572","study_id":"605e2a800ccfa0c8e820d869","session_id":"60620257a44faddadc57d400"},{"rt":7614.335000005667,"stimulus":"img/00115.png","slider_start":4,"response":2,"trial_type":"image-slider-response","trial_index":8,"time_elapsed":117770,"internal_node_id":"0.0-3.0-0.5","subject_id":"5c71da185cb1830001ffb572","study_id":"605e2a800ccfa0c8e820d869","session_id":"60620257a44faddadc57d400"},{"rt":7446.2599999969825,"stimulus":"img/00879.png","slider_start":4,"response":5,"trial_type":"image-slider-response","trial_index":9,"time_elapsed":125218,"internal_node_id":"0.0-3.0-0.6","subject_id":"5c71da185cb1830001ffb572","study_id":"605e2a800ccfa0c8e820d869","session_id":"60620257a44faddadc57d400"},{"rt":4358.430000007502,"stimulus":"img/00404.png","slider_start":4,"response":2,"trial_type":"image-slider-response","trial_index":10,"time_elapsed":129577,"internal_node_id":"0.0-3.0-0.7","subject_id":"5c71da185cb1830001ffb572","study_id":"605e2a800ccfa0c8e820d869","session_id":"60620257a44faddadc57d400"},{"rt":2630.8850000059465,"stimulus":"img/00460.png","slider_start":4,"response":6,"trial_type":"image-slider-response","trial_index":11,"time_elapsed":132210,"internal_node_id":"0.0-3.0-0.8","subject_id":"5c71da185cb1830001ffb572","study_id":"605e2a800ccfa0c8e820d869","session_id":"60620257a44faddadc57d400"},{"rt":7270.39999999397,"stimulus":"img/00600.png","slider_start":4,"response":3,"trial_type":"image-slider-response","trial_index":12,"time_elapsed":139481,"internal_node_id":"0.0-3.0-0.9","subject_id":"5c71da185cb1830001ffb572","study_id":"605e2a800ccfa0c8e820d869","session_id":"60620257a44faddadc57d400"},{"rt":7014.259999996284,"stimulus":"img/00559.png","slider_start":4,"response":3,"trial_type":"image-slider-response","trial_index":13,"time_elapsed":146497,"internal_node_id":"0.0-3.0-0.10","subject_id":"5c71da185cb1830001ffb572","study_id":"605e2a800ccfa0c8e820d869","session_id":"60620257a44faddadc57d400"},{"rt":3926.3949999876786,"stimulus":"img/00603.png","slider_start":4,"response":4,"trial_type":"image-slider-response","trial_index":14,"time_elapsed":150424,"internal_node_id":"0.0-3.0-0.11","subject_id":"5c71da185cb1830001ffb572","study_id":"605e2a800ccfa0c8e820d869","session_id":"60620257a44faddadc57d400"},{"rt":2478.59499999322,"stimulus":"img/00764.png","slider_start":4,"response":4,"trial_type":"image-slider-response","trial_index":15,"time_elapsed":152904,"internal_node_id":"0.0-3.0-0.12","subject_id":"5c71da185cb1830001ffb572","study_id":"605e2a800ccfa0c8e820d869","session_id":"60620257a44faddadc57d400"},{"rt":3502.970000001369,"stimulus":"img/00503.png","slider_start":4,"response":3,"trial_type":"image-slider-response","trial_index":16,"time_elapsed":156408,"internal_node_id":"0.0-3.0-0.13","subject_id":"5c71da185cb1830001ffb572","study_id":"605e2a800ccfa0c8e820d869","session_id":"60620257a44faddadc57d400"},{"rt":4966.459999996005,"stimulus":"img/00012.png","slider_start":4,"response":3,"trial_type":"image-slider-response","trial_index":17,"time_elapsed":161376,"internal_node_id":"0.0-3.0-0.14","subject_id":"5c71da185cb1830001ffb572","study_id":"605e2a800ccfa0c8e820d869","session_id":"60620257a44faddadc57d400"},{"rt":7053.984999991371,"stimulus":"img/00570.png","slider_start":4,"response":5,"trial_type":"image-slider-response","trial_index":18,"time_elapsed":168431,"internal_node_id":"0.0-3.0-0.15","subject_id":"5c71da185cb1830001ffb572","study_id":"605e2a800ccfa0c8e820d869","session_id":"60620257a44faddadc57d400"},{"rt":2822.635000004084,"stimulus":"img/00825.png","slider_start":4,"response":5,"trial_type":"image-slider-response","trial_index":19,"time_elapsed":171255,"internal_node_id":"0.0-3.0-0.16","subject_id":"5c71da185cb1830001ffb572","study_id":"605e2a800ccfa0c8e820d869","session_id":"60620257a44faddadc57d400"},{"rt":2278.839999999036,"stimulus":"img/00930.png","slider_start":4,"response":5,"trial_type":"image-slider-response","trial_index":20,"time_elapsed":173535,"internal_node_id":"0.0-3.0-0.17","subject_id":"5c71da185cb1830001ffb572","study_id":"605e2a800ccfa0c8e820d869","session_id":"60620257a44faddadc57d400"},{"rt":3286.9299999874784,"stimulus":"img/00042.png","slider_start":4,"response":2,"trial_type":"image-slider-response","trial_index":21,"time_elapsed":176823,"internal_node_id":"0.0-3.0-0.18","subject_id":"5c71da185cb1830001ffb572","study_id":"605e2a800ccfa0c8e820d869","session_id":"60620257a44faddadc57d400"},{"rt":7030.474999992293,"stimulus":"img/00481.png","slider_start":4,"response":4,"trial_type":"image-slider-response","trial_index":22,"time_elapsed":183854,"internal_node_id":"0.0-3.0-0.19","subject_id":"5c71da185cb1830001ffb572","study_id":"605e2a800ccfa0c8e820d869","session_id":"60620257a44faddadc57d400"},{"rt":2206.2350000051083,"stimulus":"img/00867.png","slider_start":4,"response":5,"trial_type":"image-slider-response","trial_index":23,"time_elapsed":186062,"internal_node_id":"0.0-3.0-0.20","subject_id":"5c71da185cb1830001ffb572","study_id":"605e2a800ccfa0c8e820d869","session_id":"60620257a44faddadc57d400"},{"rt":2823.100000008708,"stimulus":"img/00756.png","slider_start":4,"response":5,"trial_type":"image-slider-response","trial_index":24,"time_elapsed":188886,"internal_node_id":"0.0-3.0-0.21","subject_id":"5c71da185cb1830001ffb572","study_id":"605e2a800ccfa0c8e820d869","session_id":"60620257a44faddadc57d400"},{"rt":6790.0900000095135,"stimulus":"img/00841.png","slider_start":4,"response":6,"trial_type":"image-slider-response","trial_index":25,"time_elapsed":195677,"internal_node_id":"0.0-3.0-0.22","subject_id":"5c71da185cb1830001ffb572","study_id":"605e2a800ccfa0c8e820d869","session_id":"60620257a44faddadc57d400"},{"rt":3198.7500000104774,"stimulus":"img/00612.png","slider_start":4,"response":3,"trial_type":"image-slider-response","trial_index":26,"time_elapsed":198877,"internal_node_id":"0.0-3.0-0.23","subject_id":"5c71da185cb1830001ffb572","study_id":"605e2a800ccfa0c8e820d869","session_id":"60620257a44faddadc57d400"},{"rt":4822.509999998147,"stimulus":"img/00464.png","slider_start":4,"response":3,"trial_type":"image-slider-response","trial_index":27,"time_elapsed":203701,"internal_node_id":"0.0-3.0-0.24","subject_id":"5c71da185cb1830001ffb572","study_id":"605e2a800ccfa0c8e820d869","session_id":"60620257a44faddadc57d400"},{"rt":4174.574999997276,"stimulus":"img/00045.png","slider_start":4,"response":3,"trial_type":"image-slider-response","trial_index":28,"time_elapsed":207877,"internal_node_id":"0.0-3.0-0.25","subject_id":"5c71da185cb1830001ffb572","study_id":"605e2a800ccfa0c8e820d869","session_id":"60620257a44faddadc57d400"},{"rt":2606.4299999998184,"stimulus":"img/00101.png","slider_start":4,"response":2,"trial_type":"image-slider-response","trial_index":29,"time_elapsed":210485,"internal_node_id":"0.0-3.0-0.26","subject_id":"5c71da185cb1830001ffb572","study_id":"605e2a800ccfa0c8e820d869","session_id":"60620257a44faddadc57d400"},{"rt":1686.8600000016158,"stimulus":"img/00563.png","slider_start":4,"response":4,"trial_type":"image-slider-response","trial_index":30,"time_elapsed":212173,"internal_node_id":"0.0-3.0-0.27","subject_id":"5c71da185cb1830001ffb572","study_id":"605e2a800ccfa0c8e820d869","session_id":"60620257a44faddadc57d400"},{"rt":3086.7850000067847,"stimulus":"img/00618.png","slider_start":4,"response":4,"trial_type":"image-slider-response","trial_index":31,"time_elapsed":215260,"internal_node_id":"0.0-3.0-0.28","subject_id":"5c71da185cb1830001ffb572","study_id":"605e2a800ccfa0c8e820d869","session_id":"60620257a44faddadc57d400"},{"rt":2862.6950000034412,"stimulus":"img/00079.png","slider_start":4,"response":3,"trial_type":"image-slider-response","trial_index":32,"time_elapsed":218124,"internal_node_id":"0.0-3.0-0.29","subject_id":"5c71da185cb1830001ffb572","study_id":"605e2a800ccfa0c8e820d869","session_id":"60620257a44faddadc57d400"},{"rt":3726.6599999857135,"stimulus":"img/00401.png","slider_start":4,"response":2,"trial_type":"image-slider-response","trial_index":33,"time_elapsed":221852,"internal_node_id":"0.0-3.0-0.30","subject_id":"5c71da185cb1830001ffb572","study_id":"605e2a800ccfa0c8e820d869","session_id":"60620257a44faddadc57d400"},{"rt":5950.46999999613,"stimulus":"img/00779.png","slider_start":4,"response":3,"trial_type":"image-slider-response","trial_index":34,"time_elapsed":227804,"internal_node_id":"0.0-3.0-0.31","subject_id":"5c71da185cb1830001ffb572","study_id":"605e2a800ccfa0c8e820d869","session_id":"60620257a44faddadc57d400"},{"rt":4582.330000004731,"stimulus":"img/00554.png","slider_start":4,"response":4,"trial_type":"image-slider-response","trial_index":35,"time_elapsed":232387,"internal_node_id":"0.0-3.0-0.32","subject_id":"5c71da185cb1830001ffb572","study_id":"605e2a800ccfa0c8e820d869","session_id":"60620257a44faddadc57d400"},{"rt":4654.525000005378,"stimulus":"img/00406.png","slider_start":4,"response":4,"trial_type":"image-slider-response","trial_index":36,"time_elapsed":237043,"internal_node_id":"0.0-3.0-0.33","subject_id":"5c71da185cb1830001ffb572","study_id":"605e2a800ccfa0c8e820d869","session_id":"60620257a44faddadc57d400"},{"rt":3462.635000003502,"stimulus":"img/00822.png","slider_start":4,"response":4,"trial_type":"image-slider-response","trial_index":37,"time_elapsed":240507,"internal_node_id":"0.0-3.0-0.34","subject_id":"5c71da185cb1830001ffb572","study_id":"605e2a800ccfa0c8e820d869","session_id":"60620257a44faddadc57d400"},{"rt":5302.700000000186,"stimulus":"img/00809.png","slider_start":4,"response":3,"trial_type":"image-slider-response","trial_index":38,"time_elapsed":245810,"internal_node_id":"0.0-3.0-0.35","subject_id":"5c71da185cb1830001ffb572","study_id":"605e2a800ccfa0c8e820d869","session_id":"60620257a44faddadc57d400"},{"rt":4230.66000000108,"stimulus":"img/00752.png","slider_start":4,"response":4,"trial_type":"image-slider-response","trial_index":39,"time_elapsed":250042,"internal_node_id":"0.0-3.0-0.36","subject_id":"5c71da185cb1830001ffb572","study_id":"605e2a800ccfa0c8e820d869","session_id":"60620257a44faddadc57d400"},{"rt":2438.510000007227,"stimulus":"img/00902.png","slider_start":4,"response":4,"trial_type":"image-slider-response","trial_index":40,"time_elapsed":252482,"internal_node_id":"0.0-3.0-0.37","subject_id":"5c71da185cb1830001ffb572","study_id":"605e2a800ccfa0c8e820d869","session_id":"60620257a44faddadc57d400"},{"rt":2694.7800000052666,"stimulus":"img/00432.png","slider_start":4,"response":5,"trial_type":"image-slider-response","trial_index":41,"time_elapsed":255178,"internal_node_id":"0.0-3.0-0.38","subject_id":"5c71da185cb1830001ffb572","study_id":"605e2a800ccfa0c8e820d869","session_id":"60620257a44faddadc57d400"},{"rt":1702.369999999064,"stimulus":"img/00055.png","slider_start":4,"response":5,"trial_type":"image-slider-response","trial_index":42,"time_elapsed":256882,"internal_node_id":"0.0-3.0-0.39","subject_id":"5c71da185cb1830001ffb572","study_id":"605e2a800ccfa0c8e820d869","session_id":"60620257a44faddadc57d400"},{"rt":2422.8600000060396,"stimulus":"img/00093.png","slider_start":4,"response":4,"trial_type":"image-slider-response","trial_index":43,"time_elapsed":259306,"internal_node_id":"0.0-3.0-0.40","subject_id":"5c71da185cb1830001ffb572","study_id":"605e2a800ccfa0c8e820d869","session_id":"60620257a44faddadc57d400"},{"rt":6206.854999996722,"stimulus":"img/00810.png","slider_start":4,"response":3,"trial_type":"image-slider-response","trial_index":44,"time_elapsed":265514,"internal_node_id":"0.0-3.0-0.41","subject_id":"5c71da185cb1830001ffb572","study_id":"605e2a800ccfa0c8e820d869","session_id":"60620257a44faddadc57d400"},{"rt":2558.470000003581,"stimulus":"img/00748.png","slider_start":4,"response":2,"trial_type":"image-slider-response","trial_index":45,"time_elapsed":268073,"internal_node_id":"0.0-3.0-0.42","subject_id":"5c71da185cb1830001ffb572","study_id":"605e2a800ccfa0c8e820d869","session_id":"60620257a44faddadc57d400"},{"rt":1646.9950000027893,"stimulus":"img/00511.png","slider_start":4,"response":4,"trial_type":"image-slider-response","trial_index":46,"time_elapsed":269721,"internal_node_id":"0.0-3.0-0.43","subject_id":"5c71da185cb1830001ffb572","study_id":"605e2a800ccfa0c8e820d869","session_id":"60620257a44faddadc57d400"},{"rt":1670.7800000003772,"stimulus":"img/00760.png","slider_start":4,"response":4,"trial_type":"image-slider-response","trial_index":47,"time_elapsed":271393,"internal_node_id":"0.0-3.0-0.44","subject_id":"5c71da185cb1830001ffb572","study_id":"605e2a800ccfa0c8e820d869","session_id":"60620257a44faddadc57d400"},{"rt":1302.815000002738,"stimulus":"img/00991.png","slider_start":4,"response":4,"trial_type":"image-slider-response","trial_index":48,"time_elapsed":272697,"internal_node_id":"0.0-3.0-0.45","subject_id":"5c71da185cb1830001ffb572","study_id":"605e2a800ccfa0c8e820d869","session_id":"60620257a44faddadc57d400"},{"rt":2086.9349999993574,"stimulus":"img/00549.png","slider_start":4,"response":4,"trial_type":"image-slider-response","trial_index":49,"time_elapsed":274785,"internal_node_id":"0.0-3.0-0.46","subject_id":"5c71da185cb1830001ffb572","study_id":"605e2a800ccfa0c8e820d869","session_id":"60620257a44faddadc57d400"},{"rt":5270.989999989979,"stimulus":"img/00113.png","slider_start":4,"response":5,"trial_type":"image-slider-response","trial_index":50,"time_elapsed":280057,"internal_node_id":"0.0-3.0-0.47","subject_id":"5c71da185cb1830001ffb572","study_id":"605e2a800ccfa0c8e820d869","session_id":"60620257a44faddadc57d400"},{"rt":3198.049999991781,"stimulus":"img/00428.png","slider_start":4,"response":3,"trial_type":"image-slider-response","trial_index":51,"time_elapsed":283256,"internal_node_id":"0.0-3.0-0.48","subject_id":"5c71da185cb1830001ffb572","study_id":"605e2a800ccfa0c8e820d869","session_id":"60620257a44faddadc57d400"},{"rt":2710.4249999974854,"stimulus":"img/00850.png","slider_start":4,"response":2,"trial_type":"image-slider-response","trial_index":52,"time_elapsed":285969,"internal_node_id":"0.0-3.0-0.49","subject_id":"5c71da185cb1830001ffb572","study_id":"605e2a800ccfa0c8e820d869","session_id":"60620257a44faddadc57d400"},{"rt":2582.9699999885634,"stimulus":"img/00592.png","slider_start":4,"response":6,"trial_type":"image-slider-response","trial_index":53,"time_elapsed":288553,"internal_node_id":"0.0-3.0-0.50","subject_id":"5c71da185cb1830001ffb572","study_id":"605e2a800ccfa0c8e820d869","session_id":"60620257a44faddadc57d400"},{"rt":1430.99500000244,"stimulus":"img/00755.png","slider_start":4,"response":4,"trial_type":"image-slider-response","trial_index":54,"time_elapsed":289985,"internal_node_id":"0.0-3.0-0.51","subject_id":"5c71da185cb1830001ffb572","study_id":"605e2a800ccfa0c8e820d869","session_id":"60620257a44faddadc57d400"},{"rt":2726.4500000019325,"stimulus":"img/00130.png","slider_start":4,"response":3,"trial_type":"image-slider-response","trial_index":55,"time_elapsed":292713,"internal_node_id":"0.0-3.0-0.52","subject_id":"5c71da185cb1830001ffb572","study_id":"605e2a800ccfa0c8e820d869","session_id":"60620257a44faddadc57d400"},{"rt":5094.680000009248,"stimulus":"img/00462.png","slider_start":4,"response":5,"trial_type":"image-slider-response","trial_index":56,"time_elapsed":297808,"internal_node_id":"0.0-3.0-0.53","subject_id":"5c71da185cb1830001ffb572","study_id":"605e2a800ccfa0c8e820d869","session_id":"60620257a44faddadc57d400"},{"rt":2822.3799999977928,"stimulus":"img/00018.png","slider_start":4,"response":5,"trial_type":"image-slider-response","trial_index":57,"time_elapsed":300632,"internal_node_id":"0.0-3.0-0.54","subject_id":"5c71da185cb1830001ffb572","study_id":"605e2a800ccfa0c8e820d869","session_id":"60620257a44faddadc57d400"},{"rt":2430.7950000074925,"stimulus":"img/00853.png","slider_start":4,"response":5,"trial_type":"image-slider-response","trial_index":58,"time_elapsed":303064,"internal_node_id":"0.0-3.0-0.55","subject_id":"5c71da185cb1830001ffb572","study_id":"605e2a800ccfa0c8e820d869","session_id":"60620257a44faddadc57d400"},{"rt":5022.630000006757,"stimulus":"img/00040.png","slider_start":4,"response":1,"trial_type":"image-slider-response","trial_index":59,"time_elapsed":308088,"internal_node_id":"0.0-3.0-0.56","subject_id":"5c71da185cb1830001ffb572","study_id":"605e2a800ccfa0c8e820d869","session_id":"60620257a44faddadc57d400"},{"rt":2318.5800000064773,"stimulus":"img/00543.png","slider_start":4,"response":6,"trial_type":"image-slider-response","trial_index":60,"time_elapsed":310408,"internal_node_id":"0.0-3.0-0.57","subject_id":"5c71da185cb1830001ffb572","study_id":"605e2a800ccfa0c8e820d869","session_id":"60620257a44faddadc57d400"},{"rt":1670.9899999987101,"stimulus":"img/00797.png","slider_start":4,"response":5,"trial_type":"image-slider-response","trial_index":61,"time_elapsed":312080,"internal_node_id":"0.0-3.0-0.58","subject_id":"5c71da185cb1830001ffb572","study_id":"605e2a800ccfa0c8e820d869","session_id":"60620257a44faddadc57d400"},{"rt":2038.635000004433,"stimulus":"img/00780.png","slider_start":4,"response":4,"trial_type":"image-slider-response","trial_index":62,"time_elapsed":314120,"internal_node_id":"0.0-3.0-0.59","subject_id":"5c71da185cb1830001ffb572","study_id":"605e2a800ccfa0c8e820d869","session_id":"60620257a44faddadc57d400"},{"rt":1430.7650000118883,"stimulus":"img/00928.png","slider_start":4,"response":4,"trial_type":"image-slider-response","trial_index":63,"time_elapsed":315551,"internal_node_id":"0.0-3.0-0.60","subject_id":"5c71da185cb1830001ffb572","study_id":"605e2a800ccfa0c8e820d869","session_id":"60620257a44faddadc57d400"},{"rt":4862.789999999222,"stimulus":"img/00791.png","slider_start":4,"response":3,"trial_type":"image-slider-response","trial_index":64,"time_elapsed":320415,"internal_node_id":"0.0-3.0-0.61","subject_id":"5c71da185cb1830001ffb572","study_id":"605e2a800ccfa0c8e820d869","session_id":"60620257a44faddadc57d400"},{"rt":5062.409999998636,"stimulus":"img/00773.png","slider_start":4,"response":3,"trial_type":"image-slider-response","trial_index":65,"time_elapsed":325479,"internal_node_id":"0.0-3.0-0.62","subject_id":"5c71da185cb1830001ffb572","study_id":"605e2a800ccfa0c8e820d869","session_id":"60620257a44faddadc57d400"},{"rt":2950.540000005276,"stimulus":"img/00913.png","slider_start":4,"response":3,"trial_type":"image-slider-response","trial_index":66,"time_elapsed":328431,"internal_node_id":"0.0-3.0-0.63","subject_id":"5c71da185cb1830001ffb572","study_id":"605e2a800ccfa0c8e820d869","session_id":"60620257a44faddadc57d400"},{"rt":5798.7949999951525,"stimulus":"img/00023.png","slider_start":4,"response":3,"trial_type":"image-slider-response","trial_index":67,"time_elapsed":334230,"internal_node_id":"0.0-3.0-0.64","subject_id":"5c71da185cb1830001ffb572","study_id":"605e2a800ccfa0c8e820d869","session_id":"60620257a44faddadc57d400"},{"rt":2214.6599999978207,"stimulus":"img/00811.png","slider_start":4,"response":3,"trial_type":"image-slider-response","trial_index":68,"time_elapsed":336446,"internal_node_id":"0.0-3.0-0.65","subject_id":"5c71da185cb1830001ffb572","study_id":"605e2a800ccfa0c8e820d869","session_id":"60620257a44faddadc57d400"},{"rt":1798.7749999883818,"stimulus":"img/00801.png","slider_start":4,"response":3,"trial_type":"image-slider-response","trial_index":69,"time_elapsed":338246,"internal_node_id":"0.0-3.0-0.66","subject_id":"5c71da185cb1830001ffb572","study_id":"605e2a800ccfa0c8e820d869","session_id":"60620257a44faddadc57d400"},{"rt":1646.9400000059977,"stimulus":"img/00967.png","slider_start":4,"response":3,"trial_type":"image-slider-response","trial_index":70,"time_elapsed":339894,"internal_node_id":"0.0-3.0-0.67","subject_id":"5c71da185cb1830001ffb572","study_id":"605e2a800ccfa0c8e820d869","session_id":"60620257a44faddadc57d400"},{"rt":2846.6600000101607,"stimulus":"img/00041.png","slider_start":4,"response":5,"trial_type":"image-slider-response","trial_index":71,"time_elapsed":342742,"internal_node_id":"0.0-3.0-0.68","subject_id":"5c71da185cb1830001ffb572","study_id":"605e2a800ccfa0c8e820d869","session_id":"60620257a44faddadc57d400"},{"rt":2278.774999998859,"stimulus":"img/00483.png","slider_start":4,"response":4,"trial_type":"image-slider-response","trial_index":72,"time_elapsed":345022,"internal_node_id":"0.0-3.0-0.69","subject_id":"5c71da185cb1830001ffb572","study_id":"605e2a800ccfa0c8e820d869","session_id":"60620257a44faddadc57d400"},{"rt":1318.6950000090292,"stimulus":"img/00564.png","slider_start":4,"response":4,"trial_type":"image-slider-response","trial_index":73,"time_elapsed":346342,"internal_node_id":"0.0-3.0-0.70","subject_id":"5c71da185cb1830001ffb572","study_id":"605e2a800ccfa0c8e820d869","session_id":"60620257a44faddadc57d400"},{"rt":2198.8649999984773,"stimulus":"img/00456.png","slider_start":4,"response":3,"trial_type":"image-slider-response","trial_index":74,"time_elapsed":348542,"internal_node_id":"0.0-3.0-0.71","subject_id":"5c71da185cb1830001ffb572","study_id":"605e2a800ccfa0c8e820d869","session_id":"60620257a44faddadc57d400"},{"rt":4190.62500000291,"stimulus":"img/00037.png","slider_start":4,"response":6,"trial_type":"image-slider-response","trial_index":75,"time_elapsed":352733,"internal_node_id":"0.0-3.0-0.72","subject_id":"5c71da185cb1830001ffb572","study_id":"605e2a800ccfa0c8e820d869","session_id":"60620257a44faddadc57d400"},{"rt":1518.6850000027334,"stimulus":"img/00576.png","slider_start":4,"response":5,"trial_type":"image-slider-response","trial_index":76,"time_elapsed":354253,"internal_node_id":"0.0-3.0-0.73","subject_id":"5c71da185cb1830001ffb572","study_id":"605e2a800ccfa0c8e820d869","session_id":"60620257a44faddadc57d400"},{"rt":3118.8700000056997,"stimulus":"img/00689.png","slider_start":4,"response":2,"trial_type":"image-slider-response","trial_index":77,"time_elapsed":357373,"internal_node_id":"0.0-3.0-0.74","subject_id":"5c71da185cb1830001ffb572","study_id":"605e2a800ccfa0c8e820d869","session_id":"60620257a44faddadc57d400"},{"rt":1846.5900000010151,"stimulus":"img/00405.png","slider_start":4,"response":5,"trial_type":"image-slider-response","trial_index":78,"time_elapsed":359221,"internal_node_id":"0.0-3.0-0.75","subject_id":"5c71da185cb1830001ffb572","study_id":"605e2a800ccfa0c8e820d869","session_id":"60620257a44faddadc57d400"},{"rt":1766.7849999997998,"stimulus":"img/00768.png","slider_start":4,"response":3,"trial_type":"image-slider-response","trial_index":79,"time_elapsed":360989,"internal_node_id":"0.0-3.0-0.76","subject_id":"5c71da185cb1830001ffb572","study_id":"605e2a800ccfa0c8e820d869","session_id":"60620257a44faddadc57d400"},{"rt":2646.85499999905,"stimulus":"img/00525.png","slider_start":4,"response":4,"trial_type":"image-slider-response","trial_index":80,"time_elapsed":363637,"internal_node_id":"0.0-3.0-0.77","subject_id":"5c71da185cb1830001ffb572","study_id":"605e2a800ccfa0c8e820d869","session_id":"60620257a44faddadc57d400"},{"rt":2686.8150000082096,"stimulus":"img/00815.png","slider_start":4,"response":3,"trial_type":"image-slider-response","trial_index":81,"time_elapsed":366325,"internal_node_id":"0.0-3.0-0.78","subject_id":"5c71da185cb1830001ffb572","study_id":"605e2a800ccfa0c8e820d869","session_id":"60620257a44faddadc57d400"},{"rt":3494.7749999992084,"stimulus":"img/00437.png","slider_start":4,"response":4,"trial_type":"image-slider-response","trial_index":82,"time_elapsed":369820,"internal_node_id":"0.0-3.0-0.79","subject_id":"5c71da185cb1830001ffb572","study_id":"605e2a800ccfa0c8e820d869","session_id":"60620257a44faddadc57d400"},{"rt":2958.379999996396,"stimulus":"img/00082.png","slider_start":4,"response":4,"trial_type":"image-slider-response","trial_index":83,"time_elapsed":372780,"internal_node_id":"0.0-3.0-0.80","subject_id":"5c71da185cb1830001ffb572","study_id":"605e2a800ccfa0c8e820d869","session_id":"60620257a44faddadc57d400"},{"rt":3070.6799999898067,"stimulus":"img/00951.png","slider_start":4,"response":3,"trial_type":"image-slider-response","trial_index":84,"time_elapsed":375852,"internal_node_id":"0.0-3.0-0.81","subject_id":"5c71da185cb1830001ffb572","study_id":"605e2a800ccfa0c8e820d869","session_id":"60620257a44faddadc57d400"},{"rt":4246.6199999907985,"stimulus":"img/00629.png","slider_start":4,"response":3,"trial_type":"image-slider-response","trial_index":85,"time_elapsed":380100,"internal_node_id":"0.0-3.0-0.82","subject_id":"5c71da185cb1830001ffb572","study_id":"605e2a800ccfa0c8e820d869","session_id":"60620257a44faddadc57d400"},{"rt":2398.4499999933178,"stimulus":"img/00542.png","slider_start":4,"response":3,"trial_type":"image-slider-response","trial_index":86,"time_elapsed":382500,"internal_node_id":"0.0-3.0-0.83","subject_id":"5c71da185cb1830001ffb572","study_id":"605e2a800ccfa0c8e820d869","session_id":"60620257a44faddadc57d400"},{"rt":1350.9199999971315,"stimulus":"img/00744.png","slider_start":4,"response":4,"trial_type":"image-slider-response","trial_index":87,"time_elapsed":383852,"internal_node_id":"0.0-3.0-0.84","subject_id":"5c71da185cb1830001ffb572","study_id":"605e2a800ccfa0c8e820d869","session_id":"60620257a44faddadc57d400"},{"rt":5382.639999996172,"stimulus":"img/00878.png","slider_start":4,"response":3,"trial_type":"image-slider-response","trial_index":88,"time_elapsed":389235,"internal_node_id":"0.0-3.0-0.85","subject_id":"5c71da185cb1830001ffb572","study_id":"605e2a800ccfa0c8e820d869","session_id":"60620257a44faddadc57d400"},{"rt":1686.6900000022724,"stimulus":"img/00688.png","slider_start":4,"response":5,"trial_type":"image-slider-response","trial_index":89,"time_elapsed":390923,"internal_node_id":"0.0-3.0-0.86","subject_id":"5c71da185cb1830001ffb572","study_id":"605e2a800ccfa0c8e820d869","session_id":"60620257a44faddadc57d400"},{"rt":7638.409999999567,"stimulus":"img/00064.png","slider_start":4,"response":4,"trial_type":"image-slider-response","trial_index":90,"time_elapsed":398563,"internal_node_id":"0.0-3.0-0.87","subject_id":"5c71da185cb1830001ffb572","study_id":"605e2a800ccfa0c8e820d869","session_id":"60620257a44faddadc57d400"},{"rt":3534.5200000010664,"stimulus":"img/00469.png","slider_start":4,"response":4,"trial_type":"image-slider-response","trial_index":91,"time_elapsed":402099,"internal_node_id":"0.0-3.0-0.88","subject_id":"5c71da185cb1830001ffb572","study_id":"605e2a800ccfa0c8e820d869","session_id":"60620257a44faddadc57d400"},{"rt":2982.3699999979,"stimulus":"img/00016.png","slider_start":4,"response":3,"trial_type":"image-slider-response","trial_index":92,"time_elapsed":405082,"internal_node_id":"0.0-3.0-0.89","subject_id":"5c71da185cb1830001ffb572","study_id":"605e2a800ccfa0c8e820d869","session_id":"60620257a44faddadc57d400"},{"rt":2750.7949999999255,"stimulus":"img/00048.png","slider_start":4,"response":2,"trial_type":"image-slider-response","trial_index":93,"time_elapsed":407834,"internal_node_id":"0.0-3.0-0.90","subject_id":"5c71da185cb1830001ffb572","study_id":"605e2a800ccfa0c8e820d869","session_id":"60620257a44faddadc57d400"},{"rt":1694.7800000052666,"stimulus":"img/00631.png","slider_start":4,"response":5,"trial_type":"image-slider-response","trial_index":94,"time_elapsed":409530,"internal_node_id":"0.0-3.0-0.91","subject_id":"5c71da185cb1830001ffb572","study_id":"605e2a800ccfa0c8e820d869","session_id":"60620257a44faddadc57d400"},{"rt":1678.7550000008196,"stimulus":"img/00029.png","slider_start":4,"response":3,"trial_type":"image-slider-response","trial_index":95,"time_elapsed":411210,"internal_node_id":"0.0-3.0-0.92","subject_id":"5c71da185cb1830001ffb572","study_id":"605e2a800ccfa0c8e820d869","session_id":"60620257a44faddadc57d400"},{"rt":1358.9499999943655,"stimulus":"img/00522.png","slider_start":4,"response":4,"trial_type":"image-slider-response","trial_index":96,"time_elapsed":412570,"internal_node_id":"0.0-3.0-0.93","subject_id":"5c71da185cb1830001ffb572","study_id":"605e2a800ccfa0c8e820d869","session_id":"60620257a44faddadc57d400"},{"rt":5342.575000002398,"stimulus":"img/00052.png","slider_start":4,"response":4,"trial_type":"image-slider-response","trial_index":97,"time_elapsed":417913,"internal_node_id":"0.0-3.0-0.94","subject_id":"5c71da185cb1830001ffb572","study_id":"605e2a800ccfa0c8e820d869","session_id":"60620257a44faddadc57d400"},{"rt":1590.6600000016624,"stimulus":"img/00759.png","slider_start":4,"response":4,"trial_type":"image-slider-response","trial_index":98,"time_elapsed":419505,"internal_node_id":"0.0-3.0-0.95","subject_id":"5c71da185cb1830001ffb572","study_id":"605e2a800ccfa0c8e820d869","session_id":"60620257a44faddadc57d400"},{"rt":2094.889999993029,"stimulus":"img/00439.png","slider_start":4,"response":3,"trial_type":"image-slider-response","trial_index":99,"time_elapsed":421601,"internal_node_id":"0.0-3.0-0.96","subject_id":"5c71da185cb1830001ffb572","study_id":"605e2a800ccfa0c8e820d869","session_id":"60620257a44faddadc57d400"},{"rt":3950.735000005807,"stimulus":"img/00903.png","slider_start":4,"response":3,"trial_type":"image-slider-response","trial_index":100,"time_elapsed":425553,"internal_node_id":"0.0-3.0-0.97","subject_id":"5c71da185cb1830001ffb572","study_id":"605e2a800ccfa0c8e820d869","session_id":"60620257a44faddadc57d400"},{"rt":1862.5650000030873,"stimulus":"img/00105.png","slider_start":4,"response":4,"trial_type":"image-slider-response","trial_index":101,"time_elapsed":427417,"internal_node_id":"0.0-3.0-0.98","subject_id":"5c71da185cb1830001ffb572","study_id":"605e2a800ccfa0c8e820d869","session_id":"60620257a44faddadc57d400"},{"rt":1510.79000000027,"stimulus":"img/00653.png","slider_start":4,"response":4,"trial_type":"image-slider-response","trial_index":102,"time_elapsed":428929,"internal_node_id":"0.0-3.0-0.99","subject_id":"5c71da185cb1830001ffb572","study_id":"605e2a800ccfa0c8e820d869","session_id":"60620257a44faddadc57d400"},{"rt":3774.620000011055,"stimulus":"img/00424.png","slider_start":4,"response":5,"trial_type":"image-slider-response","trial_index":103,"time_elapsed":432704,"internal_node_id":"0.0-3.0-0.100","subject_id":"5c71da185cb1830001ffb572","study_id":"605e2a800ccfa0c8e820d869","session_id":"60620257a44faddadc57d400"},{"rt":3230.839999989257,"stimulus":"img/00077.png","slider_start":4,"response":5,"trial_type":"image-slider-response","trial_index":104,"time_elapsed":435936,"internal_node_id":"0.0-3.0-0.101","subject_id":"5c71da185cb1830001ffb572","study_id":"605e2a800ccfa0c8e820d869","session_id":"60620257a44faddadc57d400"},{"rt":1334.5549999939976,"stimulus":"img/00708.png","slider_start":4,"response":4,"trial_type":"image-slider-response","trial_index":105,"time_elapsed":437272,"internal_node_id":"0.0-3.0-0.102","subject_id":"5c71da185cb1830001ffb572","study_id":"605e2a800ccfa0c8e820d869","session_id":"60620257a44faddadc57d400"},{"rt":3398.8349999999627,"stimulus":"img/00521.png","slider_start":4,"response":3,"trial_type":"image-slider-response","trial_index":106,"time_elapsed":440672,"internal_node_id":"0.0-3.0-0.103","subject_id":"5c71da185cb1830001ffb572","study_id":"605e2a800ccfa0c8e820d869","session_id":"60620257a44faddadc57d400"},{"rt":1471.0250000061933,"stimulus":"img/00785.png","slider_start":4,"response":4,"trial_type":"image-slider-response","trial_index":107,"time_elapsed":442144,"internal_node_id":"0.0-3.0-0.104","subject_id":"5c71da185cb1830001ffb572","study_id":"605e2a800ccfa0c8e820d869","session_id":"60620257a44faddadc57d400"},{"rt":1502.6999999972759,"stimulus":"img/00731.png","slider_start":4,"response":3,"trial_type":"image-slider-response","trial_index":108,"time_elapsed":443648,"internal_node_id":"0.0-3.0-0.105","subject_id":"5c71da185cb1830001ffb572","study_id":"605e2a800ccfa0c8e820d869","session_id":"60620257a44faddadc57d400"},{"rt":3966.8149999924935,"stimulus":"img/00440.png","slider_start":4,"response":3,"trial_type":"image-slider-response","trial_index":109,"time_elapsed":447616,"internal_node_id":"0.0-3.0-0.106","subject_id":"5c71da185cb1830001ffb572","study_id":"605e2a800ccfa0c8e820d869","session_id":"60620257a44faddadc57d400"},{"rt":1550.4499999951804,"stimulus":"img/00761.png","slider_start":4,"response":5,"trial_type":"image-slider-response","trial_index":110,"time_elapsed":449168,"internal_node_id":"0.0-3.0-0.107","subject_id":"5c71da185cb1830001ffb572","study_id":"605e2a800ccfa0c8e820d869","session_id":"60620257a44faddadc57d400"},{"rt":1806.8599999969592,"stimulus":"img/00793.png","slider_start":4,"response":5,"trial_type":"image-slider-response","trial_index":111,"time_elapsed":450975,"internal_node_id":"0.0-3.0-0.108","subject_id":"5c71da185cb1830001ffb572","study_id":"605e2a800ccfa0c8e820d869","session_id":"60620257a44faddadc57d400"},{"rt":1502.8349999920465,"stimulus":"img/00569.png","slider_start":4,"response":3,"trial_type":"image-slider-response","trial_index":112,"time_elapsed":452479,"internal_node_id":"0.0-3.0-0.109","subject_id":"5c71da185cb1830001ffb572","study_id":"605e2a800ccfa0c8e820d869","session_id":"60620257a44faddadc57d400"},{"rt":2110.7199999969453,"stimulus":"img/00690.png","slider_start":4,"response":4,"trial_type":"image-slider-response","trial_index":113,"time_elapsed":454591,"internal_node_id":"0.0-3.0-0.110","subject_id":"5c71da185cb1830001ffb572","study_id":"605e2a800ccfa0c8e820d869","session_id":"60620257a44faddadc57d400"},{"rt":1551.1000000115018,"stimulus":"img/00956.png","slider_start":4,"response":5,"trial_type":"image-slider-response","trial_index":114,"time_elapsed":456143,"internal_node_id":"0.0-3.0-0.111","subject_id":"5c71da185cb1830001ffb572","study_id":"605e2a800ccfa0c8e820d869","session_id":"60620257a44faddadc57d400"},{"rt":2990.5799999978626,"stimulus":"img/00479.png","slider_start":4,"response":3,"trial_type":"image-slider-response","trial_index":115,"time_elapsed":459135,"internal_node_id":"0.0-3.0-0.112","subject_id":"5c71da185cb1830001ffb572","study_id":"605e2a800ccfa0c8e820d869","session_id":"60620257a44faddadc57d400"},{"rt":5054.629999998724,"stimulus":"img/00898.png","slider_start":4,"response":2,"trial_type":"image-slider-response","trial_index":116,"time_elapsed":464191,"internal_node_id":"0.0-3.0-0.113","subject_id":"5c71da185cb1830001ffb572","study_id":"605e2a800ccfa0c8e820d869","session_id":"60620257a44faddadc57d400"},{"rt":1822.4100000079488,"stimulus":"img/00973.png","slider_start":4,"response":3,"trial_type":"image-slider-response","trial_index":117,"time_elapsed":466015,"internal_node_id":"0.0-3.0-0.114","subject_id":"5c71da185cb1830001ffb572","study_id":"605e2a800ccfa0c8e820d869","session_id":"60620257a44faddadc57d400"},{"rt":1798.8749999931315,"stimulus":"img/00015.png","slider_start":4,"response":4,"trial_type":"image-slider-response","trial_index":118,"time_elapsed":467815,"internal_node_id":"0.0-3.0-0.115","subject_id":"5c71da185cb1830001ffb572","study_id":"605e2a800ccfa0c8e820d869","session_id":"60620257a44faddadc57d400"},{"rt":1198.8799999962794,"stimulus":"img/00507.png","slider_start":4,"response":4,"trial_type":"image-slider-response","trial_index":119,"time_elapsed":469014,"internal_node_id":"0.0-3.0-0.116","subject_id":"5c71da185cb1830001ffb572","study_id":"605e2a800ccfa0c8e820d869","session_id":"60620257a44faddadc57d400"},{"rt":2750.834999998915,"stimulus":"img/00854.png","slider_start":4,"response":2,"trial_type":"image-slider-response","trial_index":120,"time_elapsed":471766,"internal_node_id":"0.0-3.0-0.117","subject_id":"5c71da185cb1830001ffb572","study_id":"605e2a800ccfa0c8e820d869","session_id":"60620257a44faddadc57d400"},{"rt":2310.6799999950454,"stimulus":"img/00438.png","slider_start":4,"response":2,"trial_type":"image-slider-response","trial_index":121,"time_elapsed":474078,"internal_node_id":"0.0-3.0-0.118","subject_id":"5c71da185cb1830001ffb572","study_id":"605e2a800ccfa0c8e820d869","session_id":"60620257a44faddadc57d400"},{"rt":2582.9050000029383,"stimulus":"img/00998.png","slider_start":4,"response":2,"trial_type":"image-slider-response","trial_index":122,"time_elapsed":476662,"internal_node_id":"0.0-3.0-0.119","subject_id":"5c71da185cb1830001ffb572","study_id":"605e2a800ccfa0c8e820d869","session_id":"60620257a44faddadc57d400"},{"rt":2142.794999992475,"stimulus":"img/00122.png","slider_start":4,"response":5,"trial_type":"image-slider-response","trial_index":123,"time_elapsed":478806,"internal_node_id":"0.0-3.0-0.120","subject_id":"5c71da185cb1830001ffb572","study_id":"605e2a800ccfa0c8e820d869","session_id":"60620257a44faddadc57d400"},{"rt":2822.2899999964284,"stimulus":"img/00842.png","slider_start":4,"response":5,"trial_type":"image-slider-response","trial_index":124,"time_elapsed":481630,"internal_node_id":"0.0-3.0-0.121","subject_id":"5c71da185cb1830001ffb572","study_id":"605e2a800ccfa0c8e820d869","session_id":"60620257a44faddadc57d400"},{"rt":3206.4250000112224,"stimulus":"img/00100.png","slider_start":4,"response":3,"trial_type":"image-slider-response","trial_index":125,"time_elapsed":484838,"internal_node_id":"0.0-3.0-0.122","subject_id":"5c71da185cb1830001ffb572","study_id":"605e2a800ccfa0c8e820d869","session_id":"60620257a44faddadc57d400"},{"rt":3310.7250000030035,"stimulus":"img/00833.png","slider_start":4,"response":5,"trial_type":"image-slider-response","trial_index":126,"time_elapsed":488149,"internal_node_id":"0.0-3.0-0.123","subject_id":"5c71da185cb1830001ffb572","study_id":"605e2a800ccfa0c8e820d869","session_id":"60620257a44faddadc57d400"},{"rt":1078.510000006645,"stimulus":"img/00799.png","slider_start":4,"response":4,"trial_type":"image-slider-response","trial_index":127,"time_elapsed":489229,"internal_node_id":"0.0-3.0-0.124","subject_id":"5c71da185cb1830001ffb572","study_id":"605e2a800ccfa0c8e820d869","session_id":"60620257a44faddadc57d400"},{"rt":1830.85499999288,"stimulus":"img/00129.png","slider_start":4,"response":6,"trial_type":"image-slider-response","trial_index":128,"time_elapsed":491061,"internal_node_id":"0.0-3.0-0.125","subject_id":"5c71da185cb1830001ffb572","study_id":"605e2a800ccfa0c8e820d869","session_id":"60620257a44faddadc57d400"},{"rt":1806.8349999957718,"stimulus":"img/00114.png","slider_start":4,"response":2,"trial_type":"image-slider-response","trial_index":129,"time_elapsed":492869,"internal_node_id":"0.0-3.0-0.126","subject_id":"5c71da185cb1830001ffb572","study_id":"605e2a800ccfa0c8e820d869","session_id":"60620257a44faddadc57d400"},{"rt":1662.7799999987474,"stimulus":"img/00126.png","slider_start":4,"response":2,"trial_type":"image-slider-response","trial_index":130,"time_elapsed":494533,"internal_node_id":"0.0-3.0-0.127","subject_id":"5c71da185cb1830001ffb572","study_id":"605e2a800ccfa0c8e820d869","session_id":"60620257a44faddadc57d400"},{"rt":2022.6799999945797,"stimulus":"img/00499.png","slider_start":4,"response":2,"trial_type":"image-slider-response","trial_index":131,"time_elapsed":496557,"internal_node_id":"0.0-3.0-0.128","subject_id":"5c71da185cb1830001ffb572","study_id":"605e2a800ccfa0c8e820d869","session_id":"60620257a44faddadc57d400"},{"rt":2526.9100000004983,"stimulus":"img/00447.png","slider_start":4,"response":2,"trial_type":"image-slider-response","trial_index":132,"time_elapsed":499085,"internal_node_id":"0.0-3.0-0.129","subject_id":"5c71da185cb1830001ffb572","study_id":"605e2a800ccfa0c8e820d869","session_id":"60620257a44faddadc57d400"},{"rt":2494.489999997313,"stimulus":"img/00860.png","slider_start":4,"response":3,"trial_type":"image-slider-response","trial_index":133,"time_elapsed":501581,"internal_node_id":"0.0-3.0-0.130","subject_id":"5c71da185cb1830001ffb572","study_id":"605e2a800ccfa0c8e820d869","session_id":"60620257a44faddadc57d400"},{"rt":2486.9650000036927,"stimulus":"img/00817.png","slider_start":4,"response":3,"trial_type":"image-slider-response","trial_index":134,"time_elapsed":504069,"internal_node_id":"0.0-3.0-0.131","subject_id":"5c71da185cb1830001ffb572","study_id":"605e2a800ccfa0c8e820d869","session_id":"60620257a44faddadc57d400"},{"rt":2654.415000011795,"stimulus":"img/00427.png","slider_start":4,"response":6,"trial_type":"image-slider-response","trial_index":135,"time_elapsed":506724,"internal_node_id":"0.0-3.0-0.132","subject_id":"5c71da185cb1830001ffb572","study_id":"605e2a800ccfa0c8e820d869","session_id":"60620257a44faddadc57d400"},{"rt":1487.025000009453,"stimulus":"img/00413.png","slider_start":4,"response":3,"trial_type":"image-slider-response","trial_index":136,"time_elapsed":508212,"internal_node_id":"0.0-3.0-0.133","subject_id":"5c71da185cb1830001ffb572","study_id":"605e2a800ccfa0c8e820d869","session_id":"60620257a44faddadc57d400"},{"rt":2046.8050000054063,"stimulus":"img/00718.png","slider_start":4,"response":2,"trial_type":"image-slider-response","trial_index":137,"time_elapsed":510260,"internal_node_id":"0.0-3.0-0.134","subject_id":"5c71da185cb1830001ffb572","study_id":"605e2a800ccfa0c8e820d869","session_id":"60620257a44faddadc57d400"},{"rt":2629.864999995334,"stimulus":"img/00059.png","slider_start":4,"response":5,"trial_type":"image-slider-response","trial_index":138,"time_elapsed":512892,"internal_node_id":"0.0-3.0-0.135","subject_id":"5c71da185cb1830001ffb572","study_id":"605e2a800ccfa0c8e820d869","session_id":"60620257a44faddadc57d400"},{"rt":1214.8500000039348,"stimulus":"img/00545.png","slider_start":4,"response":4,"trial_type":"image-slider-response","trial_index":139,"time_elapsed":514108,"internal_node_id":"0.0-3.0-0.136","subject_id":"5c71da185cb1830001ffb572","study_id":"605e2a800ccfa0c8e820d869","session_id":"60620257a44faddadc57d400"},{"rt":4334.879999994882,"stimulus":"img/00790.png","slider_start":4,"response":3,"trial_type":"image-slider-response","trial_index":140,"time_elapsed":518444,"internal_node_id":"0.0-3.0-0.137","subject_id":"5c71da185cb1830001ffb572","study_id":"605e2a800ccfa0c8e820d869","session_id":"60620257a44faddadc57d400"},{"rt":1862.6300000032643,"stimulus":"img/00989.png","slider_start":4,"response":4,"trial_type":"image-slider-response","trial_index":141,"time_elapsed":520308,"internal_node_id":"0.0-3.0-0.138","subject_id":"5c71da185cb1830001ffb572","study_id":"605e2a800ccfa0c8e820d869","session_id":"60620257a44faddadc57d400"},{"rt":3030.475000006845,"stimulus":"img/00995.png","slider_start":4,"response":3,"trial_type":"image-slider-response","trial_index":142,"time_elapsed":523340,"internal_node_id":"0.0-3.0-0.139","subject_id":"5c71da185cb1830001ffb572","study_id":"605e2a800ccfa0c8e820d869","session_id":"60620257a44faddadc57d400"},{"rt":1662.3099999997066,"stimulus":"img/00006.png","slider_start":4,"response":5,"trial_type":"image-slider-response","trial_index":143,"time_elapsed":525003,"internal_node_id":"0.0-3.0-0.140","subject_id":"5c71da185cb1830001ffb572","study_id":"605e2a800ccfa0c8e820d869","session_id":"60620257a44faddadc57d400"},{"rt":1494.7949999914272,"stimulus":"img/00418.png","slider_start":4,"response":4,"trial_type":"image-slider-response","trial_index":144,"time_elapsed":526500,"internal_node_id":"0.0-3.0-0.141","subject_id":"5c71da185cb1830001ffb572","study_id":"605e2a800ccfa0c8e820d869","session_id":"60620257a44faddadc57d400"},{"rt":2030.8549999899697,"stimulus":"img/00504.png","slider_start":4,"response":2,"trial_type":"image-slider-response","trial_index":145,"time_elapsed":528532,"internal_node_id":"0.0-3.0-0.142","subject_id":"5c71da185cb1830001ffb572","study_id":"605e2a800ccfa0c8e820d869","session_id":"60620257a44faddadc57d400"},{"rt":1998.8149999990128,"stimulus":"img/00986.png","slider_start":4,"response":2,"trial_type":"image-slider-response","trial_index":146,"time_elapsed":530531,"internal_node_id":"0.0-3.0-0.143","subject_id":"5c71da185cb1830001ffb572","study_id":"605e2a800ccfa0c8e820d869","session_id":"60620257a44faddadc57d400"},{"rt":2742.930000007618,"stimulus":"img/00988.png","slider_start":4,"response":2,"trial_type":"image-slider-response","trial_index":147,"time_elapsed":533275,"internal_node_id":"0.0-3.0-0.144","subject_id":"5c71da185cb1830001ffb572","study_id":"605e2a800ccfa0c8e820d869","session_id":"60620257a44faddadc57d400"},{"rt":1870.6050000037067,"stimulus":"img/00478.png","slider_start":4,"response":2,"trial_type":"image-slider-response","trial_index":148,"time_elapsed":535147,"internal_node_id":"0.0-3.0-0.145","subject_id":"5c71da185cb1830001ffb572","study_id":"605e2a800ccfa0c8e820d869","session_id":"60620257a44faddadc57d400"},{"rt":2126.9650000031106,"stimulus":"img/00949.png","slider_start":4,"response":2,"trial_type":"image-slider-response","trial_index":149,"time_elapsed":537275,"internal_node_id":"0.0-3.0-0.146","subject_id":"5c71da185cb1830001ffb572","study_id":"605e2a800ccfa0c8e820d869","session_id":"60620257a44faddadc57d400"},{"rt":2646.6249999939464,"stimulus":"img/00644.png","slider_start":4,"response":3,"trial_type":"image-slider-response","trial_index":150,"time_elapsed":539923,"internal_node_id":"0.0-3.0-0.147","subject_id":"5c71da185cb1830001ffb572","study_id":"605e2a800ccfa0c8e820d869","session_id":"60620257a44faddadc57d400"},{"rt":3287.0599999878323,"stimulus":"img/40.png","slider_start":4,"response":3,"trial_type":"image-slider-response","trial_index":151,"time_elapsed":543211,"internal_node_id":"0.0-3.0-0.148","subject_id":"5c71da185cb1830001ffb572","study_id":"605e2a800ccfa0c8e820d869","session_id":"60620257a44faddadc57d400"},{"rt":2350.4099999991013,"stimulus":"img/00561.png","slider_start":4,"response":3,"trial_type":"image-slider-response","trial_index":152,"time_elapsed":545563,"internal_node_id":"0.0-3.0-0.149","subject_id":"5c71da185cb1830001ffb572","study_id":"605e2a800ccfa0c8e820d869","session_id":"60620257a44faddadc57d400"},{"rt":1286.9099999952596,"stimulus":"img/00722.png","slider_start":4,"response":4,"trial_type":"image-slider-response","trial_index":153,"time_elapsed":546851,"internal_node_id":"0.0-3.0-0.150","subject_id":"5c71da185cb1830001ffb572","study_id":"605e2a800ccfa0c8e820d869","session_id":"60620257a44faddadc57d400"},{"rt":2742.805000001681,"stimulus":"img/00454.png","slider_start":4,"response":3,"trial_type":"image-slider-response","trial_index":154,"time_elapsed":549594,"internal_node_id":"0.0-3.0-0.151","subject_id":"5c71da185cb1830001ffb572","study_id":"605e2a800ccfa0c8e820d869","session_id":"60620257a44faddadc57d400"},{"rt":2238.644999990356,"stimulus":"img/00415.png","slider_start":4,"response":3,"trial_type":"image-slider-response","trial_index":155,"time_elapsed":551834,"internal_node_id":"0.0-3.0-0.152","subject_id":"5c71da185cb1830001ffb572","study_id":"605e2a800ccfa0c8e820d869","session_id":"60620257a44faddadc57d400"},{"rt":1702.7850000013132,"stimulus":"img/00691.png","slider_start":4,"response":4,"trial_type":"image-slider-response","trial_index":156,"time_elapsed":553538,"internal_node_id":"0.0-3.0-0.153","subject_id":"5c71da185cb1830001ffb572","study_id":"605e2a800ccfa0c8e820d869","session_id":"60620257a44faddadc57d400"},{"rt":2326.789999991888,"stimulus":"img/00594.png","slider_start":4,"response":5,"trial_type":"image-slider-response","trial_index":157,"time_elapsed":555866,"internal_node_id":"0.0-3.0-0.154","subject_id":"5c71da185cb1830001ffb572","study_id":"605e2a800ccfa0c8e820d869","session_id":"60620257a44faddadc57d400"},{"rt":1942.7850000065519,"stimulus":"img/00002.png","slider_start":4,"response":3,"trial_type":"image-slider-response","trial_index":158,"time_elapsed":557810,"internal_node_id":"0.0-3.0-0.155","subject_id":"5c71da185cb1830001ffb572","study_id":"605e2a800ccfa0c8e820d869","session_id":"60620257a44faddadc57d400"},{"rt":1622.9950000124518,"stimulus":"img/00686.png","slider_start":4,"response":5,"trial_type":"image-slider-response","trial_index":159,"time_elapsed":559434,"internal_node_id":"0.0-3.0-0.156","subject_id":"5c71da185cb1830001ffb572","study_id":"605e2a800ccfa0c8e820d869","session_id":"60620257a44faddadc57d400"},{"rt":2870.555000001332,"stimulus":"img/00508.png","slider_start":4,"response":4,"trial_type":"image-slider-response","trial_index":160,"time_elapsed":562306,"internal_node_id":"0.0-3.0-0.157","subject_id":"5c71da185cb1830001ffb572","study_id":"605e2a800ccfa0c8e820d869","session_id":"60620257a44faddadc57d400"},{"rt":1822.6700000086566,"stimulus":"img/00466.png","slider_start":4,"response":2,"trial_type":"image-slider-response","trial_index":161,"time_elapsed":564130,"internal_node_id":"0.0-3.0-0.158","subject_id":"5c71da185cb1830001ffb572","study_id":"605e2a800ccfa0c8e820d869","session_id":"60620257a44faddadc57d400"},{"rt":3174.7449999966193,"stimulus":"img/00982.png","slider_start":4,"response":2,"trial_type":"image-slider-response","trial_index":162,"time_elapsed":567306,"internal_node_id":"0.0-3.0-0.159","subject_id":"5c71da185cb1830001ffb572","study_id":"605e2a800ccfa0c8e820d869","session_id":"60620257a44faddadc57d400"},{"rt":2262.415000004694,"stimulus":"img/00693.png","slider_start":4,"response":2,"trial_type":"image-slider-response","trial_index":163,"time_elapsed":569569,"internal_node_id":"0.0-3.0-0.160","subject_id":"5c71da185cb1830001ffb572","study_id":"605e2a800ccfa0c8e820d869","session_id":"60620257a44faddadc57d400"},{"rt":2094.69500000705,"stimulus":"img/00011.png","slider_start":4,"response":2,"trial_type":"image-slider-response","trial_index":164,"time_elapsed":571665,"internal_node_id":"0.0-3.0-0.161","subject_id":"5c71da185cb1830001ffb572","study_id":"605e2a800ccfa0c8e820d869","session_id":"60620257a44faddadc57d400"},{"rt":3078.7249999993946,"stimulus":"img/00848.png","slider_start":4,"response":5,"trial_type":"image-slider-response","trial_index":165,"time_elapsed":574745,"internal_node_id":"0.0-3.0-0.162","subject_id":"5c71da185cb1830001ffb572","study_id":"605e2a800ccfa0c8e820d869","session_id":"60620257a44faddadc57d400"},{"rt":2662.739999999758,"stimulus":"img/00127.png","slider_start":4,"response":2,"trial_type":"image-slider-response","trial_index":166,"time_elapsed":577409,"internal_node_id":"0.0-3.0-0.163","subject_id":"5c71da185cb1830001ffb572","study_id":"605e2a800ccfa0c8e820d869","session_id":"60620257a44faddadc57d400"},{"rt":2173.71999999159,"stimulus":"img/00747.png","slider_start":4,"response":5,"trial_type":"image-slider-response","trial_index":167,"time_elapsed":579585,"internal_node_id":"0.0-3.0-0.164","subject_id":"5c71da185cb1830001ffb572","study_id":"605e2a800ccfa0c8e820d869","session_id":"60620257a44faddadc57d400"},{"rt":2470.6199999927776,"stimulus":"img/00587.png","slider_start":4,"response":5,"trial_type":"image-slider-response","trial_index":168,"time_elapsed":582057,"internal_node_id":"0.0-3.0-0.165","subject_id":"5c71da185cb1830001ffb572","study_id":"605e2a800ccfa0c8e820d869","session_id":"60620257a44faddadc57d400"},{"rt":7446.444999994128,"stimulus":"img/00789.png","slider_start":4,"response":3,"trial_type":"image-slider-response","trial_index":169,"time_elapsed":589504,"internal_node_id":"0.0-3.0-0.166","subject_id":"5c71da185cb1830001ffb572","study_id":"605e2a800ccfa0c8e820d869","session_id":"60620257a44faddadc57d400"},{"rt":1934.464999998454,"stimulus":"img/00496.png","slider_start":4,"response":5,"trial_type":"image-slider-response","trial_index":170,"time_elapsed":591440,"internal_node_id":"0.0-3.0-0.167","subject_id":"5c71da185cb1830001ffb572","study_id":"605e2a800ccfa0c8e820d869","session_id":"60620257a44faddadc57d400"},{"rt":4166.6799999948125,"stimulus":"img/00472.png","slider_start":4,"response":3,"trial_type":"image-slider-response","trial_index":171,"time_elapsed":595607,"internal_node_id":"0.0-3.0-0.168","subject_id":"5c71da185cb1830001ffb572","study_id":"605e2a800ccfa0c8e820d869","session_id":"60620257a44faddadc57d400"},{"rt":1774.5300000096904,"stimulus":"img/00489.png","slider_start":4,"response":4,"trial_type":"image-slider-response","trial_index":172,"time_elapsed":597383,"internal_node_id":"0.0-3.0-0.169","subject_id":"5c71da185cb1830001ffb572","study_id":"605e2a800ccfa0c8e820d869","session_id":"60620257a44faddadc57d400"},{"rt":3782.804999995278,"stimulus":"img/00896.png","slider_start":4,"response":3,"trial_type":"image-slider-response","trial_index":173,"time_elapsed":601167,"internal_node_id":"0.0-3.0-0.170","subject_id":"5c71da185cb1830001ffb572","study_id":"605e2a800ccfa0c8e820d869","session_id":"60620257a44faddadc57d400"},{"rt":8446.119999993243,"stimulus":"img/00078.png","slider_start":4,"response":3,"trial_type":"image-slider-response","trial_index":174,"time_elapsed":609614,"internal_node_id":"0.0-3.0-0.171","subject_id":"5c71da185cb1830001ffb572","study_id":"605e2a800ccfa0c8e820d869","session_id":"60620257a44faddadc57d400"}]