[{"rt":2844.874999951571,"stimulus":"Welcome to the experiment. Press any key to begin.","response":" ","trial_type":"html-keyboard-response","trial_index":0,"time_elapsed":2847,"internal_node_id":"0.0-0.0","subject_id":"5d484aa80054390001ab19d5","study_id":"605e2a800ccfa0c8e820d869","session_id":"606202c3bc390ea2d1055f35"},{"rt":4094.620000105351,"stimulus":"\n        <p>In this experiment, a face will appear on-screen.</p><p> <strong>Rate the face on a 1 - 7 scale based on how attractive he / she is.</strong> </p>\n        </div>\n        <p>Press any key to begin.</p>\n      ","response":" ","trial_type":"html-keyboard-response","trial_index":1,"time_elapsed":6942,"internal_node_id":"0.0-1.0","subject_id":"5d484aa80054390001ab19d5","study_id":"605e2a800ccfa0c8e820d869","session_id":"606202c3bc390ea2d1055f35"},{"success":true,"timeout":false,"failed_images":[],"failed_audio":[],"failed_video":[],"trial_type":"preload","trial_index":2,"time_elapsed":63096,"internal_node_id":"0.0-2.0","subject_id":"5d484aa80054390001ab19d5","study_id":"605e2a800ccfa0c8e820d869","session_id":"606202c3bc390ea2d1055f35"},{"rt":3965.1899999007583,"stimulus":"img/00957.png","slider_start":4,"response":2,"trial_type":"image-slider-response","trial_index":3,"time_elapsed":67070,"internal_node_id":"0.0-3.0-0.0","subject_id":"5d484aa80054390001ab19d5","study_id":"605e2a800ccfa0c8e820d869","session_id":"606202c3bc390ea2d1055f35"},{"rt":2453.9000000804663,"stimulus":"img/00464.png","slider_start":4,"response":2,"trial_type":"image-slider-response","trial_index":4,"time_elapsed":69526,"internal_node_id":"0.0-3.0-0.1","subject_id":"5d484aa80054390001ab19d5","study_id":"605e2a800ccfa0c8e820d869","session_id":"606202c3bc390ea2d1055f35"},{"rt":2774.2300000973046,"stimulus":"img/00521.png","slider_start":4,"response":1,"trial_type":"image-slider-response","trial_index":5,"time_elapsed":72302,"internal_node_id":"0.0-3.0-0.2","subject_id":"5d484aa80054390001ab19d5","study_id":"605e2a800ccfa0c8e820d869","session_id":"606202c3bc390ea2d1055f35"},{"rt":2454.494999954477,"stimulus":"img/00016.png","slider_start":4,"response":2,"trial_type":"image-slider-response","trial_index":6,"time_elapsed":74758,"internal_node_id":"0.0-3.0-0.3","subject_id":"5d484aa80054390001ab19d5","study_id":"605e2a800ccfa0c8e820d869","session_id":"606202c3bc390ea2d1055f35"},{"rt":2614.4550000317395,"stimulus":"img/00401.png","slider_start":4,"response":3,"trial_type":"image-slider-response","trial_index":7,"time_elapsed":77374,"internal_node_id":"0.0-3.0-0.4","subject_id":"5d484aa80054390001ab19d5","study_id":"605e2a800ccfa0c8e820d869","session_id":"606202c3bc390ea2d1055f35"},{"rt":2670.295000076294,"stimulus":"img/00466.png","slider_start":4,"response":4,"trial_type":"image-slider-response","trial_index":8,"time_elapsed":80046,"internal_node_id":"0.0-3.0-0.5","subject_id":"5d484aa80054390001ab19d5","study_id":"605e2a800ccfa0c8e820d869","session_id":"606202c3bc390ea2d1055f35"},{"rt":2574.52500006184,"stimulus":"img/00105.png","slider_start":4,"response":1,"trial_type":"image-slider-response","trial_index":9,"time_elapsed":82622,"internal_node_id":"0.0-3.0-0.6","subject_id":"5d484aa80054390001ab19d5","study_id":"605e2a800ccfa0c8e820d869","session_id":"606202c3bc390ea2d1055f35"},{"rt":2286.3500001840293,"stimulus":"img/00581.png","slider_start":4,"response":3,"trial_type":"image-slider-response","trial_index":10,"time_elapsed":84910,"internal_node_id":"0.0-3.0-0.7","subject_id":"5d484aa80054390001ab19d5","study_id":"605e2a800ccfa0c8e820d869","session_id":"606202c3bc390ea2d1055f35"},{"rt":2110.4449999984354,"stimulus":"img/00460.png","slider_start":4,"response":4,"trial_type":"image-slider-response","trial_index":11,"time_elapsed":87022,"internal_node_id":"0.0-3.0-0.8","subject_id":"5d484aa80054390001ab19d5","study_id":"605e2a800ccfa0c8e820d869","session_id":"606202c3bc390ea2d1055f35"},{"rt":2246.4699998963624,"stimulus":"img/00860.png","slider_start":4,"response":5,"trial_type":"image-slider-response","trial_index":12,"time_elapsed":89270,"internal_node_id":"0.0-3.0-0.9","subject_id":"5d484aa80054390001ab19d5","study_id":"605e2a800ccfa0c8e820d869","session_id":"606202c3bc390ea2d1055f35"},{"rt":2214.2900000326335,"stimulus":"img/00418.png","slider_start":4,"response":1,"trial_type":"image-slider-response","trial_index":13,"time_elapsed":91486,"internal_node_id":"0.0-3.0-0.10","subject_id":"5d484aa80054390001ab19d5","study_id":"605e2a800ccfa0c8e820d869","session_id":"606202c3bc390ea2d1055f35"},{"rt":1982.480000006035,"stimulus":"img/00902.png","slider_start":4,"response":1,"trial_type":"image-slider-response","trial_index":14,"time_elapsed":93470,"internal_node_id":"0.0-3.0-0.11","subject_id":"5d484aa80054390001ab19d5","study_id":"605e2a800ccfa0c8e820d869","session_id":"606202c3bc390ea2d1055f35"},{"rt":2110.520000103861,"stimulus":"img/00848.png","slider_start":4,"response":5,"trial_type":"image-slider-response","trial_index":15,"time_elapsed":95582,"internal_node_id":"0.0-3.0-0.12","subject_id":"5d484aa80054390001ab19d5","study_id":"605e2a800ccfa0c8e820d869","session_id":"606202c3bc390ea2d1055f35"},{"rt":5518.470000009984,"stimulus":"img/00439.png","slider_start":4,"response":4,"trial_type":"image-slider-response","trial_index":16,"time_elapsed":101102,"internal_node_id":"0.0-3.0-0.13","subject_id":"5d484aa80054390001ab19d5","study_id":"605e2a800ccfa0c8e820d869","session_id":"606202c3bc390ea2d1055f35"},{"rt":2102.0199998747557,"stimulus":"img/00437.png","slider_start":4,"response":5,"trial_type":"image-slider-response","trial_index":17,"time_elapsed":103206,"internal_node_id":"0.0-3.0-0.14","subject_id":"5d484aa80054390001ab19d5","study_id":"605e2a800ccfa0c8e820d869","session_id":"606202c3bc390ea2d1055f35"},{"rt":3334.2150000389665,"stimulus":"img/00079.png","slider_start":4,"response":2,"trial_type":"image-slider-response","trial_index":18,"time_elapsed":106542,"internal_node_id":"0.0-3.0-0.15","subject_id":"5d484aa80054390001ab19d5","study_id":"605e2a800ccfa0c8e820d869","session_id":"606202c3bc390ea2d1055f35"},{"rt":2166.5449999272823,"stimulus":"img/00029.png","slider_start":4,"response":5,"trial_type":"image-slider-response","trial_index":19,"time_elapsed":108710,"internal_node_id":"0.0-3.0-0.16","subject_id":"5d484aa80054390001ab19d5","study_id":"605e2a800ccfa0c8e820d869","session_id":"606202c3bc390ea2d1055f35"},{"rt":2150.374999968335,"stimulus":"img/00042.png","slider_start":4,"response":2,"trial_type":"image-slider-response","trial_index":20,"time_elapsed":110862,"internal_node_id":"0.0-3.0-0.17","subject_id":"5d484aa80054390001ab19d5","study_id":"605e2a800ccfa0c8e820d869","session_id":"606202c3bc390ea2d1055f35"},{"rt":2126.6450001858175,"stimulus":"img/00023.png","slider_start":4,"response":1,"trial_type":"image-slider-response","trial_index":21,"time_elapsed":112990,"internal_node_id":"0.0-3.0-0.18","subject_id":"5d484aa80054390001ab19d5","study_id":"605e2a800ccfa0c8e820d869","session_id":"606202c3bc390ea2d1055f35"},{"rt":2886.519999941811,"stimulus":"img/00748.png","slider_start":4,"response":3,"trial_type":"image-slider-response","trial_index":22,"time_elapsed":115878,"internal_node_id":"0.0-3.0-0.19","subject_id":"5d484aa80054390001ab19d5","study_id":"605e2a800ccfa0c8e820d869","session_id":"606202c3bc390ea2d1055f35"},{"rt":2606.2950000632554,"stimulus":"img/00130.png","slider_start":4,"response":2,"trial_type":"image-slider-response","trial_index":23,"time_elapsed":118486,"internal_node_id":"0.0-3.0-0.20","subject_id":"5d484aa80054390001ab19d5","study_id":"605e2a800ccfa0c8e820d869","session_id":"606202c3bc390ea2d1055f35"},{"rt":2374.5399999897927,"stimulus":"img/00898.png","slider_start":4,"response":2,"trial_type":"image-slider-response","trial_index":24,"time_elapsed":120862,"internal_node_id":"0.0-3.0-0.21","subject_id":"5d484aa80054390001ab19d5","study_id":"605e2a800ccfa0c8e820d869","session_id":"606202c3bc390ea2d1055f35"},{"rt":3526.509999996051,"stimulus":"img/00413.png","slider_start":4,"response":4,"trial_type":"image-slider-response","trial_index":25,"time_elapsed":124390,"internal_node_id":"0.0-3.0-0.22","subject_id":"5d484aa80054390001ab19d5","study_id":"605e2a800ccfa0c8e820d869","session_id":"606202c3bc390ea2d1055f35"},{"rt":2286.240000044927,"stimulus":"img/00801.png","slider_start":4,"response":3,"trial_type":"image-slider-response","trial_index":26,"time_elapsed":126678,"internal_node_id":"0.0-3.0-0.23","subject_id":"5d484aa80054390001ab19d5","study_id":"605e2a800ccfa0c8e820d869","session_id":"606202c3bc390ea2d1055f35"},{"rt":2070.469999918714,"stimulus":"img/00653.png","slider_start":4,"response":2,"trial_type":"image-slider-response","trial_index":27,"time_elapsed":128750,"internal_node_id":"0.0-3.0-0.24","subject_id":"5d484aa80054390001ab19d5","study_id":"605e2a800ccfa0c8e820d869","session_id":"606202c3bc390ea2d1055f35"},{"rt":1750.4650000482798,"stimulus":"img/00115.png","slider_start":4,"response":1,"trial_type":"image-slider-response","trial_index":28,"time_elapsed":130502,"internal_node_id":"0.0-3.0-0.25","subject_id":"5d484aa80054390001ab19d5","study_id":"605e2a800ccfa0c8e820d869","session_id":"606202c3bc390ea2d1055f35"},{"rt":1798.685000045225,"stimulus":"img/00867.png","slider_start":4,"response":3,"trial_type":"image-slider-response","trial_index":29,"time_elapsed":132302,"internal_node_id":"0.0-3.0-0.26","subject_id":"5d484aa80054390001ab19d5","study_id":"605e2a800ccfa0c8e820d869","session_id":"606202c3bc390ea2d1055f35"},{"rt":2126.3449999969453,"stimulus":"img/00926.png","slider_start":4,"response":2,"trial_type":"image-slider-response","trial_index":30,"time_elapsed":134430,"internal_node_id":"0.0-3.0-0.27","subject_id":"5d484aa80054390001ab19d5","study_id":"605e2a800ccfa0c8e820d869","session_id":"606202c3bc390ea2d1055f35"},{"rt":1742.5299999304116,"stimulus":"img/00462.png","slider_start":4,"response":5,"trial_type":"image-slider-response","trial_index":31,"time_elapsed":136174,"internal_node_id":"0.0-3.0-0.28","subject_id":"5d484aa80054390001ab19d5","study_id":"605e2a800ccfa0c8e820d869","session_id":"606202c3bc390ea2d1055f35"},{"rt":2406.6250000614673,"stimulus":"img/00691.png","slider_start":4,"response":2,"trial_type":"image-slider-response","trial_index":32,"time_elapsed":138582,"internal_node_id":"0.0-3.0-0.29","subject_id":"5d484aa80054390001ab19d5","study_id":"605e2a800ccfa0c8e820d869","session_id":"606202c3bc390ea2d1055f35"},{"rt":1934.5150000881404,"stimulus":"img/00559.png","slider_start":4,"response":3,"trial_type":"image-slider-response","trial_index":33,"time_elapsed":140518,"internal_node_id":"0.0-3.0-0.30","subject_id":"5d484aa80054390001ab19d5","study_id":"605e2a800ccfa0c8e820d869","session_id":"606202c3bc390ea2d1055f35"},{"rt":2022.554999915883,"stimulus":"img/00991.png","slider_start":4,"response":2,"trial_type":"image-slider-response","trial_index":34,"time_elapsed":142542,"internal_node_id":"0.0-3.0-0.31","subject_id":"5d484aa80054390001ab19d5","study_id":"605e2a800ccfa0c8e820d869","session_id":"606202c3bc390ea2d1055f35"},{"rt":1806.5349999815226,"stimulus":"img/00545.png","slider_start":4,"response":1,"trial_type":"image-slider-response","trial_index":35,"time_elapsed":144350,"internal_node_id":"0.0-3.0-0.32","subject_id":"5d484aa80054390001ab19d5","study_id":"605e2a800ccfa0c8e820d869","session_id":"606202c3bc390ea2d1055f35"},{"rt":1966.5300000924617,"stimulus":"img/00511.png","slider_start":4,"response":2,"trial_type":"image-slider-response","trial_index":36,"time_elapsed":146318,"internal_node_id":"0.0-3.0-0.33","subject_id":"5d484aa80054390001ab19d5","study_id":"605e2a800ccfa0c8e820d869","session_id":"606202c3bc390ea2d1055f35"},{"rt":2206.6699999850243,"stimulus":"img/00472.png","slider_start":4,"response":1,"trial_type":"image-slider-response","trial_index":37,"time_elapsed":148526,"internal_node_id":"0.0-3.0-0.34","subject_id":"5d484aa80054390001ab19d5","study_id":"605e2a800ccfa0c8e820d869","session_id":"606202c3bc390ea2d1055f35"},{"rt":3078.444999875501,"stimulus":"img/00432.png","slider_start":4,"response":6,"trial_type":"image-slider-response","trial_index":38,"time_elapsed":151606,"internal_node_id":"0.0-3.0-0.35","subject_id":"5d484aa80054390001ab19d5","study_id":"605e2a800ccfa0c8e820d869","session_id":"606202c3bc390ea2d1055f35"},{"rt":2094.329999992624,"stimulus":"img/00951.png","slider_start":4,"response":2,"trial_type":"image-slider-response","trial_index":39,"time_elapsed":153702,"internal_node_id":"0.0-3.0-0.36","subject_id":"5d484aa80054390001ab19d5","study_id":"605e2a800ccfa0c8e820d869","session_id":"606202c3bc390ea2d1055f35"},{"rt":1814.5200000144541,"stimulus":"img/00478.png","slider_start":4,"response":3,"trial_type":"image-slider-response","trial_index":40,"time_elapsed":155518,"internal_node_id":"0.0-3.0-0.37","subject_id":"5d484aa80054390001ab19d5","study_id":"605e2a800ccfa0c8e820d869","session_id":"606202c3bc390ea2d1055f35"},{"rt":1598.4549999702722,"stimulus":"img/00543.png","slider_start":4,"response":1,"trial_type":"image-slider-response","trial_index":41,"time_elapsed":157118,"internal_node_id":"0.0-3.0-0.38","subject_id":"5d484aa80054390001ab19d5","study_id":"605e2a800ccfa0c8e820d869","session_id":"606202c3bc390ea2d1055f35"},{"rt":1854.384999955073,"stimulus":"img/00752.png","slider_start":4,"response":1,"trial_type":"image-slider-response","trial_index":42,"time_elapsed":158974,"internal_node_id":"0.0-3.0-0.39","subject_id":"5d484aa80054390001ab19d5","study_id":"605e2a800ccfa0c8e820d869","session_id":"606202c3bc390ea2d1055f35"},{"rt":1766.7000000365078,"stimulus":"img/00913.png","slider_start":4,"response":1,"trial_type":"image-slider-response","trial_index":43,"time_elapsed":160742,"internal_node_id":"0.0-3.0-0.40","subject_id":"5d484aa80054390001ab19d5","study_id":"605e2a800ccfa0c8e820d869","session_id":"606202c3bc390ea2d1055f35"},{"rt":1934.4649999402463,"stimulus":"img/00785.png","slider_start":4,"response":1,"trial_type":"image-slider-response","trial_index":44,"time_elapsed":162678,"internal_node_id":"0.0-3.0-0.41","subject_id":"5d484aa80054390001ab19d5","study_id":"605e2a800ccfa0c8e820d869","session_id":"606202c3bc390ea2d1055f35"},{"rt":2134.54999984242,"stimulus":"img/00809.png","slider_start":4,"response":5,"trial_type":"image-slider-response","trial_index":45,"time_elapsed":164814,"internal_node_id":"0.0-3.0-0.42","subject_id":"5d484aa80054390001ab19d5","study_id":"605e2a800ccfa0c8e820d869","session_id":"606202c3bc390ea2d1055f35"},{"rt":2134.695000015199,"stimulus":"img/00995.png","slider_start":4,"response":3,"trial_type":"image-slider-response","trial_index":46,"time_elapsed":166950,"internal_node_id":"0.0-3.0-0.43","subject_id":"5d484aa80054390001ab19d5","study_id":"605e2a800ccfa0c8e820d869","session_id":"606202c3bc390ea2d1055f35"},{"rt":2854.575000004843,"stimulus":"img/00761.png","slider_start":4,"response":4,"trial_type":"image-slider-response","trial_index":47,"time_elapsed":169806,"internal_node_id":"0.0-3.0-0.44","subject_id":"5d484aa80054390001ab19d5","study_id":"605e2a800ccfa0c8e820d869","session_id":"606202c3bc390ea2d1055f35"},{"rt":2598.2900001108646,"stimulus":"img/00100.png","slider_start":4,"response":2,"trial_type":"image-slider-response","trial_index":48,"time_elapsed":172406,"internal_node_id":"0.0-3.0-0.45","subject_id":"5d484aa80054390001ab19d5","study_id":"605e2a800ccfa0c8e820d869","session_id":"606202c3bc390ea2d1055f35"},{"rt":2886.45499991253,"stimulus":"img/00424.png","slider_start":4,"response":5,"trial_type":"image-slider-response","trial_index":49,"time_elapsed":175294,"internal_node_id":"0.0-3.0-0.46","subject_id":"5d484aa80054390001ab19d5","study_id":"605e2a800ccfa0c8e820d869","session_id":"606202c3bc390ea2d1055f35"},{"rt":1726.4700001105666,"stimulus":"img/00644.png","slider_start":4,"response":5,"trial_type":"image-slider-response","trial_index":50,"time_elapsed":177022,"internal_node_id":"0.0-3.0-0.47","subject_id":"5d484aa80054390001ab19d5","study_id":"605e2a800ccfa0c8e820d869","session_id":"606202c3bc390ea2d1055f35"},{"rt":1838.5049998760223,"stimulus":"img/00055.png","slider_start":4,"response":5,"trial_type":"image-slider-response","trial_index":51,"time_elapsed":178862,"internal_node_id":"0.0-3.0-0.48","subject_id":"5d484aa80054390001ab19d5","study_id":"605e2a800ccfa0c8e820d869","session_id":"606202c3bc390ea2d1055f35"},{"rt":1782.5449998490512,"stimulus":"img/00481.png","slider_start":4,"response":1,"trial_type":"image-slider-response","trial_index":52,"time_elapsed":180646,"internal_node_id":"0.0-3.0-0.49","subject_id":"5d484aa80054390001ab19d5","study_id":"605e2a800ccfa0c8e820d869","session_id":"606202c3bc390ea2d1055f35"},{"rt":3022.5850001443177,"stimulus":"img/00850.png","slider_start":4,"response":3,"trial_type":"image-slider-response","trial_index":53,"time_elapsed":183670,"internal_node_id":"0.0-3.0-0.50","subject_id":"5d484aa80054390001ab19d5","study_id":"605e2a800ccfa0c8e820d869","session_id":"606202c3bc390ea2d1055f35"},{"rt":2110.3700001258403,"stimulus":"img/00744.png","slider_start":4,"response":1,"trial_type":"image-slider-response","trial_index":54,"time_elapsed":185782,"internal_node_id":"0.0-3.0-0.51","subject_id":"5d484aa80054390001ab19d5","study_id":"605e2a800ccfa0c8e820d869","session_id":"606202c3bc390ea2d1055f35"},{"rt":2062.434999970719,"stimulus":"img/00982.png","slider_start":4,"response":3,"trial_type":"image-slider-response","trial_index":55,"time_elapsed":187846,"internal_node_id":"0.0-3.0-0.52","subject_id":"5d484aa80054390001ab19d5","study_id":"605e2a800ccfa0c8e820d869","session_id":"606202c3bc390ea2d1055f35"},{"rt":1918.549999827519,"stimulus":"img/00689.png","slider_start":4,"response":5,"trial_type":"image-slider-response","trial_index":56,"time_elapsed":189766,"internal_node_id":"0.0-3.0-0.53","subject_id":"5d484aa80054390001ab19d5","study_id":"605e2a800ccfa0c8e820d869","session_id":"606202c3bc390ea2d1055f35"},{"rt":2014.339999994263,"stimulus":"img/00928.png","slider_start":4,"response":2,"trial_type":"image-slider-response","trial_index":57,"time_elapsed":191782,"internal_node_id":"0.0-3.0-0.54","subject_id":"5d484aa80054390001ab19d5","study_id":"605e2a800ccfa0c8e820d869","session_id":"606202c3bc390ea2d1055f35"},{"rt":3734.635000117123,"stimulus":"img/00817.png","slider_start":4,"response":1,"trial_type":"image-slider-response","trial_index":58,"time_elapsed":195518,"internal_node_id":"0.0-3.0-0.55","subject_id":"5d484aa80054390001ab19d5","study_id":"605e2a800ccfa0c8e820d869","session_id":"606202c3bc390ea2d1055f35"},{"rt":2006.3100000843406,"stimulus":"img/00791.png","slider_start":4,"response":3,"trial_type":"image-slider-response","trial_index":59,"time_elapsed":197526,"internal_node_id":"0.0-3.0-0.56","subject_id":"5d484aa80054390001ab19d5","study_id":"605e2a800ccfa0c8e820d869","session_id":"606202c3bc390ea2d1055f35"},{"rt":3566.4949999190867,"stimulus":"img/00747.png","slider_start":4,"response":4,"trial_type":"image-slider-response","trial_index":60,"time_elapsed":201094,"internal_node_id":"0.0-3.0-0.57","subject_id":"5d484aa80054390001ab19d5","study_id":"605e2a800ccfa0c8e820d869","session_id":"606202c3bc390ea2d1055f35"},{"rt":2510.664999950677,"stimulus":"img/00742.png","slider_start":4,"response":5,"trial_type":"image-slider-response","trial_index":61,"time_elapsed":203606,"internal_node_id":"0.0-3.0-0.58","subject_id":"5d484aa80054390001ab19d5","study_id":"605e2a800ccfa0c8e820d869","session_id":"606202c3bc390ea2d1055f35"},{"rt":1942.0549999922514,"stimulus":"img/00415.png","slider_start":4,"response":5,"trial_type":"image-slider-response","trial_index":62,"time_elapsed":205550,"internal_node_id":"0.0-3.0-0.59","subject_id":"5d484aa80054390001ab19d5","study_id":"605e2a800ccfa0c8e820d869","session_id":"606202c3bc390ea2d1055f35"},{"rt":2142.405000049621,"stimulus":"img/00499.png","slider_start":4,"response":3,"trial_type":"image-slider-response","trial_index":63,"time_elapsed":207694,"internal_node_id":"0.0-3.0-0.60","subject_id":"5d484aa80054390001ab19d5","study_id":"605e2a800ccfa0c8e820d869","session_id":"606202c3bc390ea2d1055f35"},{"rt":1750.779999885708,"stimulus":"img/00810.png","slider_start":4,"response":1,"trial_type":"image-slider-response","trial_index":64,"time_elapsed":209446,"internal_node_id":"0.0-3.0-0.61","subject_id":"5d484aa80054390001ab19d5","study_id":"605e2a800ccfa0c8e820d869","session_id":"606202c3bc390ea2d1055f35"},{"rt":2374.4799999985844,"stimulus":"img/00127.png","slider_start":4,"response":1,"trial_type":"image-slider-response","trial_index":65,"time_elapsed":211822,"internal_node_id":"0.0-3.0-0.62","subject_id":"5d484aa80054390001ab19d5","study_id":"605e2a800ccfa0c8e820d869","session_id":"606202c3bc390ea2d1055f35"},{"rt":1814.5349998958409,"stimulus":"img/00878.png","slider_start":4,"response":3,"trial_type":"image-slider-response","trial_index":66,"time_elapsed":213638,"internal_node_id":"0.0-3.0-0.63","subject_id":"5d484aa80054390001ab19d5","study_id":"605e2a800ccfa0c8e820d869","session_id":"606202c3bc390ea2d1055f35"},{"rt":3982.5299999210984,"stimulus":"img/00483.png","slider_start":4,"response":3,"trial_type":"image-slider-response","trial_index":67,"time_elapsed":217622,"internal_node_id":"0.0-3.0-0.64","subject_id":"5d484aa80054390001ab19d5","study_id":"605e2a800ccfa0c8e820d869","session_id":"606202c3bc390ea2d1055f35"},{"rt":2766.249999869615,"stimulus":"img/00405.png","slider_start":4,"response":2,"trial_type":"image-slider-response","trial_index":68,"time_elapsed":220390,"internal_node_id":"0.0-3.0-0.65","subject_id":"5d484aa80054390001ab19d5","study_id":"605e2a800ccfa0c8e820d869","session_id":"606202c3bc390ea2d1055f35"},{"rt":2030.5200000293553,"stimulus":"img/00799.png","slider_start":4,"response":1,"trial_type":"image-slider-response","trial_index":69,"time_elapsed":222422,"internal_node_id":"0.0-3.0-0.66","subject_id":"5d484aa80054390001ab19d5","study_id":"605e2a800ccfa0c8e820d869","session_id":"606202c3bc390ea2d1055f35"},{"rt":2422.4399998784065,"stimulus":"img/00018.png","slider_start":4,"response":2,"trial_type":"image-slider-response","trial_index":70,"time_elapsed":224846,"internal_node_id":"0.0-3.0-0.67","subject_id":"5d484aa80054390001ab19d5","study_id":"605e2a800ccfa0c8e820d869","session_id":"606202c3bc390ea2d1055f35"},{"rt":3214.519999921322,"stimulus":"img/00731.png","slider_start":4,"response":3,"trial_type":"image-slider-response","trial_index":71,"time_elapsed":228062,"internal_node_id":"0.0-3.0-0.68","subject_id":"5d484aa80054390001ab19d5","study_id":"605e2a800ccfa0c8e820d869","session_id":"606202c3bc390ea2d1055f35"},{"rt":1998.1299999635667,"stimulus":"img/00592.png","slider_start":4,"response":5,"trial_type":"image-slider-response","trial_index":72,"time_elapsed":230062,"internal_node_id":"0.0-3.0-0.69","subject_id":"5d484aa80054390001ab19d5","study_id":"605e2a800ccfa0c8e820d869","session_id":"606202c3bc390ea2d1055f35"},{"rt":1726.5449999831617,"stimulus":"img/00570.png","slider_start":4,"response":2,"trial_type":"image-slider-response","trial_index":73,"time_elapsed":231790,"internal_node_id":"0.0-3.0-0.70","subject_id":"5d484aa80054390001ab19d5","study_id":"605e2a800ccfa0c8e820d869","session_id":"606202c3bc390ea2d1055f35"},{"rt":1702.4499999824911,"stimulus":"img/00956.png","slider_start":4,"response":1,"trial_type":"image-slider-response","trial_index":74,"time_elapsed":233494,"internal_node_id":"0.0-3.0-0.71","subject_id":"5d484aa80054390001ab19d5","study_id":"605e2a800ccfa0c8e820d869","session_id":"606202c3bc390ea2d1055f35"},{"rt":1614.6849999204278,"stimulus":"img/00002.png","slider_start":4,"response":1,"trial_type":"image-slider-response","trial_index":75,"time_elapsed":235110,"internal_node_id":"0.0-3.0-0.72","subject_id":"5d484aa80054390001ab19d5","study_id":"605e2a800ccfa0c8e820d869","session_id":"606202c3bc390ea2d1055f35"},{"rt":1766.509999986738,"stimulus":"img/00811.png","slider_start":4,"response":3,"trial_type":"image-slider-response","trial_index":76,"time_elapsed":236878,"internal_node_id":"0.0-3.0-0.73","subject_id":"5d484aa80054390001ab19d5","study_id":"605e2a800ccfa0c8e820d869","session_id":"606202c3bc390ea2d1055f35"},{"rt":1966.5200000163168,"stimulus":"img/00064.png","slider_start":4,"response":5,"trial_type":"image-slider-response","trial_index":77,"time_elapsed":238846,"internal_node_id":"0.0-3.0-0.74","subject_id":"5d484aa80054390001ab19d5","study_id":"605e2a800ccfa0c8e820d869","session_id":"606202c3bc390ea2d1055f35"},{"rt":3814.5500000100583,"stimulus":"img/00440.png","slider_start":4,"response":1,"trial_type":"image-slider-response","trial_index":78,"time_elapsed":242662,"internal_node_id":"0.0-3.0-0.75","subject_id":"5d484aa80054390001ab19d5","study_id":"605e2a800ccfa0c8e820d869","session_id":"606202c3bc390ea2d1055f35"},{"rt":1502.0049999002367,"stimulus":"img/00879.png","slider_start":4,"response":1,"trial_type":"image-slider-response","trial_index":79,"time_elapsed":244166,"internal_node_id":"0.0-3.0-0.76","subject_id":"5d484aa80054390001ab19d5","study_id":"605e2a800ccfa0c8e820d869","session_id":"606202c3bc390ea2d1055f35"},{"rt":1846.4549998752773,"stimulus":"img/00504.png","slider_start":4,"response":3,"trial_type":"image-slider-response","trial_index":80,"time_elapsed":246014,"internal_node_id":"0.0-3.0-0.77","subject_id":"5d484aa80054390001ab19d5","study_id":"605e2a800ccfa0c8e820d869","session_id":"606202c3bc390ea2d1055f35"},{"rt":2454.599999822676,"stimulus":"img/00618.png","slider_start":4,"response":3,"trial_type":"image-slider-response","trial_index":81,"time_elapsed":248470,"internal_node_id":"0.0-3.0-0.78","subject_id":"5d484aa80054390001ab19d5","study_id":"605e2a800ccfa0c8e820d869","session_id":"606202c3bc390ea2d1055f35"},{"rt":1758.5100000724196,"stimulus":"img/00122.png","slider_start":4,"response":2,"trial_type":"image-slider-response","trial_index":82,"time_elapsed":250230,"internal_node_id":"0.0-3.0-0.79","subject_id":"5d484aa80054390001ab19d5","study_id":"605e2a800ccfa0c8e820d869","session_id":"606202c3bc390ea2d1055f35"},{"rt":1886.6500000003725,"stimulus":"img/00479.png","slider_start":4,"response":1,"trial_type":"image-slider-response","trial_index":83,"time_elapsed":252118,"internal_node_id":"0.0-3.0-0.80","subject_id":"5d484aa80054390001ab19d5","study_id":"605e2a800ccfa0c8e820d869","session_id":"606202c3bc390ea2d1055f35"},{"rt":1966.4900000207126,"stimulus":"img/00489.png","slider_start":4,"response":2,"trial_type":"image-slider-response","trial_index":84,"time_elapsed":254086,"internal_node_id":"0.0-3.0-0.81","subject_id":"5d484aa80054390001ab19d5","study_id":"605e2a800ccfa0c8e820d869","session_id":"606202c3bc390ea2d1055f35"},{"rt":1718.4649999253452,"stimulus":"img/00522.png","slider_start":4,"response":5,"trial_type":"image-slider-response","trial_index":85,"time_elapsed":255806,"internal_node_id":"0.0-3.0-0.82","subject_id":"5d484aa80054390001ab19d5","study_id":"605e2a800ccfa0c8e820d869","session_id":"606202c3bc390ea2d1055f35"},{"rt":1806.3850000035018,"stimulus":"img/00967.png","slider_start":4,"response":1,"trial_type":"image-slider-response","trial_index":86,"time_elapsed":257614,"internal_node_id":"0.0-3.0-0.83","subject_id":"5d484aa80054390001ab19d5","study_id":"605e2a800ccfa0c8e820d869","session_id":"606202c3bc390ea2d1055f35"},{"rt":1742.6150001119822,"stimulus":"img/00600.png","slider_start":4,"response":1,"trial_type":"image-slider-response","trial_index":87,"time_elapsed":259358,"internal_node_id":"0.0-3.0-0.84","subject_id":"5d484aa80054390001ab19d5","study_id":"605e2a800ccfa0c8e820d869","session_id":"606202c3bc390ea2d1055f35"},{"rt":2038.5649998206645,"stimulus":"img/00822.png","slider_start":4,"response":3,"trial_type":"image-slider-response","trial_index":88,"time_elapsed":261398,"internal_node_id":"0.0-3.0-0.85","subject_id":"5d484aa80054390001ab19d5","study_id":"605e2a800ccfa0c8e820d869","session_id":"606202c3bc390ea2d1055f35"},{"rt":2230.574999935925,"stimulus":"img/40.png","slider_start":4,"response":1,"trial_type":"image-slider-response","trial_index":89,"time_elapsed":263630,"internal_node_id":"0.0-3.0-0.86","subject_id":"5d484aa80054390001ab19d5","study_id":"605e2a800ccfa0c8e820d869","session_id":"606202c3bc390ea2d1055f35"},{"rt":2206.514999968931,"stimulus":"img/00077.png","slider_start":4,"response":1,"trial_type":"image-slider-response","trial_index":90,"time_elapsed":265838,"internal_node_id":"0.0-3.0-0.87","subject_id":"5d484aa80054390001ab19d5","study_id":"605e2a800ccfa0c8e820d869","session_id":"606202c3bc390ea2d1055f35"},{"rt":2030.5250000674278,"stimulus":"img/00587.png","slider_start":4,"response":5,"trial_type":"image-slider-response","trial_index":91,"time_elapsed":267870,"internal_node_id":"0.0-3.0-0.88","subject_id":"5d484aa80054390001ab19d5","study_id":"605e2a800ccfa0c8e820d869","session_id":"606202c3bc390ea2d1055f35"},{"rt":3270.424999995157,"stimulus":"img/00114.png","slider_start":4,"response":5,"trial_type":"image-slider-response","trial_index":92,"time_elapsed":271142,"internal_node_id":"0.0-3.0-0.89","subject_id":"5d484aa80054390001ab19d5","study_id":"605e2a800ccfa0c8e820d869","session_id":"606202c3bc390ea2d1055f35"},{"rt":2334.4900000374764,"stimulus":"img/00126.png","slider_start":4,"response":2,"trial_type":"image-slider-response","trial_index":93,"time_elapsed":273478,"internal_node_id":"0.0-3.0-0.90","subject_id":"5d484aa80054390001ab19d5","study_id":"605e2a800ccfa0c8e820d869","session_id":"606202c3bc390ea2d1055f35"},{"rt":2358.3199998829514,"stimulus":"img/00542.png","slider_start":4,"response":3,"trial_type":"image-slider-response","trial_index":94,"time_elapsed":275838,"internal_node_id":"0.0-3.0-0.91","subject_id":"5d484aa80054390001ab19d5","study_id":"605e2a800ccfa0c8e820d869","session_id":"606202c3bc390ea2d1055f35"},{"rt":2334.379999898374,"stimulus":"img/00011.png","slider_start":4,"response":2,"trial_type":"image-slider-response","trial_index":95,"time_elapsed":278174,"internal_node_id":"0.0-3.0-0.92","subject_id":"5d484aa80054390001ab19d5","study_id":"605e2a800ccfa0c8e820d869","session_id":"606202c3bc390ea2d1055f35"},{"rt":2214.4049999769777,"stimulus":"img/00998.png","slider_start":4,"response":2,"trial_type":"image-slider-response","trial_index":96,"time_elapsed":280390,"internal_node_id":"0.0-3.0-0.93","subject_id":"5d484aa80054390001ab19d5","study_id":"605e2a800ccfa0c8e820d869","session_id":"606202c3bc390ea2d1055f35"},{"rt":2046.580000082031,"stimulus":"img/00797.png","slider_start":4,"response":1,"trial_type":"image-slider-response","trial_index":97,"time_elapsed":282438,"internal_node_id":"0.0-3.0-0.94","subject_id":"5d484aa80054390001ab19d5","study_id":"605e2a800ccfa0c8e820d869","session_id":"606202c3bc390ea2d1055f35"},{"rt":2190.5450001358986,"stimulus":"img/00629.png","slider_start":4,"response":3,"trial_type":"image-slider-response","trial_index":98,"time_elapsed":284630,"internal_node_id":"0.0-3.0-0.95","subject_id":"5d484aa80054390001ab19d5","study_id":"605e2a800ccfa0c8e820d869","session_id":"606202c3bc390ea2d1055f35"},{"rt":4286.455000052229,"stimulus":"img/00755.png","slider_start":4,"response":4,"trial_type":"image-slider-response","trial_index":99,"time_elapsed":288918,"internal_node_id":"0.0-3.0-0.96","subject_id":"5d484aa80054390001ab19d5","study_id":"605e2a800ccfa0c8e820d869","session_id":"606202c3bc390ea2d1055f35"},{"rt":2158.199999947101,"stimulus":"img/00780.png","slider_start":4,"response":2,"trial_type":"image-slider-response","trial_index":100,"time_elapsed":291078,"internal_node_id":"0.0-3.0-0.97","subject_id":"5d484aa80054390001ab19d5","study_id":"605e2a800ccfa0c8e820d869","session_id":"606202c3bc390ea2d1055f35"},{"rt":2182.5699999462813,"stimulus":"img/00569.png","slider_start":4,"response":3,"trial_type":"image-slider-response","trial_index":101,"time_elapsed":293262,"internal_node_id":"0.0-3.0-0.98","subject_id":"5d484aa80054390001ab19d5","study_id":"605e2a800ccfa0c8e820d869","session_id":"606202c3bc390ea2d1055f35"},{"rt":1630.1049999892712,"stimulus":"img/00718.png","slider_start":4,"response":2,"trial_type":"image-slider-response","trial_index":102,"time_elapsed":294894,"internal_node_id":"0.0-3.0-0.99","subject_id":"5d484aa80054390001ab19d5","study_id":"605e2a800ccfa0c8e820d869","session_id":"606202c3bc390ea2d1055f35"},{"rt":2254.715000046417,"stimulus":"img/00404.png","slider_start":4,"response":1,"trial_type":"image-slider-response","trial_index":103,"time_elapsed":297150,"internal_node_id":"0.0-3.0-0.100","subject_id":"5d484aa80054390001ab19d5","study_id":"605e2a800ccfa0c8e820d869","session_id":"606202c3bc390ea2d1055f35"},{"rt":2230.5050001014024,"stimulus":"img/00842.png","slider_start":4,"response":3,"trial_type":"image-slider-response","trial_index":104,"time_elapsed":299382,"internal_node_id":"0.0-3.0-0.101","subject_id":"5d484aa80054390001ab19d5","study_id":"605e2a800ccfa0c8e820d869","session_id":"606202c3bc390ea2d1055f35"},{"rt":1798.2199999969453,"stimulus":"img/00549.png","slider_start":4,"response":4,"trial_type":"image-slider-response","trial_index":105,"time_elapsed":301182,"internal_node_id":"0.0-3.0-0.102","subject_id":"5d484aa80054390001ab19d5","study_id":"605e2a800ccfa0c8e820d869","session_id":"606202c3bc390ea2d1055f35"},{"rt":2086.3700001500547,"stimulus":"img/00447.png","slider_start":4,"response":1,"trial_type":"image-slider-response","trial_index":106,"time_elapsed":303270,"internal_node_id":"0.0-3.0-0.103","subject_id":"5d484aa80054390001ab19d5","study_id":"605e2a800ccfa0c8e820d869","session_id":"606202c3bc390ea2d1055f35"},{"rt":2382.4050000403076,"stimulus":"img/00833.png","slider_start":4,"response":1,"trial_type":"image-slider-response","trial_index":107,"time_elapsed":305654,"internal_node_id":"0.0-3.0-0.104","subject_id":"5d484aa80054390001ab19d5","study_id":"605e2a800ccfa0c8e820d869","session_id":"606202c3bc390ea2d1055f35"},{"rt":1582.5749998912215,"stimulus":"img/00768.png","slider_start":4,"response":1,"trial_type":"image-slider-response","trial_index":108,"time_elapsed":307238,"internal_node_id":"0.0-3.0-0.105","subject_id":"5d484aa80054390001ab19d5","study_id":"605e2a800ccfa0c8e820d869","session_id":"606202c3bc390ea2d1055f35"},{"rt":3510.520000010729,"stimulus":"img/00082.png","slider_start":4,"response":5,"trial_type":"image-slider-response","trial_index":109,"time_elapsed":310750,"internal_node_id":"0.0-3.0-0.106","subject_id":"5d484aa80054390001ab19d5","study_id":"605e2a800ccfa0c8e820d869","session_id":"606202c3bc390ea2d1055f35"},{"rt":2718.4350001625717,"stimulus":"img/00093.png","slider_start":4,"response":2,"trial_type":"image-slider-response","trial_index":110,"time_elapsed":313470,"internal_node_id":"0.0-3.0-0.107","subject_id":"5d484aa80054390001ab19d5","study_id":"605e2a800ccfa0c8e820d869","session_id":"606202c3bc390ea2d1055f35"},{"rt":1942.1449999790639,"stimulus":"img/00101.png","slider_start":4,"response":1,"trial_type":"image-slider-response","trial_index":111,"time_elapsed":315415,"internal_node_id":"0.0-3.0-0.108","subject_id":"5d484aa80054390001ab19d5","study_id":"605e2a800ccfa0c8e820d869","session_id":"606202c3bc390ea2d1055f35"},{"rt":1630.0899998750538,"stimulus":"img/00113.png","slider_start":4,"response":3,"trial_type":"image-slider-response","trial_index":112,"time_elapsed":317046,"internal_node_id":"0.0-3.0-0.109","subject_id":"5d484aa80054390001ab19d5","study_id":"605e2a800ccfa0c8e820d869","session_id":"606202c3bc390ea2d1055f35"},{"rt":1990.4849999584258,"stimulus":"img/00988.png","slider_start":4,"response":3,"trial_type":"image-slider-response","trial_index":113,"time_elapsed":319038,"internal_node_id":"0.0-3.0-0.110","subject_id":"5d484aa80054390001ab19d5","study_id":"605e2a800ccfa0c8e820d869","session_id":"606202c3bc390ea2d1055f35"},{"rt":1958.4699999541044,"stimulus":"img/00631.png","slider_start":4,"response":4,"trial_type":"image-slider-response","trial_index":114,"time_elapsed":320998,"internal_node_id":"0.0-3.0-0.111","subject_id":"5d484aa80054390001ab19d5","study_id":"605e2a800ccfa0c8e820d869","session_id":"606202c3bc390ea2d1055f35"},{"rt":1726.4900000300258,"stimulus":"img/00722.png","slider_start":4,"response":2,"trial_type":"image-slider-response","trial_index":115,"time_elapsed":322726,"internal_node_id":"0.0-3.0-0.112","subject_id":"5d484aa80054390001ab19d5","study_id":"605e2a800ccfa0c8e820d869","session_id":"606202c3bc390ea2d1055f35"},{"rt":1895.3899999614805,"stimulus":"img/00564.png","slider_start":4,"response":3,"trial_type":"image-slider-response","trial_index":116,"time_elapsed":324623,"internal_node_id":"0.0-3.0-0.113","subject_id":"5d484aa80054390001ab19d5","study_id":"605e2a800ccfa0c8e820d869","session_id":"606202c3bc390ea2d1055f35"},{"rt":1973.6399999819696,"stimulus":"img/00973.png","slider_start":4,"response":4,"trial_type":"image-slider-response","trial_index":117,"time_elapsed":326598,"internal_node_id":"0.0-3.0-0.114","subject_id":"5d484aa80054390001ab19d5","study_id":"605e2a800ccfa0c8e820d869","session_id":"606202c3bc390ea2d1055f35"},{"rt":1830.494999885559,"stimulus":"img/00708.png","slider_start":4,"response":1,"trial_type":"image-slider-response","trial_index":118,"time_elapsed":328430,"internal_node_id":"0.0-3.0-0.115","subject_id":"5d484aa80054390001ab19d5","study_id":"605e2a800ccfa0c8e820d869","session_id":"606202c3bc390ea2d1055f35"},{"rt":1638.509999960661,"stimulus":"img/00059.png","slider_start":4,"response":3,"trial_type":"image-slider-response","trial_index":119,"time_elapsed":330070,"internal_node_id":"0.0-3.0-0.116","subject_id":"5d484aa80054390001ab19d5","study_id":"605e2a800ccfa0c8e820d869","session_id":"606202c3bc390ea2d1055f35"},{"rt":1902.3599999491125,"stimulus":"img/00496.png","slider_start":4,"response":3,"trial_type":"image-slider-response","trial_index":120,"time_elapsed":331974,"internal_node_id":"0.0-3.0-0.117","subject_id":"5d484aa80054390001ab19d5","study_id":"605e2a800ccfa0c8e820d869","session_id":"606202c3bc390ea2d1055f35"},{"rt":1454.759999876842,"stimulus":"img/00825.png","slider_start":4,"response":4,"trial_type":"image-slider-response","trial_index":121,"time_elapsed":333430,"internal_node_id":"0.0-3.0-0.118","subject_id":"5d484aa80054390001ab19d5","study_id":"605e2a800ccfa0c8e820d869","session_id":"606202c3bc390ea2d1055f35"},{"rt":2838.2999999448657,"stimulus":"img/00690.png","slider_start":4,"response":5,"trial_type":"image-slider-response","trial_index":122,"time_elapsed":336270,"internal_node_id":"0.0-3.0-0.119","subject_id":"5d484aa80054390001ab19d5","study_id":"605e2a800ccfa0c8e820d869","session_id":"606202c3bc390ea2d1055f35"},{"rt":2278.4750000573695,"stimulus":"img/00930.png","slider_start":4,"response":4,"trial_type":"image-slider-response","trial_index":123,"time_elapsed":338550,"internal_node_id":"0.0-3.0-0.120","subject_id":"5d484aa80054390001ab19d5","study_id":"605e2a800ccfa0c8e820d869","session_id":"606202c3bc390ea2d1055f35"},{"rt":2038.5949998162687,"stimulus":"img/00764.png","slider_start":4,"response":2,"trial_type":"image-slider-response","trial_index":124,"time_elapsed":340590,"internal_node_id":"0.0-3.0-0.121","subject_id":"5d484aa80054390001ab19d5","study_id":"605e2a800ccfa0c8e820d869","session_id":"606202c3bc390ea2d1055f35"},{"rt":2838.5249997954816,"stimulus":"img/00041.png","slider_start":4,"response":6,"trial_type":"image-slider-response","trial_index":125,"time_elapsed":343430,"internal_node_id":"0.0-3.0-0.122","subject_id":"5d484aa80054390001ab19d5","study_id":"605e2a800ccfa0c8e820d869","session_id":"606202c3bc390ea2d1055f35"},{"rt":2094.2150000482798,"stimulus":"img/00853.png","slider_start":4,"response":1,"trial_type":"image-slider-response","trial_index":126,"time_elapsed":345526,"internal_node_id":"0.0-3.0-0.123","subject_id":"5d484aa80054390001ab19d5","study_id":"605e2a800ccfa0c8e820d869","session_id":"606202c3bc390ea2d1055f35"},{"rt":1630.3949998691678,"stimulus":"img/00789.png","slider_start":4,"response":2,"trial_type":"image-slider-response","trial_index":127,"time_elapsed":347158,"internal_node_id":"0.0-3.0-0.124","subject_id":"5d484aa80054390001ab19d5","study_id":"605e2a800ccfa0c8e820d869","session_id":"606202c3bc390ea2d1055f35"},{"rt":1590.4700001701713,"stimulus":"img/00428.png","slider_start":4,"response":3,"trial_type":"image-slider-response","trial_index":128,"time_elapsed":348750,"internal_node_id":"0.0-3.0-0.125","subject_id":"5d484aa80054390001ab19d5","study_id":"605e2a800ccfa0c8e820d869","session_id":"606202c3bc390ea2d1055f35"},{"rt":1846.4649999514222,"stimulus":"img/00576.png","slider_start":4,"response":2,"trial_type":"image-slider-response","trial_index":129,"time_elapsed":350598,"internal_node_id":"0.0-3.0-0.126","subject_id":"5d484aa80054390001ab19d5","study_id":"605e2a800ccfa0c8e820d869","session_id":"606202c3bc390ea2d1055f35"},{"rt":1478.544999845326,"stimulus":"img/00508.png","slider_start":4,"response":3,"trial_type":"image-slider-response","trial_index":130,"time_elapsed":352078,"internal_node_id":"0.0-3.0-0.127","subject_id":"5d484aa80054390001ab19d5","study_id":"605e2a800ccfa0c8e820d869","session_id":"606202c3bc390ea2d1055f35"},{"rt":2926.035000011325,"stimulus":"img/00012.png","slider_start":4,"response":2,"trial_type":"image-slider-response","trial_index":131,"time_elapsed":355006,"internal_node_id":"0.0-3.0-0.128","subject_id":"5d484aa80054390001ab19d5","study_id":"605e2a800ccfa0c8e820d869","session_id":"606202c3bc390ea2d1055f35"},{"rt":9406.380000058562,"stimulus":"img/00406.png","slider_start":4,"response":4,"trial_type":"image-slider-response","trial_index":132,"time_elapsed":364414,"internal_node_id":"0.0-3.0-0.129","subject_id":"5d484aa80054390001ab19d5","study_id":"605e2a800ccfa0c8e820d869","session_id":"606202c3bc390ea2d1055f35"},{"rt":1958.4850000683218,"stimulus":"img/00779.png","slider_start":4,"response":2,"trial_type":"image-slider-response","trial_index":133,"time_elapsed":366374,"internal_node_id":"0.0-3.0-0.130","subject_id":"5d484aa80054390001ab19d5","study_id":"605e2a800ccfa0c8e820d869","session_id":"606202c3bc390ea2d1055f35"},{"rt":1718.509999802336,"stimulus":"img/00503.png","slider_start":4,"response":1,"trial_type":"image-slider-response","trial_index":134,"time_elapsed":368094,"internal_node_id":"0.0-3.0-0.131","subject_id":"5d484aa80054390001ab19d5","study_id":"605e2a800ccfa0c8e820d869","session_id":"606202c3bc390ea2d1055f35"},{"rt":1774.6550000738353,"stimulus":"img/00793.png","slider_start":4,"response":1,"trial_type":"image-slider-response","trial_index":135,"time_elapsed":369870,"internal_node_id":"0.0-3.0-0.132","subject_id":"5d484aa80054390001ab19d5","study_id":"605e2a800ccfa0c8e820d869","session_id":"606202c3bc390ea2d1055f35"},{"rt":1686.4750001113862,"stimulus":"img/00986.png","slider_start":4,"response":3,"trial_type":"image-slider-response","trial_index":136,"time_elapsed":371558,"internal_node_id":"0.0-3.0-0.133","subject_id":"5d484aa80054390001ab19d5","study_id":"605e2a800ccfa0c8e820d869","session_id":"606202c3bc390ea2d1055f35"},{"rt":1854.395000031218,"stimulus":"img/00037.png","slider_start":4,"response":2,"trial_type":"image-slider-response","trial_index":137,"time_elapsed":373414,"internal_node_id":"0.0-3.0-0.134","subject_id":"5d484aa80054390001ab19d5","study_id":"605e2a800ccfa0c8e820d869","session_id":"606202c3bc390ea2d1055f35"},{"rt":3206.6499998327345,"stimulus":"img/00756.png","slider_start":4,"response":4,"trial_type":"image-slider-response","trial_index":138,"time_elapsed":376622,"internal_node_id":"0.0-3.0-0.135","subject_id":"5d484aa80054390001ab19d5","study_id":"605e2a800ccfa0c8e820d869","session_id":"606202c3bc390ea2d1055f35"},{"rt":1894.5000001695007,"stimulus":"img/00760.png","slider_start":4,"response":2,"trial_type":"image-slider-response","trial_index":139,"time_elapsed":378518,"internal_node_id":"0.0-3.0-0.136","subject_id":"5d484aa80054390001ab19d5","study_id":"605e2a800ccfa0c8e820d869","session_id":"606202c3bc390ea2d1055f35"},{"rt":2142.6099999807775,"stimulus":"img/00790.png","slider_start":4,"response":3,"trial_type":"image-slider-response","trial_index":140,"time_elapsed":380662,"internal_node_id":"0.0-3.0-0.137","subject_id":"5d484aa80054390001ab19d5","study_id":"605e2a800ccfa0c8e820d869","session_id":"606202c3bc390ea2d1055f35"},{"rt":1822.2900000400841,"stimulus":"img/00454.png","slider_start":4,"response":2,"trial_type":"image-slider-response","trial_index":141,"time_elapsed":382486,"internal_node_id":"0.0-3.0-0.138","subject_id":"5d484aa80054390001ab19d5","study_id":"605e2a800ccfa0c8e820d869","session_id":"606202c3bc390ea2d1055f35"},{"rt":1701.8999999854714,"stimulus":"img/00129.png","slider_start":4,"response":1,"trial_type":"image-slider-response","trial_index":142,"time_elapsed":384190,"internal_node_id":"0.0-3.0-0.139","subject_id":"5d484aa80054390001ab19d5","study_id":"605e2a800ccfa0c8e820d869","session_id":"606202c3bc390ea2d1055f35"},{"rt":2752.820000052452,"stimulus":"img/00693.png","slider_start":4,"response":3,"trial_type":"image-slider-response","trial_index":143,"time_elapsed":386950,"internal_node_id":"0.0-3.0-0.140","subject_id":"5d484aa80054390001ab19d5","study_id":"605e2a800ccfa0c8e820d869","session_id":"606202c3bc390ea2d1055f35"},{"rt":1918.5299999080598,"stimulus":"img/00989.png","slider_start":4,"response":1,"trial_type":"image-slider-response","trial_index":144,"time_elapsed":388870,"internal_node_id":"0.0-3.0-0.141","subject_id":"5d484aa80054390001ab19d5","study_id":"605e2a800ccfa0c8e820d869","session_id":"606202c3bc390ea2d1055f35"},{"rt":1758.6850000079721,"stimulus":"img/00456.png","slider_start":4,"response":1,"trial_type":"image-slider-response","trial_index":145,"time_elapsed":390630,"internal_node_id":"0.0-3.0-0.142","subject_id":"5d484aa80054390001ab19d5","study_id":"605e2a800ccfa0c8e820d869","session_id":"606202c3bc390ea2d1055f35"},{"rt":2126.4800000935793,"stimulus":"img/00815.png","slider_start":4,"response":4,"trial_type":"image-slider-response","trial_index":146,"time_elapsed":392758,"internal_node_id":"0.0-3.0-0.143","subject_id":"5d484aa80054390001ab19d5","study_id":"605e2a800ccfa0c8e820d869","session_id":"606202c3bc390ea2d1055f35"},{"rt":1982.6300002168864,"stimulus":"img/00045.png","slider_start":4,"response":4,"trial_type":"image-slider-response","trial_index":147,"time_elapsed":394742,"internal_node_id":"0.0-3.0-0.144","subject_id":"5d484aa80054390001ab19d5","study_id":"605e2a800ccfa0c8e820d869","session_id":"606202c3bc390ea2d1055f35"},{"rt":1254.515000153333,"stimulus":"img/00949.png","slider_start":4,"response":4,"trial_type":"image-slider-response","trial_index":148,"time_elapsed":395998,"internal_node_id":"0.0-3.0-0.145","subject_id":"5d484aa80054390001ab19d5","study_id":"605e2a800ccfa0c8e820d869","session_id":"606202c3bc390ea2d1055f35"},{"rt":2726.52000002563,"stimulus":"img/00623.png","slider_start":4,"response":3,"trial_type":"image-slider-response","trial_index":149,"time_elapsed":398726,"internal_node_id":"0.0-3.0-0.146","subject_id":"5d484aa80054390001ab19d5","study_id":"605e2a800ccfa0c8e820d869","session_id":"606202c3bc390ea2d1055f35"},{"rt":2942.4850000068545,"stimulus":"img/00507.png","slider_start":4,"response":2,"trial_type":"image-slider-response","trial_index":150,"time_elapsed":401670,"internal_node_id":"0.0-3.0-0.147","subject_id":"5d484aa80054390001ab19d5","study_id":"605e2a800ccfa0c8e820d869","session_id":"606202c3bc390ea2d1055f35"},{"rt":2046.305000083521,"stimulus":"img/00078.png","slider_start":4,"response":3,"trial_type":"image-slider-response","trial_index":151,"time_elapsed":403718,"internal_node_id":"0.0-3.0-0.148","subject_id":"5d484aa80054390001ab19d5","study_id":"605e2a800ccfa0c8e820d869","session_id":"606202c3bc390ea2d1055f35"},{"rt":2238.5899999644607,"stimulus":"img/00759.png","slider_start":4,"response":1,"trial_type":"image-slider-response","trial_index":152,"time_elapsed":405958,"internal_node_id":"0.0-3.0-0.149","subject_id":"5d484aa80054390001ab19d5","study_id":"605e2a800ccfa0c8e820d869","session_id":"606202c3bc390ea2d1055f35"},{"rt":1894.4099999498576,"stimulus":"img/00841.png","slider_start":4,"response":3,"trial_type":"image-slider-response","trial_index":153,"time_elapsed":407854,"internal_node_id":"0.0-3.0-0.150","subject_id":"5d484aa80054390001ab19d5","study_id":"605e2a800ccfa0c8e820d869","session_id":"606202c3bc390ea2d1055f35"},{"rt":1910.6699998956174,"stimulus":"img/00015.png","slider_start":4,"response":2,"trial_type":"image-slider-response","trial_index":154,"time_elapsed":409766,"internal_node_id":"0.0-3.0-0.151","subject_id":"5d484aa80054390001ab19d5","study_id":"605e2a800ccfa0c8e820d869","session_id":"606202c3bc390ea2d1055f35"},{"rt":2974.5150001253933,"stimulus":"img/00563.png","slider_start":4,"response":3,"trial_type":"image-slider-response","trial_index":155,"time_elapsed":412742,"internal_node_id":"0.0-3.0-0.152","subject_id":"5d484aa80054390001ab19d5","study_id":"605e2a800ccfa0c8e820d869","session_id":"606202c3bc390ea2d1055f35"},{"rt":2614.2149998340756,"stimulus":"img/00686.png","slider_start":4,"response":2,"trial_type":"image-slider-response","trial_index":156,"time_elapsed":415358,"internal_node_id":"0.0-3.0-0.153","subject_id":"5d484aa80054390001ab19d5","study_id":"605e2a800ccfa0c8e820d869","session_id":"606202c3bc390ea2d1055f35"},{"rt":3790.3299999888986,"stimulus":"img/00469.png","slider_start":4,"response":3,"trial_type":"image-slider-response","trial_index":157,"time_elapsed":419150,"internal_node_id":"0.0-3.0-0.154","subject_id":"5d484aa80054390001ab19d5","study_id":"605e2a800ccfa0c8e820d869","session_id":"606202c3bc390ea2d1055f35"},{"rt":4398.439999902621,"stimulus":"img/00438.png","slider_start":4,"response":4,"trial_type":"image-slider-response","trial_index":158,"time_elapsed":423550,"internal_node_id":"0.0-3.0-0.155","subject_id":"5d484aa80054390001ab19d5","study_id":"605e2a800ccfa0c8e820d869","session_id":"606202c3bc390ea2d1055f35"},{"rt":1838.1850000005215,"stimulus":"img/00854.png","slider_start":4,"response":4,"trial_type":"image-slider-response","trial_index":159,"time_elapsed":425390,"internal_node_id":"0.0-3.0-0.156","subject_id":"5d484aa80054390001ab19d5","study_id":"605e2a800ccfa0c8e820d869","session_id":"606202c3bc390ea2d1055f35"},{"rt":11862.3399999924,"stimulus":"img/00006.png","slider_start":4,"response":2,"trial_type":"image-slider-response","trial_index":160,"time_elapsed":437254,"internal_node_id":"0.0-3.0-0.157","subject_id":"5d484aa80054390001ab19d5","study_id":"605e2a800ccfa0c8e820d869","session_id":"606202c3bc390ea2d1055f35"},{"rt":1430.275000166148,"stimulus":"img/00688.png","slider_start":4,"response":4,"trial_type":"image-slider-response","trial_index":161,"time_elapsed":438686,"internal_node_id":"0.0-3.0-0.158","subject_id":"5d484aa80054390001ab19d5","study_id":"605e2a800ccfa0c8e820d869","session_id":"606202c3bc390ea2d1055f35"},{"rt":2462.489999830723,"stimulus":"img/00773.png","slider_start":4,"response":5,"trial_type":"image-slider-response","trial_index":162,"time_elapsed":441150,"internal_node_id":"0.0-3.0-0.159","subject_id":"5d484aa80054390001ab19d5","study_id":"605e2a800ccfa0c8e820d869","session_id":"606202c3bc390ea2d1055f35"},{"rt":1822.480000089854,"stimulus":"img/00052.png","slider_start":4,"response":1,"trial_type":"image-slider-response","trial_index":163,"time_elapsed":442974,"internal_node_id":"0.0-3.0-0.160","subject_id":"5d484aa80054390001ab19d5","study_id":"605e2a800ccfa0c8e820d869","session_id":"606202c3bc390ea2d1055f35"},{"rt":1822.5600000005215,"stimulus":"img/00525.png","slider_start":4,"response":1,"trial_type":"image-slider-response","trial_index":164,"time_elapsed":444798,"internal_node_id":"0.0-3.0-0.161","subject_id":"5d484aa80054390001ab19d5","study_id":"605e2a800ccfa0c8e820d869","session_id":"606202c3bc390ea2d1055f35"},{"rt":1718.400000128895,"stimulus":"img/00561.png","slider_start":4,"response":3,"trial_type":"image-slider-response","trial_index":165,"time_elapsed":446518,"internal_node_id":"0.0-3.0-0.162","subject_id":"5d484aa80054390001ab19d5","study_id":"605e2a800ccfa0c8e820d869","session_id":"606202c3bc390ea2d1055f35"},{"rt":2214.434999972582,"stimulus":"img/00594.png","slider_start":4,"response":2,"trial_type":"image-slider-response","trial_index":166,"time_elapsed":448734,"internal_node_id":"0.0-3.0-0.163","subject_id":"5d484aa80054390001ab19d5","study_id":"605e2a800ccfa0c8e820d869","session_id":"606202c3bc390ea2d1055f35"},{"rt":1614.6200001239777,"stimulus":"img/00603.png","slider_start":4,"response":3,"trial_type":"image-slider-response","trial_index":167,"time_elapsed":450350,"internal_node_id":"0.0-3.0-0.164","subject_id":"5d484aa80054390001ab19d5","study_id":"605e2a800ccfa0c8e820d869","session_id":"606202c3bc390ea2d1055f35"},{"rt":1734.4500001054257,"stimulus":"img/00040.png","slider_start":4,"response":1,"trial_type":"image-slider-response","trial_index":168,"time_elapsed":452086,"internal_node_id":"0.0-3.0-0.165","subject_id":"5d484aa80054390001ab19d5","study_id":"605e2a800ccfa0c8e820d869","session_id":"606202c3bc390ea2d1055f35"},{"rt":1902.534999884665,"stimulus":"img/00612.png","slider_start":4,"response":1,"trial_type":"image-slider-response","trial_index":169,"time_elapsed":453990,"internal_node_id":"0.0-3.0-0.166","subject_id":"5d484aa80054390001ab19d5","study_id":"605e2a800ccfa0c8e820d869","session_id":"606202c3bc390ea2d1055f35"},{"rt":1710.5199999641627,"stimulus":"img/00896.png","slider_start":4,"response":2,"trial_type":"image-slider-response","trial_index":170,"time_elapsed":455702,"internal_node_id":"0.0-3.0-0.167","subject_id":"5d484aa80054390001ab19d5","study_id":"605e2a800ccfa0c8e820d869","session_id":"606202c3bc390ea2d1055f35"},{"rt":2646.42500015907,"stimulus":"img/00427.png","slider_start":4,"response":6,"trial_type":"image-slider-response","trial_index":171,"time_elapsed":458350,"internal_node_id":"0.0-3.0-0.168","subject_id":"5d484aa80054390001ab19d5","study_id":"605e2a800ccfa0c8e820d869","session_id":"606202c3bc390ea2d1055f35"},{"rt":1861.290000146255,"stimulus":"img/00903.png","slider_start":4,"response":2,"trial_type":"image-slider-response","trial_index":172,"time_elapsed":460214,"internal_node_id":"0.0-3.0-0.169","subject_id":"5d484aa80054390001ab19d5","study_id":"605e2a800ccfa0c8e820d869","session_id":"606202c3bc390ea2d1055f35"},{"rt":1790.779999922961,"stimulus":"img/00554.png","slider_start":4,"response":3,"trial_type":"image-slider-response","trial_index":173,"time_elapsed":462006,"internal_node_id":"0.0-3.0-0.170","subject_id":"5d484aa80054390001ab19d5","study_id":"605e2a800ccfa0c8e820d869","session_id":"606202c3bc390ea2d1055f35"},{"rt":1854.3450001161546,"stimulus":"img/00048.png","slider_start":4,"response":1,"trial_type":"image-slider-response","trial_index":174,"time_elapsed":463862,"internal_node_id":"0.0-3.0-0.171","subject_id":"5d484aa80054390001ab19d5","study_id":"605e2a800ccfa0c8e820d869","session_id":"606202c3bc390ea2d1055f35"}]