[{"rt":3822.5000000020373,"stimulus":"Welcome to the experiment. Press any key to begin.","response":"k","trial_type":"html-keyboard-response","trial_index":0,"time_elapsed":3826,"internal_node_id":"0.0-0.0","subject_id":"5e824b9a300dd008a442e395","study_id":"605e2a800ccfa0c8e820d869","session_id":"606202e25329506174c07e86"},{"rt":6918.20000000007,"stimulus":"\n        <p>In this experiment, a face will appear on-screen.</p><p> <strong>Rate the face on a 1 - 7 scale based on how attractive he / she is.</strong> </p>\n        </div>\n        <p>Press any key to begin.</p>\n      ","response":" ","trial_type":"html-keyboard-response","trial_index":1,"time_elapsed":10747,"internal_node_id":"0.0-1.0","subject_id":"5e824b9a300dd008a442e395","study_id":"605e2a800ccfa0c8e820d869","session_id":"606202e25329506174c07e86"},{"success":true,"timeout":false,"failed_images":[],"failed_audio":[],"failed_video":[],"trial_type":"preload","trial_index":2,"time_elapsed":79947,"internal_node_id":"0.0-2.0","subject_id":"5e824b9a300dd008a442e395","study_id":"605e2a800ccfa0c8e820d869","session_id":"606202e25329506174c07e86"},{"rt":16164.199999999255,"stimulus":"img/00543.png","slider_start":4,"response":3,"trial_type":"image-slider-response","trial_index":3,"time_elapsed":96154,"internal_node_id":"0.0-3.0-0.0","subject_id":"5e824b9a300dd008a442e395","study_id":"605e2a800ccfa0c8e820d869","session_id":"606202e25329506174c07e86"},{"rt":8507.200000000012,"stimulus":"img/00460.png","slider_start":4,"response":3,"trial_type":"image-slider-response","trial_index":4,"time_elapsed":104665,"internal_node_id":"0.0-3.0-0.1","subject_id":"5e824b9a300dd008a442e395","study_id":"605e2a800ccfa0c8e820d869","session_id":"606202e25329506174c07e86"},{"rt":2922.2000000008848,"stimulus":"img/00479.png","slider_start":4,"response":4,"trial_type":"image-slider-response","trial_index":5,"time_elapsed":107592,"internal_node_id":"0.0-3.0-0.2","subject_id":"5e824b9a300dd008a442e395","study_id":"605e2a800ccfa0c8e820d869","session_id":"606202e25329506174c07e86"},{"rt":3661.2000000022817,"stimulus":"img/00012.png","slider_start":4,"response":3,"trial_type":"image-slider-response","trial_index":6,"time_elapsed":111257,"internal_node_id":"0.0-3.0-0.3","subject_id":"5e824b9a300dd008a442e395","study_id":"605e2a800ccfa0c8e820d869","session_id":"606202e25329506174c07e86"},{"rt":20529.400000006717,"stimulus":"img/00462.png","slider_start":4,"response":2,"trial_type":"image-slider-response","trial_index":7,"time_elapsed":131795,"internal_node_id":"0.0-3.0-0.4","subject_id":"5e824b9a300dd008a442e395","study_id":"605e2a800ccfa0c8e820d869","session_id":"606202e25329506174c07e86"},{"rt":3187.8000000069733,"stimulus":"img/00644.png","slider_start":4,"response":5,"trial_type":"image-slider-response","trial_index":8,"time_elapsed":134985,"internal_node_id":"0.0-3.0-0.5","subject_id":"5e824b9a300dd008a442e395","study_id":"605e2a800ccfa0c8e820d869","session_id":"606202e25329506174c07e86"},{"rt":6347.999999998137,"stimulus":"img/00773.png","slider_start":4,"response":2,"trial_type":"image-slider-response","trial_index":9,"time_elapsed":141336,"internal_node_id":"0.0-3.0-0.6","subject_id":"5e824b9a300dd008a442e395","study_id":"605e2a800ccfa0c8e820d869","session_id":"606202e25329506174c07e86"},{"rt":2438.300000001618,"stimulus":"img/00481.png","slider_start":4,"response":5,"trial_type":"image-slider-response","trial_index":10,"time_elapsed":143778,"internal_node_id":"0.0-3.0-0.7","subject_id":"5e824b9a300dd008a442e395","study_id":"605e2a800ccfa0c8e820d869","session_id":"606202e25329506174c07e86"},{"rt":3529.2000000044936,"stimulus":"img/00018.png","slider_start":4,"response":5,"trial_type":"image-slider-response","trial_index":11,"time_elapsed":147311,"internal_node_id":"0.0-3.0-0.8","subject_id":"5e824b9a300dd008a442e395","study_id":"605e2a800ccfa0c8e820d869","session_id":"606202e25329506174c07e86"},{"rt":2169.5999999938067,"stimulus":"img/00405.png","slider_start":4,"response":4,"trial_type":"image-slider-response","trial_index":12,"time_elapsed":149483,"internal_node_id":"0.0-3.0-0.9","subject_id":"5e824b9a300dd008a442e395","study_id":"605e2a800ccfa0c8e820d869","session_id":"606202e25329506174c07e86"},{"rt":2508.900000000722,"stimulus":"img/00079.png","slider_start":4,"response":3,"trial_type":"image-slider-response","trial_index":13,"time_elapsed":151995,"internal_node_id":"0.0-3.0-0.10","subject_id":"5e824b9a300dd008a442e395","study_id":"605e2a800ccfa0c8e820d869","session_id":"606202e25329506174c07e86"},{"rt":4145.600000003469,"stimulus":"img/00748.png","slider_start":4,"response":2,"trial_type":"image-slider-response","trial_index":14,"time_elapsed":156144,"internal_node_id":"0.0-3.0-0.11","subject_id":"5e824b9a300dd008a442e395","study_id":"605e2a800ccfa0c8e820d869","session_id":"606202e25329506174c07e86"},{"rt":3804.7999999980675,"stimulus":"img/00594.png","slider_start":4,"response":5,"trial_type":"image-slider-response","trial_index":15,"time_elapsed":159952,"internal_node_id":"0.0-3.0-0.12","subject_id":"5e824b9a300dd008a442e395","study_id":"605e2a800ccfa0c8e820d869","session_id":"606202e25329506174c07e86"},{"rt":5699.899999999616,"stimulus":"img/00456.png","slider_start":4,"response":3,"trial_type":"image-slider-response","trial_index":16,"time_elapsed":165655,"internal_node_id":"0.0-3.0-0.13","subject_id":"5e824b9a300dd008a442e395","study_id":"605e2a800ccfa0c8e820d869","session_id":"606202e25329506174c07e86"},{"rt":4281.299999995099,"stimulus":"img/00841.png","slider_start":4,"response":6,"trial_type":"image-slider-response","trial_index":17,"time_elapsed":169943,"internal_node_id":"0.0-3.0-0.14","subject_id":"5e824b9a300dd008a442e395","study_id":"605e2a800ccfa0c8e820d869","session_id":"606202e25329506174c07e86"},{"rt":2335.6999999959953,"stimulus":"img/00854.png","slider_start":4,"response":5,"trial_type":"image-slider-response","trial_index":18,"time_elapsed":172281,"internal_node_id":"0.0-3.0-0.15","subject_id":"5e824b9a300dd008a442e395","study_id":"605e2a800ccfa0c8e820d869","session_id":"606202e25329506174c07e86"},{"rt":2479.5000000012806,"stimulus":"img/00569.png","slider_start":4,"response":1,"trial_type":"image-slider-response","trial_index":19,"time_elapsed":174764,"internal_node_id":"0.0-3.0-0.16","subject_id":"5e824b9a300dd008a442e395","study_id":"605e2a800ccfa0c8e820d869","session_id":"606202e25329506174c07e86"},{"rt":2722.799999995914,"stimulus":"img/00472.png","slider_start":4,"response":1,"trial_type":"image-slider-response","trial_index":20,"time_elapsed":177493,"internal_node_id":"0.0-3.0-0.17","subject_id":"5e824b9a300dd008a442e395","study_id":"605e2a800ccfa0c8e820d869","session_id":"606202e25329506174c07e86"},{"rt":4826.499999995576,"stimulus":"img/00115.png","slider_start":4,"response":2,"trial_type":"image-slider-response","trial_index":21,"time_elapsed":182322,"internal_node_id":"0.0-3.0-0.18","subject_id":"5e824b9a300dd008a442e395","study_id":"605e2a800ccfa0c8e820d869","session_id":"606202e25329506174c07e86"},{"rt":1976.699999999255,"stimulus":"img/00722.png","slider_start":4,"response":4,"trial_type":"image-slider-response","trial_index":22,"time_elapsed":184302,"internal_node_id":"0.0-3.0-0.19","subject_id":"5e824b9a300dd008a442e395","study_id":"605e2a800ccfa0c8e820d869","session_id":"606202e25329506174c07e86"},{"rt":2172.100000003411,"stimulus":"img/00048.png","slider_start":4,"response":3,"trial_type":"image-slider-response","trial_index":23,"time_elapsed":186477,"internal_node_id":"0.0-3.0-0.20","subject_id":"5e824b9a300dd008a442e395","study_id":"605e2a800ccfa0c8e820d869","session_id":"606202e25329506174c07e86"},{"rt":1686.600000000908,"stimulus":"img/00029.png","slider_start":4,"response":3,"trial_type":"image-slider-response","trial_index":24,"time_elapsed":188166,"internal_node_id":"0.0-3.0-0.21","subject_id":"5e824b9a300dd008a442e395","study_id":"605e2a800ccfa0c8e820d869","session_id":"606202e25329506174c07e86"},{"rt":3676.2000000016997,"stimulus":"img/00427.png","slider_start":4,"response":7,"trial_type":"image-slider-response","trial_index":25,"time_elapsed":191845,"internal_node_id":"0.0-3.0-0.22","subject_id":"5e824b9a300dd008a442e395","study_id":"605e2a800ccfa0c8e820d869","session_id":"606202e25329506174c07e86"},{"rt":4599.000000001979,"stimulus":"img/00006.png","slider_start":4,"response":6,"trial_type":"image-slider-response","trial_index":26,"time_elapsed":196448,"internal_node_id":"0.0-3.0-0.23","subject_id":"5e824b9a300dd008a442e395","study_id":"605e2a800ccfa0c8e820d869","session_id":"606202e25329506174c07e86"},{"rt":2861.799999998766,"stimulus":"img/00052.png","slider_start":4,"response":2,"trial_type":"image-slider-response","trial_index":27,"time_elapsed":199314,"internal_node_id":"0.0-3.0-0.24","subject_id":"5e824b9a300dd008a442e395","study_id":"605e2a800ccfa0c8e820d869","session_id":"606202e25329506174c07e86"},{"rt":1976.2999999948079,"stimulus":"img/00438.png","slider_start":4,"response":4,"trial_type":"image-slider-response","trial_index":28,"time_elapsed":201294,"internal_node_id":"0.0-3.0-0.25","subject_id":"5e824b9a300dd008a442e395","study_id":"605e2a800ccfa0c8e820d869","session_id":"606202e25329506174c07e86"},{"rt":3819.7999999974854,"stimulus":"img/00042.png","slider_start":4,"response":5,"trial_type":"image-slider-response","trial_index":29,"time_elapsed":205117,"internal_node_id":"0.0-3.0-0.26","subject_id":"5e824b9a300dd008a442e395","study_id":"605e2a800ccfa0c8e820d869","session_id":"606202e25329506174c07e86"},{"rt":2345.500000003085,"stimulus":"img/00747.png","slider_start":4,"response":6,"trial_type":"image-slider-response","trial_index":30,"time_elapsed":207467,"internal_node_id":"0.0-3.0-0.27","subject_id":"5e824b9a300dd008a442e395","study_id":"605e2a800ccfa0c8e820d869","session_id":"606202e25329506174c07e86"},{"rt":3078.700000005483,"stimulus":"img/00903.png","slider_start":4,"response":3,"trial_type":"image-slider-response","trial_index":31,"time_elapsed":210550,"internal_node_id":"0.0-3.0-0.28","subject_id":"5e824b9a300dd008a442e395","study_id":"605e2a800ccfa0c8e820d869","session_id":"606202e25329506174c07e86"},{"rt":2408.2000000053085,"stimulus":"img/00504.png","slider_start":4,"response":2,"trial_type":"image-slider-response","trial_index":32,"time_elapsed":212962,"internal_node_id":"0.0-3.0-0.29","subject_id":"5e824b9a300dd008a442e395","study_id":"605e2a800ccfa0c8e820d869","session_id":"606202e25329506174c07e86"},{"rt":3748.4000000040396,"stimulus":"img/00742.png","slider_start":4,"response":3,"trial_type":"image-slider-response","trial_index":33,"time_elapsed":216714,"internal_node_id":"0.0-3.0-0.30","subject_id":"5e824b9a300dd008a442e395","study_id":"605e2a800ccfa0c8e820d869","session_id":"606202e25329506174c07e86"},{"rt":2275.500000003376,"stimulus":"img/00793.png","slider_start":4,"response":4,"trial_type":"image-slider-response","trial_index":34,"time_elapsed":218994,"internal_node_id":"0.0-3.0-0.31","subject_id":"5e824b9a300dd008a442e395","study_id":"605e2a800ccfa0c8e820d869","session_id":"606202e25329506174c07e86"},{"rt":2558.499999999185,"stimulus":"img/00902.png","slider_start":4,"response":5,"trial_type":"image-slider-response","trial_index":35,"time_elapsed":221558,"internal_node_id":"0.0-3.0-0.32","subject_id":"5e824b9a300dd008a442e395","study_id":"605e2a800ccfa0c8e820d869","session_id":"606202e25329506174c07e86"},{"rt":4427.499999997963,"stimulus":"img/00496.png","slider_start":4,"response":5,"trial_type":"image-slider-response","trial_index":36,"time_elapsed":225991,"internal_node_id":"0.0-3.0-0.33","subject_id":"5e824b9a300dd008a442e395","study_id":"605e2a800ccfa0c8e820d869","session_id":"606202e25329506174c07e86"},{"rt":2430.999999996857,"stimulus":"img/00693.png","slider_start":4,"response":2,"trial_type":"image-slider-response","trial_index":37,"time_elapsed":228425,"internal_node_id":"0.0-3.0-0.34","subject_id":"5e824b9a300dd008a442e395","study_id":"605e2a800ccfa0c8e820d869","session_id":"606202e25329506174c07e86"},{"rt":3054.199999998673,"stimulus":"img/00973.png","slider_start":4,"response":5,"trial_type":"image-slider-response","trial_index":38,"time_elapsed":231484,"internal_node_id":"0.0-3.0-0.35","subject_id":"5e824b9a300dd008a442e395","study_id":"605e2a800ccfa0c8e820d869","session_id":"606202e25329506174c07e86"},{"rt":3288.0000000004657,"stimulus":"img/00563.png","slider_start":4,"response":2,"trial_type":"image-slider-response","trial_index":39,"time_elapsed":234775,"internal_node_id":"0.0-3.0-0.36","subject_id":"5e824b9a300dd008a442e395","study_id":"605e2a800ccfa0c8e820d869","session_id":"606202e25329506174c07e86"},{"rt":3092.1999999991385,"stimulus":"img/00549.png","slider_start":4,"response":2,"trial_type":"image-slider-response","trial_index":40,"time_elapsed":237872,"internal_node_id":"0.0-3.0-0.37","subject_id":"5e824b9a300dd008a442e395","study_id":"605e2a800ccfa0c8e820d869","session_id":"606202e25329506174c07e86"},{"rt":1879.2000000030384,"stimulus":"img/00587.png","slider_start":4,"response":5,"trial_type":"image-slider-response","trial_index":41,"time_elapsed":239754,"internal_node_id":"0.0-3.0-0.38","subject_id":"5e824b9a300dd008a442e395","study_id":"605e2a800ccfa0c8e820d869","session_id":"606202e25329506174c07e86"},{"rt":2376.8999999956577,"stimulus":"img/00464.png","slider_start":4,"response":1,"trial_type":"image-slider-response","trial_index":42,"time_elapsed":242134,"internal_node_id":"0.0-3.0-0.39","subject_id":"5e824b9a300dd008a442e395","study_id":"605e2a800ccfa0c8e820d869","session_id":"606202e25329506174c07e86"},{"rt":3655.7000000029802,"stimulus":"img/00041.png","slider_start":4,"response":5,"trial_type":"image-slider-response","trial_index":43,"time_elapsed":245794,"internal_node_id":"0.0-3.0-0.40","subject_id":"5e824b9a300dd008a442e395","study_id":"605e2a800ccfa0c8e820d869","session_id":"606202e25329506174c07e86"},{"rt":1577.899999996589,"stimulus":"img/00928.png","slider_start":4,"response":4,"trial_type":"image-slider-response","trial_index":44,"time_elapsed":247376,"internal_node_id":"0.0-3.0-0.41","subject_id":"5e824b9a300dd008a442e395","study_id":"605e2a800ccfa0c8e820d869","session_id":"606202e25329506174c07e86"},{"rt":2513.8000000006286,"stimulus":"img/00618.png","slider_start":4,"response":5,"trial_type":"image-slider-response","trial_index":45,"time_elapsed":249894,"internal_node_id":"0.0-3.0-0.42","subject_id":"5e824b9a300dd008a442e395","study_id":"605e2a800ccfa0c8e820d869","session_id":"606202e25329506174c07e86"},{"rt":2537.1999999988475,"stimulus":"img/00833.png","slider_start":4,"response":3,"trial_type":"image-slider-response","trial_index":46,"time_elapsed":252438,"internal_node_id":"0.0-3.0-0.43","subject_id":"5e824b9a300dd008a442e395","study_id":"605e2a800ccfa0c8e820d869","session_id":"606202e25329506174c07e86"},{"rt":2489.3000000010943,"stimulus":"img/00564.png","slider_start":4,"response":3,"trial_type":"image-slider-response","trial_index":47,"time_elapsed":254931,"internal_node_id":"0.0-3.0-0.44","subject_id":"5e824b9a300dd008a442e395","study_id":"605e2a800ccfa0c8e820d869","session_id":"606202e25329506174c07e86"},{"rt":2743.2999999946333,"stimulus":"img/00489.png","slider_start":4,"response":3,"trial_type":"image-slider-response","trial_index":48,"time_elapsed":257678,"internal_node_id":"0.0-3.0-0.45","subject_id":"5e824b9a300dd008a442e395","study_id":"605e2a800ccfa0c8e820d869","session_id":"606202e25329506174c07e86"},{"rt":6366.300000001502,"stimulus":"img/00415.png","slider_start":4,"response":2,"trial_type":"image-slider-response","trial_index":49,"time_elapsed":264049,"internal_node_id":"0.0-3.0-0.46","subject_id":"5e824b9a300dd008a442e395","study_id":"605e2a800ccfa0c8e820d869","session_id":"606202e25329506174c07e86"},{"rt":1976.0999999998603,"stimulus":"img/00447.png","slider_start":4,"response":4,"trial_type":"image-slider-response","trial_index":50,"time_elapsed":266028,"internal_node_id":"0.0-3.0-0.47","subject_id":"5e824b9a300dd008a442e395","study_id":"605e2a800ccfa0c8e820d869","session_id":"606202e25329506174c07e86"},{"rt":2515.5999999988126,"stimulus":"img/00401.png","slider_start":4,"response":3,"trial_type":"image-slider-response","trial_index":51,"time_elapsed":268549,"internal_node_id":"0.0-3.0-0.48","subject_id":"5e824b9a300dd008a442e395","study_id":"605e2a800ccfa0c8e820d869","session_id":"606202e25329506174c07e86"},{"rt":2025.3999999986263,"stimulus":"img/00989.png","slider_start":4,"response":4,"trial_type":"image-slider-response","trial_index":52,"time_elapsed":270577,"internal_node_id":"0.0-3.0-0.49","subject_id":"5e824b9a300dd008a442e395","study_id":"605e2a800ccfa0c8e820d869","session_id":"606202e25329506174c07e86"},{"rt":867.2999999980675,"stimulus":"img/00708.png","slider_start":4,"response":4,"trial_type":"image-slider-response","trial_index":53,"time_elapsed":271448,"internal_node_id":"0.0-3.0-0.50","subject_id":"5e824b9a300dd008a442e395","study_id":"605e2a800ccfa0c8e820d869","session_id":"606202e25329506174c07e86"},{"rt":3684.0999999985797,"stimulus":"img/00511.png","slider_start":4,"response":3,"trial_type":"image-slider-response","trial_index":54,"time_elapsed":275135,"internal_node_id":"0.0-3.0-0.51","subject_id":"5e824b9a300dd008a442e395","study_id":"605e2a800ccfa0c8e820d869","session_id":"606202e25329506174c07e86"},{"rt":1636.7000000027474,"stimulus":"img/00499.png","slider_start":4,"response":3,"trial_type":"image-slider-response","trial_index":55,"time_elapsed":276776,"internal_node_id":"0.0-3.0-0.52","subject_id":"5e824b9a300dd008a442e395","study_id":"605e2a800ccfa0c8e820d869","session_id":"606202e25329506174c07e86"},{"rt":3171.8000000037136,"stimulus":"img/00469.png","slider_start":4,"response":6,"trial_type":"image-slider-response","trial_index":56,"time_elapsed":279952,"internal_node_id":"0.0-3.0-0.53","subject_id":"5e824b9a300dd008a442e395","study_id":"605e2a800ccfa0c8e820d869","session_id":"606202e25329506174c07e86"},{"rt":3543.499999999767,"stimulus":"img/00037.png","slider_start":4,"response":3,"trial_type":"image-slider-response","trial_index":57,"time_elapsed":283501,"internal_node_id":"0.0-3.0-0.54","subject_id":"5e824b9a300dd008a442e395","study_id":"605e2a800ccfa0c8e820d869","session_id":"606202e25329506174c07e86"},{"rt":2726.699999999255,"stimulus":"img/00503.png","slider_start":4,"response":1,"trial_type":"image-slider-response","trial_index":58,"time_elapsed":286232,"internal_node_id":"0.0-3.0-0.55","subject_id":"5e824b9a300dd008a442e395","study_id":"605e2a800ccfa0c8e820d869","session_id":"606202e25329506174c07e86"},{"rt":2050.4000000000815,"stimulus":"img/00951.png","slider_start":4,"response":2,"trial_type":"image-slider-response","trial_index":59,"time_elapsed":288285,"internal_node_id":"0.0-3.0-0.56","subject_id":"5e824b9a300dd008a442e395","study_id":"605e2a800ccfa0c8e820d869","session_id":"606202e25329506174c07e86"},{"rt":3347.300000001269,"stimulus":"img/00957.png","slider_start":4,"response":1,"trial_type":"image-slider-response","trial_index":60,"time_elapsed":291636,"internal_node_id":"0.0-3.0-0.57","subject_id":"5e824b9a300dd008a442e395","study_id":"605e2a800ccfa0c8e820d869","session_id":"606202e25329506174c07e86"},{"rt":2046.4999999967404,"stimulus":"img/00731.png","slider_start":4,"response":1,"trial_type":"image-slider-response","trial_index":61,"time_elapsed":293687,"internal_node_id":"0.0-3.0-0.58","subject_id":"5e824b9a300dd008a442e395","study_id":"605e2a800ccfa0c8e820d869","session_id":"606202e25329506174c07e86"},{"rt":3367.500000000291,"stimulus":"img/00913.png","slider_start":4,"response":3,"trial_type":"image-slider-response","trial_index":62,"time_elapsed":297057,"internal_node_id":"0.0-3.0-0.59","subject_id":"5e824b9a300dd008a442e395","study_id":"605e2a800ccfa0c8e820d869","session_id":"606202e25329506174c07e86"},{"rt":2765.800000001036,"stimulus":"img/00744.png","slider_start":4,"response":3,"trial_type":"image-slider-response","trial_index":63,"time_elapsed":299830,"internal_node_id":"0.0-3.0-0.60","subject_id":"5e824b9a300dd008a442e395","study_id":"605e2a800ccfa0c8e820d869","session_id":"606202e25329506174c07e86"},{"rt":2751.1000000013155,"stimulus":"img/00542.png","slider_start":4,"response":1,"trial_type":"image-slider-response","trial_index":64,"time_elapsed":302584,"internal_node_id":"0.0-3.0-0.61","subject_id":"5e824b9a300dd008a442e395","study_id":"605e2a800ccfa0c8e820d869","session_id":"606202e25329506174c07e86"},{"rt":3592.400000001362,"stimulus":"img/00926.png","slider_start":4,"response":5,"trial_type":"image-slider-response","trial_index":65,"time_elapsed":306181,"internal_node_id":"0.0-3.0-0.62","subject_id":"5e824b9a300dd008a442e395","study_id":"605e2a800ccfa0c8e820d869","session_id":"606202e25329506174c07e86"},{"rt":1366.600000001199,"stimulus":"img/00545.png","slider_start":4,"response":4,"trial_type":"image-slider-response","trial_index":66,"time_elapsed":307550,"internal_node_id":"0.0-3.0-0.63","subject_id":"5e824b9a300dd008a442e395","study_id":"605e2a800ccfa0c8e820d869","session_id":"606202e25329506174c07e86"},{"rt":2805.899999999383,"stimulus":"img/00055.png","slider_start":4,"response":5,"trial_type":"image-slider-response","trial_index":67,"time_elapsed":310360,"internal_node_id":"0.0-3.0-0.64","subject_id":"5e824b9a300dd008a442e395","study_id":"605e2a800ccfa0c8e820d869","session_id":"606202e25329506174c07e86"},{"rt":2686.099999998987,"stimulus":"img/00797.png","slider_start":4,"response":3,"trial_type":"image-slider-response","trial_index":68,"time_elapsed":313050,"internal_node_id":"0.0-3.0-0.65","subject_id":"5e824b9a300dd008a442e395","study_id":"605e2a800ccfa0c8e820d869","session_id":"606202e25329506174c07e86"},{"rt":2846.299999997427,"stimulus":"img/00478.png","slider_start":4,"response":1,"trial_type":"image-slider-response","trial_index":69,"time_elapsed":315902,"internal_node_id":"0.0-3.0-0.66","subject_id":"5e824b9a300dd008a442e395","study_id":"605e2a800ccfa0c8e820d869","session_id":"606202e25329506174c07e86"},{"rt":2285.8000000051106,"stimulus":"img/00791.png","slider_start":4,"response":1,"trial_type":"image-slider-response","trial_index":70,"time_elapsed":318190,"internal_node_id":"0.0-3.0-0.67","subject_id":"5e824b9a300dd008a442e395","study_id":"605e2a800ccfa0c8e820d869","session_id":"606202e25329506174c07e86"},{"rt":2349.6999999988475,"stimulus":"img/00653.png","slider_start":4,"response":3,"trial_type":"image-slider-response","trial_index":71,"time_elapsed":320545,"internal_node_id":"0.0-3.0-0.68","subject_id":"5e824b9a300dd008a442e395","study_id":"605e2a800ccfa0c8e820d869","session_id":"606202e25329506174c07e86"},{"rt":1912.0999999940977,"stimulus":"img/00690.png","slider_start":4,"response":5,"trial_type":"image-slider-response","trial_index":72,"time_elapsed":322461,"internal_node_id":"0.0-3.0-0.69","subject_id":"5e824b9a300dd008a442e395","study_id":"605e2a800ccfa0c8e820d869","session_id":"606202e25329506174c07e86"},{"rt":2702.899999996589,"stimulus":"img/00040.png","slider_start":4,"response":2,"trial_type":"image-slider-response","trial_index":73,"time_elapsed":325166,"internal_node_id":"0.0-3.0-0.70","subject_id":"5e824b9a300dd008a442e395","study_id":"605e2a800ccfa0c8e820d869","session_id":"606202e25329506174c07e86"},{"rt":2139.6999999997206,"stimulus":"img/00860.png","slider_start":4,"response":2,"trial_type":"image-slider-response","trial_index":74,"time_elapsed":327309,"internal_node_id":"0.0-3.0-0.71","subject_id":"5e824b9a300dd008a442e395","study_id":"605e2a800ccfa0c8e820d869","session_id":"606202e25329506174c07e86"},{"rt":3868.300000001909,"stimulus":"img/00592.png","slider_start":4,"response":4,"trial_type":"image-slider-response","trial_index":75,"time_elapsed":331183,"internal_node_id":"0.0-3.0-0.72","subject_id":"5e824b9a300dd008a442e395","study_id":"605e2a800ccfa0c8e820d869","session_id":"606202e25329506174c07e86"},{"rt":2279.1999999972177,"stimulus":"img/00561.png","slider_start":4,"response":1,"trial_type":"image-slider-response","trial_index":76,"time_elapsed":333465,"internal_node_id":"0.0-3.0-0.73","subject_id":"5e824b9a300dd008a442e395","study_id":"605e2a800ccfa0c8e820d869","session_id":"606202e25329506174c07e86"},{"rt":1787.4999999985448,"stimulus":"img/00760.png","slider_start":4,"response":3,"trial_type":"image-slider-response","trial_index":77,"time_elapsed":335257,"internal_node_id":"0.0-3.0-0.74","subject_id":"5e824b9a300dd008a442e395","study_id":"605e2a800ccfa0c8e820d869","session_id":"606202e25329506174c07e86"},{"rt":2111.300000004121,"stimulus":"img/00093.png","slider_start":4,"response":1,"trial_type":"image-slider-response","trial_index":78,"time_elapsed":337372,"internal_node_id":"0.0-3.0-0.75","subject_id":"5e824b9a300dd008a442e395","study_id":"605e2a800ccfa0c8e820d869","session_id":"606202e25329506174c07e86"},{"rt":2538.5000000023865,"stimulus":"img/00756.png","slider_start":4,"response":5,"trial_type":"image-slider-response","trial_index":79,"time_elapsed":339915,"internal_node_id":"0.0-3.0-0.76","subject_id":"5e824b9a300dd008a442e395","study_id":"605e2a800ccfa0c8e820d869","session_id":"606202e25329506174c07e86"},{"rt":2272.3000000041793,"stimulus":"img/00785.png","slider_start":4,"response":6,"trial_type":"image-slider-response","trial_index":80,"time_elapsed":342192,"internal_node_id":"0.0-3.0-0.77","subject_id":"5e824b9a300dd008a442e395","study_id":"605e2a800ccfa0c8e820d869","session_id":"606202e25329506174c07e86"},{"rt":1973.3999999953085,"stimulus":"img/00113.png","slider_start":4,"response":1,"trial_type":"image-slider-response","trial_index":81,"time_elapsed":344170,"internal_node_id":"0.0-3.0-0.78","subject_id":"5e824b9a300dd008a442e395","study_id":"605e2a800ccfa0c8e820d869","session_id":"606202e25329506174c07e86"},{"rt":1879.3000000005122,"stimulus":"img/00016.png","slider_start":4,"response":1,"trial_type":"image-slider-response","trial_index":82,"time_elapsed":346055,"internal_node_id":"0.0-3.0-0.79","subject_id":"5e824b9a300dd008a442e395","study_id":"605e2a800ccfa0c8e820d869","session_id":"606202e25329506174c07e86"},{"rt":3299.1000000038184,"stimulus":"img/00023.png","slider_start":4,"response":1,"trial_type":"image-slider-response","trial_index":83,"time_elapsed":349359,"internal_node_id":"0.0-3.0-0.80","subject_id":"5e824b9a300dd008a442e395","study_id":"605e2a800ccfa0c8e820d869","session_id":"606202e25329506174c07e86"},{"rt":2091.4000000047963,"stimulus":"img/00522.png","slider_start":4,"response":4,"trial_type":"image-slider-response","trial_index":84,"time_elapsed":351454,"internal_node_id":"0.0-3.0-0.81","subject_id":"5e824b9a300dd008a442e395","study_id":"605e2a800ccfa0c8e820d869","session_id":"606202e25329506174c07e86"},{"rt":1683.7000000014086,"stimulus":"img/00780.png","slider_start":4,"response":3,"trial_type":"image-slider-response","trial_index":85,"time_elapsed":353140,"internal_node_id":"0.0-3.0-0.82","subject_id":"5e824b9a300dd008a442e395","study_id":"605e2a800ccfa0c8e820d869","session_id":"606202e25329506174c07e86"},{"rt":3416.6000000041095,"stimulus":"img/00059.png","slider_start":4,"response":6,"trial_type":"image-slider-response","trial_index":86,"time_elapsed":356560,"internal_node_id":"0.0-3.0-0.83","subject_id":"5e824b9a300dd008a442e395","study_id":"605e2a800ccfa0c8e820d869","session_id":"606202e25329506174c07e86"},{"rt":1955.3000000014435,"stimulus":"img/00507.png","slider_start":4,"response":4,"trial_type":"image-slider-response","trial_index":87,"time_elapsed":358519,"internal_node_id":"0.0-3.0-0.84","subject_id":"5e824b9a300dd008a442e395","study_id":"605e2a800ccfa0c8e820d869","session_id":"606202e25329506174c07e86"},{"rt":1391.4000000004307,"stimulus":"img/00761.png","slider_start":4,"response":4,"trial_type":"image-slider-response","trial_index":88,"time_elapsed":359913,"internal_node_id":"0.0-3.0-0.85","subject_id":"5e824b9a300dd008a442e395","study_id":"605e2a800ccfa0c8e820d869","session_id":"606202e25329506174c07e86"},{"rt":5763.200000001234,"stimulus":"img/00815.png","slider_start":4,"response":3,"trial_type":"image-slider-response","trial_index":89,"time_elapsed":365679,"internal_node_id":"0.0-3.0-0.86","subject_id":"5e824b9a300dd008a442e395","study_id":"605e2a800ccfa0c8e820d869","session_id":"606202e25329506174c07e86"},{"rt":1852.6999999958207,"stimulus":"img/00779.png","slider_start":4,"response":2,"trial_type":"image-slider-response","trial_index":90,"time_elapsed":367535,"internal_node_id":"0.0-3.0-0.87","subject_id":"5e824b9a300dd008a442e395","study_id":"605e2a800ccfa0c8e820d869","session_id":"606202e25329506174c07e86"},{"rt":1808.2999999969616,"stimulus":"img/00570.png","slider_start":4,"response":4,"trial_type":"image-slider-response","trial_index":91,"time_elapsed":369346,"internal_node_id":"0.0-3.0-0.88","subject_id":"5e824b9a300dd008a442e395","study_id":"605e2a800ccfa0c8e820d869","session_id":"606202e25329506174c07e86"},{"rt":2498.5000000015134,"stimulus":"img/00967.png","slider_start":4,"response":4,"trial_type":"image-slider-response","trial_index":92,"time_elapsed":371846,"internal_node_id":"0.0-3.0-0.89","subject_id":"5e824b9a300dd008a442e395","study_id":"605e2a800ccfa0c8e820d869","session_id":"606202e25329506174c07e86"},{"rt":3430.500000002212,"stimulus":"img/00101.png","slider_start":4,"response":1,"trial_type":"image-slider-response","trial_index":93,"time_elapsed":375279,"internal_node_id":"0.0-3.0-0.90","subject_id":"5e824b9a300dd008a442e395","study_id":"605e2a800ccfa0c8e820d869","session_id":"606202e25329506174c07e86"},{"rt":2102.8000000005704,"stimulus":"img/00011.png","slider_start":4,"response":2,"trial_type":"image-slider-response","trial_index":94,"time_elapsed":377387,"internal_node_id":"0.0-3.0-0.91","subject_id":"5e824b9a300dd008a442e395","study_id":"605e2a800ccfa0c8e820d869","session_id":"606202e25329506174c07e86"},{"rt":1656.1999999976251,"stimulus":"img/00554.png","slider_start":4,"response":3,"trial_type":"image-slider-response","trial_index":95,"time_elapsed":379045,"internal_node_id":"0.0-3.0-0.92","subject_id":"5e824b9a300dd008a442e395","study_id":"605e2a800ccfa0c8e820d869","session_id":"606202e25329506174c07e86"},{"rt":1757.2000000000116,"stimulus":"img/00789.png","slider_start":4,"response":1,"trial_type":"image-slider-response","trial_index":96,"time_elapsed":380805,"internal_node_id":"0.0-3.0-0.93","subject_id":"5e824b9a300dd008a442e395","study_id":"605e2a800ccfa0c8e820d869","session_id":"606202e25329506174c07e86"},{"rt":2551.900000005844,"stimulus":"img/00896.png","slider_start":4,"response":2,"trial_type":"image-slider-response","trial_index":97,"time_elapsed":383361,"internal_node_id":"0.0-3.0-0.94","subject_id":"5e824b9a300dd008a442e395","study_id":"605e2a800ccfa0c8e820d869","session_id":"606202e25329506174c07e86"},{"rt":4634.70000000234,"stimulus":"img/00129.png","slider_start":4,"response":5,"trial_type":"image-slider-response","trial_index":98,"time_elapsed":387998,"internal_node_id":"0.0-3.0-0.95","subject_id":"5e824b9a300dd008a442e395","study_id":"605e2a800ccfa0c8e820d869","session_id":"606202e25329506174c07e86"},{"rt":3593.300000000454,"stimulus":"img/00689.png","slider_start":4,"response":5,"trial_type":"image-slider-response","trial_index":99,"time_elapsed":391596,"internal_node_id":"0.0-3.0-0.96","subject_id":"5e824b9a300dd008a442e395","study_id":"605e2a800ccfa0c8e820d869","session_id":"606202e25329506174c07e86"},{"rt":3105.4000000003725,"stimulus":"img/00424.png","slider_start":4,"response":6,"trial_type":"image-slider-response","trial_index":100,"time_elapsed":394708,"internal_node_id":"0.0-3.0-0.97","subject_id":"5e824b9a300dd008a442e395","study_id":"605e2a800ccfa0c8e820d869","session_id":"606202e25329506174c07e86"},{"rt":1519.399999997404,"stimulus":"img/00002.png","slider_start":4,"response":4,"trial_type":"image-slider-response","trial_index":101,"time_elapsed":396231,"internal_node_id":"0.0-3.0-0.98","subject_id":"5e824b9a300dd008a442e395","study_id":"605e2a800ccfa0c8e820d869","session_id":"606202e25329506174c07e86"},{"rt":1185.7999999992899,"stimulus":"img/00688.png","slider_start":4,"response":4,"trial_type":"image-slider-response","trial_index":102,"time_elapsed":397423,"internal_node_id":"0.0-3.0-0.99","subject_id":"5e824b9a300dd008a442e395","study_id":"605e2a800ccfa0c8e820d869","session_id":"606202e25329506174c07e86"},{"rt":2123.4999999942374,"stimulus":"img/00801.png","slider_start":4,"response":2,"trial_type":"image-slider-response","trial_index":103,"time_elapsed":399551,"internal_node_id":"0.0-3.0-0.100","subject_id":"5e824b9a300dd008a442e395","study_id":"605e2a800ccfa0c8e820d869","session_id":"606202e25329506174c07e86"},{"rt":2204.599999997299,"stimulus":"img/00521.png","slider_start":4,"response":1,"trial_type":"image-slider-response","trial_index":104,"time_elapsed":401760,"internal_node_id":"0.0-3.0-0.101","subject_id":"5e824b9a300dd008a442e395","study_id":"605e2a800ccfa0c8e820d869","session_id":"606202e25329506174c07e86"},{"rt":2750.800000001618,"stimulus":"img/00105.png","slider_start":4,"response":4,"trial_type":"image-slider-response","trial_index":105,"time_elapsed":404513,"internal_node_id":"0.0-3.0-0.102","subject_id":"5e824b9a300dd008a442e395","study_id":"605e2a800ccfa0c8e820d869","session_id":"606202e25329506174c07e86"},{"rt":2921.3999999992666,"stimulus":"img/00790.png","slider_start":4,"response":2,"trial_type":"image-slider-response","trial_index":106,"time_elapsed":407442,"internal_node_id":"0.0-3.0-0.103","subject_id":"5e824b9a300dd008a442e395","study_id":"605e2a800ccfa0c8e820d869","session_id":"606202e25329506174c07e86"},{"rt":2470.499999995809,"stimulus":"img/00822.png","slider_start":4,"response":6,"trial_type":"image-slider-response","trial_index":107,"time_elapsed":409915,"internal_node_id":"0.0-3.0-0.104","subject_id":"5e824b9a300dd008a442e395","study_id":"605e2a800ccfa0c8e820d869","session_id":"606202e25329506174c07e86"},{"rt":1344.1000000020722,"stimulus":"img/00525.png","slider_start":4,"response":4,"trial_type":"image-slider-response","trial_index":108,"time_elapsed":411263,"internal_node_id":"0.0-3.0-0.105","subject_id":"5e824b9a300dd008a442e395","study_id":"605e2a800ccfa0c8e820d869","session_id":"606202e25329506174c07e86"},{"rt":1828.300000001036,"stimulus":"img/00454.png","slider_start":4,"response":2,"trial_type":"image-slider-response","trial_index":109,"time_elapsed":413096,"internal_node_id":"0.0-3.0-0.106","subject_id":"5e824b9a300dd008a442e395","study_id":"605e2a800ccfa0c8e820d869","session_id":"606202e25329506174c07e86"},{"rt":1971.7000000018743,"stimulus":"img/00956.png","slider_start":4,"response":1,"trial_type":"image-slider-response","trial_index":110,"time_elapsed":415072,"internal_node_id":"0.0-3.0-0.107","subject_id":"5e824b9a300dd008a442e395","study_id":"605e2a800ccfa0c8e820d869","session_id":"606202e25329506174c07e86"},{"rt":2107.900000002701,"stimulus":"img/00691.png","slider_start":4,"response":3,"trial_type":"image-slider-response","trial_index":111,"time_elapsed":417186,"internal_node_id":"0.0-3.0-0.108","subject_id":"5e824b9a300dd008a442e395","study_id":"605e2a800ccfa0c8e820d869","session_id":"606202e25329506174c07e86"},{"rt":5320.39999999688,"stimulus":"img/00122.png","slider_start":4,"response":7,"trial_type":"image-slider-response","trial_index":112,"time_elapsed":422509,"internal_node_id":"0.0-3.0-0.109","subject_id":"5e824b9a300dd008a442e395","study_id":"605e2a800ccfa0c8e820d869","session_id":"606202e25329506174c07e86"},{"rt":1993.0999999996857,"stimulus":"img/00752.png","slider_start":4,"response":2,"trial_type":"image-slider-response","trial_index":113,"time_elapsed":424506,"internal_node_id":"0.0-3.0-0.110","subject_id":"5e824b9a300dd008a442e395","study_id":"605e2a800ccfa0c8e820d869","session_id":"606202e25329506174c07e86"},{"rt":7448.000000003958,"stimulus":"img/00998.png","slider_start":4,"response":5,"trial_type":"image-slider-response","trial_index":114,"time_elapsed":431958,"internal_node_id":"0.0-3.0-0.111","subject_id":"5e824b9a300dd008a442e395","study_id":"605e2a800ccfa0c8e820d869","session_id":"606202e25329506174c07e86"},{"rt":3120.199999997567,"stimulus":"img/00082.png","slider_start":4,"response":1,"trial_type":"image-slider-response","trial_index":115,"time_elapsed":435083,"internal_node_id":"0.0-3.0-0.112","subject_id":"5e824b9a300dd008a442e395","study_id":"605e2a800ccfa0c8e820d869","session_id":"606202e25329506174c07e86"},{"rt":5342.600000003586,"stimulus":"img/00825.png","slider_start":4,"response":6,"trial_type":"image-slider-response","trial_index":116,"time_elapsed":440428,"internal_node_id":"0.0-3.0-0.113","subject_id":"5e824b9a300dd008a442e395","study_id":"605e2a800ccfa0c8e820d869","session_id":"606202e25329506174c07e86"},{"rt":4796.500000004016,"stimulus":"img/00483.png","slider_start":4,"response":3,"trial_type":"image-slider-response","trial_index":117,"time_elapsed":445231,"internal_node_id":"0.0-3.0-0.114","subject_id":"5e824b9a300dd008a442e395","study_id":"605e2a800ccfa0c8e820d869","session_id":"606202e25329506174c07e86"},{"rt":1879.399999997986,"stimulus":"img/00898.png","slider_start":4,"response":2,"trial_type":"image-slider-response","trial_index":118,"time_elapsed":447115,"internal_node_id":"0.0-3.0-0.115","subject_id":"5e824b9a300dd008a442e395","study_id":"605e2a800ccfa0c8e820d869","session_id":"606202e25329506174c07e86"},{"rt":3752.8000000020256,"stimulus":"img/00437.png","slider_start":4,"response":3,"trial_type":"image-slider-response","trial_index":119,"time_elapsed":450870,"internal_node_id":"0.0-3.0-0.116","subject_id":"5e824b9a300dd008a442e395","study_id":"605e2a800ccfa0c8e820d869","session_id":"606202e25329506174c07e86"},{"rt":2978.900000001886,"stimulus":"img/00768.png","slider_start":4,"response":5,"trial_type":"image-slider-response","trial_index":120,"time_elapsed":453853,"internal_node_id":"0.0-3.0-0.117","subject_id":"5e824b9a300dd008a442e395","study_id":"605e2a800ccfa0c8e820d869","session_id":"606202e25329506174c07e86"},{"rt":2713.800000004994,"stimulus":"img/00045.png","slider_start":4,"response":2,"trial_type":"image-slider-response","trial_index":121,"time_elapsed":456574,"internal_node_id":"0.0-3.0-0.118","subject_id":"5e824b9a300dd008a442e395","study_id":"605e2a800ccfa0c8e820d869","session_id":"606202e25329506174c07e86"},{"rt":2100.9999999951106,"stimulus":"img/00612.png","slider_start":4,"response":2,"trial_type":"image-slider-response","trial_index":122,"time_elapsed":458680,"internal_node_id":"0.0-3.0-0.119","subject_id":"5e824b9a300dd008a442e395","study_id":"605e2a800ccfa0c8e820d869","session_id":"606202e25329506174c07e86"},{"rt":2606.3999999969383,"stimulus":"img/00817.png","slider_start":4,"response":1,"trial_type":"image-slider-response","trial_index":123,"time_elapsed":461290,"internal_node_id":"0.0-3.0-0.120","subject_id":"5e824b9a300dd008a442e395","study_id":"605e2a800ccfa0c8e820d869","session_id":"606202e25329506174c07e86"},{"rt":3532.999999995809,"stimulus":"img/00986.png","slider_start":4,"response":2,"trial_type":"image-slider-response","trial_index":124,"time_elapsed":464826,"internal_node_id":"0.0-3.0-0.121","subject_id":"5e824b9a300dd008a442e395","study_id":"605e2a800ccfa0c8e820d869","session_id":"606202e25329506174c07e86"},{"rt":1816.1000000036438,"stimulus":"img/00811.png","slider_start":4,"response":1,"trial_type":"image-slider-response","trial_index":125,"time_elapsed":466644,"internal_node_id":"0.0-3.0-0.122","subject_id":"5e824b9a300dd008a442e395","study_id":"605e2a800ccfa0c8e820d869","session_id":"606202e25329506174c07e86"},{"rt":4425.799999997253,"stimulus":"img/00418.png","slider_start":4,"response":6,"trial_type":"image-slider-response","trial_index":126,"time_elapsed":471074,"internal_node_id":"0.0-3.0-0.123","subject_id":"5e824b9a300dd008a442e395","study_id":"605e2a800ccfa0c8e820d869","session_id":"606202e25329506174c07e86"},{"rt":5336.40000000014,"stimulus":"img/00077.png","slider_start":4,"response":6,"trial_type":"image-slider-response","trial_index":127,"time_elapsed":476415,"internal_node_id":"0.0-3.0-0.124","subject_id":"5e824b9a300dd008a442e395","study_id":"605e2a800ccfa0c8e820d869","session_id":"606202e25329506174c07e86"},{"rt":3190.199999997276,"stimulus":"img/00432.png","slider_start":4,"response":6,"trial_type":"image-slider-response","trial_index":128,"time_elapsed":479609,"internal_node_id":"0.0-3.0-0.125","subject_id":"5e824b9a300dd008a442e395","study_id":"605e2a800ccfa0c8e820d869","session_id":"606202e25329506174c07e86"},{"rt":4874.7999999977765,"stimulus":"img/00559.png","slider_start":4,"response":1,"trial_type":"image-slider-response","trial_index":129,"time_elapsed":484489,"internal_node_id":"0.0-3.0-0.126","subject_id":"5e824b9a300dd008a442e395","study_id":"605e2a800ccfa0c8e820d869","session_id":"606202e25329506174c07e86"},{"rt":4410.600000002887,"stimulus":"img/00810.png","slider_start":4,"response":1,"trial_type":"image-slider-response","trial_index":130,"time_elapsed":488902,"internal_node_id":"0.0-3.0-0.127","subject_id":"5e824b9a300dd008a442e395","study_id":"605e2a800ccfa0c8e820d869","session_id":"606202e25329506174c07e86"},{"rt":3314.20000000071,"stimulus":"img/00755.png","slider_start":4,"response":2,"trial_type":"image-slider-response","trial_index":131,"time_elapsed":492220,"internal_node_id":"0.0-3.0-0.128","subject_id":"5e824b9a300dd008a442e395","study_id":"605e2a800ccfa0c8e820d869","session_id":"606202e25329506174c07e86"},{"rt":2269.6999999971013,"stimulus":"img/00404.png","slider_start":4,"response":1,"trial_type":"image-slider-response","trial_index":132,"time_elapsed":494495,"internal_node_id":"0.0-3.0-0.129","subject_id":"5e824b9a300dd008a442e395","study_id":"605e2a800ccfa0c8e820d869","session_id":"606202e25329506174c07e86"},{"rt":3244.5999999981723,"stimulus":"img/00581.png","slider_start":4,"response":1,"trial_type":"image-slider-response","trial_index":133,"time_elapsed":497742,"internal_node_id":"0.0-3.0-0.130","subject_id":"5e824b9a300dd008a442e395","study_id":"605e2a800ccfa0c8e820d869","session_id":"606202e25329506174c07e86"},{"rt":4935.600000004342,"stimulus":"img/00982.png","slider_start":4,"response":1,"trial_type":"image-slider-response","trial_index":134,"time_elapsed":502682,"internal_node_id":"0.0-3.0-0.131","subject_id":"5e824b9a300dd008a442e395","study_id":"605e2a800ccfa0c8e820d869","session_id":"606202e25329506174c07e86"},{"rt":5460.500000001048,"stimulus":"img/00842.png","slider_start":4,"response":6,"trial_type":"image-slider-response","trial_index":135,"time_elapsed":508146,"internal_node_id":"0.0-3.0-0.132","subject_id":"5e824b9a300dd008a442e395","study_id":"605e2a800ccfa0c8e820d869","session_id":"606202e25329506174c07e86"},{"rt":2210.800000000745,"stimulus":"img/00600.png","slider_start":4,"response":1,"trial_type":"image-slider-response","trial_index":136,"time_elapsed":510360,"internal_node_id":"0.0-3.0-0.133","subject_id":"5e824b9a300dd008a442e395","study_id":"605e2a800ccfa0c8e820d869","session_id":"606202e25329506174c07e86"},{"rt":3655.2000000010594,"stimulus":"img/00508.png","slider_start":4,"response":5,"trial_type":"image-slider-response","trial_index":137,"time_elapsed":514019,"internal_node_id":"0.0-3.0-0.134","subject_id":"5e824b9a300dd008a442e395","study_id":"605e2a800ccfa0c8e820d869","session_id":"606202e25329506174c07e86"},{"rt":3935.1000000024214,"stimulus":"img/00809.png","slider_start":4,"response":1,"trial_type":"image-slider-response","trial_index":138,"time_elapsed":517957,"internal_node_id":"0.0-3.0-0.135","subject_id":"5e824b9a300dd008a442e395","study_id":"605e2a800ccfa0c8e820d869","session_id":"606202e25329506174c07e86"},{"rt":1769.800000001851,"stimulus":"img/00439.png","slider_start":4,"response":1,"trial_type":"image-slider-response","trial_index":139,"time_elapsed":519731,"internal_node_id":"0.0-3.0-0.136","subject_id":"5e824b9a300dd008a442e395","study_id":"605e2a800ccfa0c8e820d869","session_id":"606202e25329506174c07e86"},{"rt":2514.4000000000233,"stimulus":"img/00718.png","slider_start":4,"response":1,"trial_type":"image-slider-response","trial_index":140,"time_elapsed":522249,"internal_node_id":"0.0-3.0-0.137","subject_id":"5e824b9a300dd008a442e395","study_id":"605e2a800ccfa0c8e820d869","session_id":"606202e25329506174c07e86"},{"rt":4613.600000004168,"stimulus":"img/00848.png","slider_start":4,"response":1,"trial_type":"image-slider-response","trial_index":141,"time_elapsed":526867,"internal_node_id":"0.0-3.0-0.138","subject_id":"5e824b9a300dd008a442e395","study_id":"605e2a800ccfa0c8e820d869","session_id":"606202e25329506174c07e86"},{"rt":4613.700000001583,"stimulus":"img/00466.png","slider_start":4,"response":1,"trial_type":"image-slider-response","trial_index":142,"time_elapsed":531487,"internal_node_id":"0.0-3.0-0.139","subject_id":"5e824b9a300dd008a442e395","study_id":"605e2a800ccfa0c8e820d869","session_id":"606202e25329506174c07e86"},{"rt":16843.299999993294,"stimulus":"img/00078.png","slider_start":4,"response":1,"trial_type":"image-slider-response","trial_index":143,"time_elapsed":548334,"internal_node_id":"0.0-3.0-0.140","subject_id":"5e824b9a300dd008a442e395","study_id":"605e2a800ccfa0c8e820d869","session_id":"606202e25329506174c07e86"},{"rt":3642.599999999278,"stimulus":"img/00114.png","slider_start":4,"response":1,"trial_type":"image-slider-response","trial_index":144,"time_elapsed":551981,"internal_node_id":"0.0-3.0-0.141","subject_id":"5e824b9a300dd008a442e395","study_id":"605e2a800ccfa0c8e820d869","session_id":"606202e25329506174c07e86"},{"rt":3257.1999999999534,"stimulus":"img/00850.png","slider_start":4,"response":1,"trial_type":"image-slider-response","trial_index":145,"time_elapsed":555240,"internal_node_id":"0.0-3.0-0.142","subject_id":"5e824b9a300dd008a442e395","study_id":"605e2a800ccfa0c8e820d869","session_id":"606202e25329506174c07e86"},{"rt":7865.200000000186,"stimulus":"img/00130.png","slider_start":4,"response":2,"trial_type":"image-slider-response","trial_index":146,"time_elapsed":563111,"internal_node_id":"0.0-3.0-0.143","subject_id":"5e824b9a300dd008a442e395","study_id":"605e2a800ccfa0c8e820d869","session_id":"606202e25329506174c07e86"},{"rt":21890.299999999115,"stimulus":"img/00759.png","slider_start":4,"response":2,"trial_type":"image-slider-response","trial_index":147,"time_elapsed":585005,"internal_node_id":"0.0-3.0-0.144","subject_id":"5e824b9a300dd008a442e395","study_id":"605e2a800ccfa0c8e820d869","session_id":"606202e25329506174c07e86"},{"rt":2232.400000000838,"stimulus":"img/00440.png","slider_start":4,"response":1,"trial_type":"image-slider-response","trial_index":148,"time_elapsed":587241,"internal_node_id":"0.0-3.0-0.145","subject_id":"5e824b9a300dd008a442e395","study_id":"605e2a800ccfa0c8e820d869","session_id":"606202e25329506174c07e86"},{"rt":7834.699999999488,"stimulus":"img/00603.png","slider_start":4,"response":1,"trial_type":"image-slider-response","trial_index":149,"time_elapsed":595079,"internal_node_id":"0.0-3.0-0.146","subject_id":"5e824b9a300dd008a442e395","study_id":"605e2a800ccfa0c8e820d869","session_id":"606202e25329506174c07e86"},{"rt":2255.900000003865,"stimulus":"img/00879.png","slider_start":4,"response":6,"trial_type":"image-slider-response","trial_index":150,"time_elapsed":597339,"internal_node_id":"0.0-3.0-0.147","subject_id":"5e824b9a300dd008a442e395","study_id":"605e2a800ccfa0c8e820d869","session_id":"606202e25329506174c07e86"},{"rt":1938.2000000041444,"stimulus":"img/00686.png","slider_start":4,"response":3,"trial_type":"image-slider-response","trial_index":151,"time_elapsed":599280,"internal_node_id":"0.0-3.0-0.148","subject_id":"5e824b9a300dd008a442e395","study_id":"605e2a800ccfa0c8e820d869","session_id":"606202e25329506174c07e86"},{"rt":3771.600000000093,"stimulus":"img/00100.png","slider_start":4,"response":1,"trial_type":"image-slider-response","trial_index":152,"time_elapsed":603055,"internal_node_id":"0.0-3.0-0.149","subject_id":"5e824b9a300dd008a442e395","study_id":"605e2a800ccfa0c8e820d869","session_id":"606202e25329506174c07e86"},{"rt":6395.9000000031665,"stimulus":"img/00995.png","slider_start":4,"response":4,"trial_type":"image-slider-response","trial_index":153,"time_elapsed":609455,"internal_node_id":"0.0-3.0-0.150","subject_id":"5e824b9a300dd008a442e395","study_id":"605e2a800ccfa0c8e820d869","session_id":"606202e25329506174c07e86"},{"rt":5197.599999999511,"stimulus":"img/00764.png","slider_start":4,"response":1,"trial_type":"image-slider-response","trial_index":154,"time_elapsed":614656,"internal_node_id":"0.0-3.0-0.151","subject_id":"5e824b9a300dd008a442e395","study_id":"605e2a800ccfa0c8e820d869","session_id":"606202e25329506174c07e86"},{"rt":2994.7000000029802,"stimulus":"img/00127.png","slider_start":4,"response":1,"trial_type":"image-slider-response","trial_index":155,"time_elapsed":617656,"internal_node_id":"0.0-3.0-0.152","subject_id":"5e824b9a300dd008a442e395","study_id":"605e2a800ccfa0c8e820d869","session_id":"606202e25329506174c07e86"},{"rt":5008.999999998254,"stimulus":"img/00988.png","slider_start":4,"response":1,"trial_type":"image-slider-response","trial_index":156,"time_elapsed":622671,"internal_node_id":"0.0-3.0-0.153","subject_id":"5e824b9a300dd008a442e395","study_id":"605e2a800ccfa0c8e820d869","session_id":"606202e25329506174c07e86"},{"rt":6207.1999999971595,"stimulus":"img/00878.png","slider_start":4,"response":1,"trial_type":"image-slider-response","trial_index":157,"time_elapsed":628883,"internal_node_id":"0.0-3.0-0.154","subject_id":"5e824b9a300dd008a442e395","study_id":"605e2a800ccfa0c8e820d869","session_id":"606202e25329506174c07e86"},{"rt":6692.9999999993015,"stimulus":"img/00631.png","slider_start":4,"response":2,"trial_type":"image-slider-response","trial_index":158,"time_elapsed":635581,"internal_node_id":"0.0-3.0-0.155","subject_id":"5e824b9a300dd008a442e395","study_id":"605e2a800ccfa0c8e820d869","session_id":"606202e25329506174c07e86"},{"rt":2266.299999995623,"stimulus":"img/00576.png","slider_start":4,"response":6,"trial_type":"image-slider-response","trial_index":159,"time_elapsed":637851,"internal_node_id":"0.0-3.0-0.156","subject_id":"5e824b9a300dd008a442e395","study_id":"605e2a800ccfa0c8e820d869","session_id":"606202e25329506174c07e86"},{"rt":3686.500000003376,"stimulus":"img/00126.png","slider_start":4,"response":1,"trial_type":"image-slider-response","trial_index":160,"time_elapsed":641540,"internal_node_id":"0.0-3.0-0.157","subject_id":"5e824b9a300dd008a442e395","study_id":"605e2a800ccfa0c8e820d869","session_id":"606202e25329506174c07e86"},{"rt":6852.800000000512,"stimulus":"img/00623.png","slider_start":4,"response":5,"trial_type":"image-slider-response","trial_index":161,"time_elapsed":648396,"internal_node_id":"0.0-3.0-0.158","subject_id":"5e824b9a300dd008a442e395","study_id":"605e2a800ccfa0c8e820d869","session_id":"606202e25329506174c07e86"},{"rt":3194.900000002235,"stimulus":"img/00853.png","slider_start":4,"response":3,"trial_type":"image-slider-response","trial_index":162,"time_elapsed":651597,"internal_node_id":"0.0-3.0-0.159","subject_id":"5e824b9a300dd008a442e395","study_id":"605e2a800ccfa0c8e820d869","session_id":"606202e25329506174c07e86"},{"rt":5143.799999997951,"stimulus":"img/40.png","slider_start":4,"response":1,"trial_type":"image-slider-response","trial_index":163,"time_elapsed":656745,"internal_node_id":"0.0-3.0-0.160","subject_id":"5e824b9a300dd008a442e395","study_id":"605e2a800ccfa0c8e820d869","session_id":"606202e25329506174c07e86"},{"rt":4317.9000000017695,"stimulus":"img/00949.png","slider_start":4,"response":3,"trial_type":"image-slider-response","trial_index":164,"time_elapsed":661069,"internal_node_id":"0.0-3.0-0.161","subject_id":"5e824b9a300dd008a442e395","study_id":"605e2a800ccfa0c8e820d869","session_id":"606202e25329506174c07e86"},{"rt":6105.300000002957,"stimulus":"img/00064.png","slider_start":4,"response":5,"trial_type":"image-slider-response","trial_index":165,"time_elapsed":667178,"internal_node_id":"0.0-3.0-0.162","subject_id":"5e824b9a300dd008a442e395","study_id":"605e2a800ccfa0c8e820d869","session_id":"606202e25329506174c07e86"},{"rt":10495.499999997322,"stimulus":"img/00015.png","slider_start":4,"response":2,"trial_type":"image-slider-response","trial_index":166,"time_elapsed":677678,"internal_node_id":"0.0-3.0-0.163","subject_id":"5e824b9a300dd008a442e395","study_id":"605e2a800ccfa0c8e820d869","session_id":"606202e25329506174c07e86"},{"rt":3656.9000000017695,"stimulus":"img/00930.png","slider_start":4,"response":2,"trial_type":"image-slider-response","trial_index":167,"time_elapsed":681339,"internal_node_id":"0.0-3.0-0.164","subject_id":"5e824b9a300dd008a442e395","study_id":"605e2a800ccfa0c8e820d869","session_id":"606202e25329506174c07e86"},{"rt":3642.50000000163,"stimulus":"img/00413.png","slider_start":4,"response":4,"trial_type":"image-slider-response","trial_index":168,"time_elapsed":684985,"internal_node_id":"0.0-3.0-0.165","subject_id":"5e824b9a300dd008a442e395","study_id":"605e2a800ccfa0c8e820d869","session_id":"606202e25329506174c07e86"},{"rt":5731.200000002049,"stimulus":"img/00629.png","slider_start":4,"response":3,"trial_type":"image-slider-response","trial_index":169,"time_elapsed":690721,"internal_node_id":"0.0-3.0-0.166","subject_id":"5e824b9a300dd008a442e395","study_id":"605e2a800ccfa0c8e820d869","session_id":"606202e25329506174c07e86"},{"rt":7089.399999997113,"stimulus":"img/00991.png","slider_start":4,"response":2,"trial_type":"image-slider-response","trial_index":170,"time_elapsed":697817,"internal_node_id":"0.0-3.0-0.167","subject_id":"5e824b9a300dd008a442e395","study_id":"605e2a800ccfa0c8e820d869","session_id":"606202e25329506174c07e86"},{"rt":2281.199999997625,"stimulus":"img/00867.png","slider_start":4,"response":4,"trial_type":"image-slider-response","trial_index":171,"time_elapsed":700102,"internal_node_id":"0.0-3.0-0.168","subject_id":"5e824b9a300dd008a442e395","study_id":"605e2a800ccfa0c8e820d869","session_id":"606202e25329506174c07e86"},{"rt":4861.799999998766,"stimulus":"img/00799.png","slider_start":4,"response":1,"trial_type":"image-slider-response","trial_index":172,"time_elapsed":704967,"internal_node_id":"0.0-3.0-0.169","subject_id":"5e824b9a300dd008a442e395","study_id":"605e2a800ccfa0c8e820d869","session_id":"606202e25329506174c07e86"},{"rt":4823.700000000885,"stimulus":"img/00406.png","slider_start":4,"response":1,"trial_type":"image-slider-response","trial_index":173,"time_elapsed":709797,"internal_node_id":"0.0-3.0-0.170","subject_id":"5e824b9a300dd008a442e395","study_id":"605e2a800ccfa0c8e820d869","session_id":"606202e25329506174c07e86"},{"rt":6662.90000000305,"stimulus":"img/00428.png","slider_start":4,"response":2,"trial_type":"image-slider-response","trial_index":174,"time_elapsed":716463,"internal_node_id":"0.0-3.0-0.171","subject_id":"5e824b9a300dd008a442e395","study_id":"605e2a800ccfa0c8e820d869","session_id":"606202e25329506174c07e86"}]