[{"rt":1657.3150000003807,"stimulus":"Welcome to the experiment. Press any key to begin.","response":" ","trial_type":"html-keyboard-response","trial_index":0,"time_elapsed":1660,"internal_node_id":"0.0-0.0","subject_id":"5c35655f87b777000170d85a","study_id":"605e2a800ccfa0c8e820d869","session_id":"6062209988c5b5abd892a93e"},{"rt":10397.75500000178,"stimulus":"\n        <p>In this experiment, a face will appear on-screen.</p><p> <strong>Rate the face on a 1 - 7 scale based on how attractive he / she is.</strong> </p>\n        </div>\n        <p>Press any key to begin.</p>\n      ","response":" ","trial_type":"html-keyboard-response","trial_index":1,"time_elapsed":12059,"internal_node_id":"0.0-1.0","subject_id":"5c35655f87b777000170d85a","study_id":"605e2a800ccfa0c8e820d869","session_id":"6062209988c5b5abd892a93e"},{"success":true,"timeout":false,"failed_images":[],"failed_audio":[],"failed_video":[],"trial_type":"preload","trial_index":2,"time_elapsed":56559,"internal_node_id":"0.0-2.0","subject_id":"5c35655f87b777000170d85a","study_id":"605e2a800ccfa0c8e820d869","session_id":"6062209988c5b5abd892a93e"},{"rt":14150.494999998045,"stimulus":"img/00797.png","slider_start":4,"response":3,"trial_type":"image-slider-response","trial_index":3,"time_elapsed":70743,"internal_node_id":"0.0-3.0-0.0","subject_id":"5c35655f87b777000170d85a","study_id":"605e2a800ccfa0c8e820d869","session_id":"6062209988c5b5abd892a93e"},{"rt":2903.839999999036,"stimulus":"img/00483.png","slider_start":4,"response":4,"trial_type":"image-slider-response","trial_index":4,"time_elapsed":73651,"internal_node_id":"0.0-3.0-0.1","subject_id":"5c35655f87b777000170d85a","study_id":"605e2a800ccfa0c8e820d869","session_id":"6062209988c5b5abd892a93e"},{"rt":2927.4399999994785,"stimulus":"img/00780.png","slider_start":4,"response":3,"trial_type":"image-slider-response","trial_index":5,"time_elapsed":76581,"internal_node_id":"0.0-3.0-0.2","subject_id":"5c35655f87b777000170d85a","study_id":"605e2a800ccfa0c8e820d869","session_id":"6062209988c5b5abd892a93e"},{"rt":3394.67500000319,"stimulus":"img/00499.png","slider_start":4,"response":2,"trial_type":"image-slider-response","trial_index":6,"time_elapsed":79979,"internal_node_id":"0.0-3.0-0.3","subject_id":"5c35655f87b777000170d85a","study_id":"605e2a800ccfa0c8e820d869","session_id":"6062209988c5b5abd892a93e"},{"rt":2425.374999998894,"stimulus":"img/00521.png","slider_start":4,"response":2,"trial_type":"image-slider-response","trial_index":7,"time_elapsed":82408,"internal_node_id":"0.0-3.0-0.4","subject_id":"5c35655f87b777000170d85a","study_id":"605e2a800ccfa0c8e820d869","session_id":"6062209988c5b5abd892a93e"},{"rt":3746.8150000022433,"stimulus":"img/00479.png","slider_start":4,"response":4,"trial_type":"image-slider-response","trial_index":8,"time_elapsed":86157,"internal_node_id":"0.0-3.0-0.5","subject_id":"5c35655f87b777000170d85a","study_id":"605e2a800ccfa0c8e820d869","session_id":"6062209988c5b5abd892a93e"},{"rt":2559.125000003405,"stimulus":"img/00406.png","slider_start":4,"response":2,"trial_type":"image-slider-response","trial_index":9,"time_elapsed":88719,"internal_node_id":"0.0-3.0-0.6","subject_id":"5c35655f87b777000170d85a","study_id":"605e2a800ccfa0c8e820d869","session_id":"6062209988c5b5abd892a93e"},{"rt":2694.1049999986717,"stimulus":"img/00016.png","slider_start":4,"response":2,"trial_type":"image-slider-response","trial_index":10,"time_elapsed":91416,"internal_node_id":"0.0-3.0-0.7","subject_id":"5c35655f87b777000170d85a","study_id":"605e2a800ccfa0c8e820d869","session_id":"6062209988c5b5abd892a93e"},{"rt":2941.5850000004866,"stimulus":"img/00404.png","slider_start":4,"response":2,"trial_type":"image-slider-response","trial_index":11,"time_elapsed":94361,"internal_node_id":"0.0-3.0-0.8","subject_id":"5c35655f87b777000170d85a","study_id":"605e2a800ccfa0c8e820d869","session_id":"6062209988c5b5abd892a93e"},{"rt":2631.099999998696,"stimulus":"img/00957.png","slider_start":4,"response":3,"trial_type":"image-slider-response","trial_index":12,"time_elapsed":96994,"internal_node_id":"0.0-3.0-0.9","subject_id":"5c35655f87b777000170d85a","study_id":"605e2a800ccfa0c8e820d869","session_id":"6062209988c5b5abd892a93e"},{"rt":4086.475000000064,"stimulus":"img/00037.png","slider_start":4,"response":5,"trial_type":"image-slider-response","trial_index":13,"time_elapsed":101084,"internal_node_id":"0.0-3.0-0.10","subject_id":"5c35655f87b777000170d85a","study_id":"605e2a800ccfa0c8e820d869","session_id":"6062209988c5b5abd892a93e"},{"rt":4402.55999999863,"stimulus":"img/00791.png","slider_start":4,"response":3,"trial_type":"image-slider-response","trial_index":14,"time_elapsed":105490,"internal_node_id":"0.0-3.0-0.11","subject_id":"5c35655f87b777000170d85a","study_id":"605e2a800ccfa0c8e820d869","session_id":"6062209988c5b5abd892a93e"},{"rt":4026.4749999987544,"stimulus":"img/00825.png","slider_start":4,"response":5,"trial_type":"image-slider-response","trial_index":15,"time_elapsed":109520,"internal_node_id":"0.0-3.0-0.12","subject_id":"5c35655f87b777000170d85a","study_id":"605e2a800ccfa0c8e820d869","session_id":"6062209988c5b5abd892a93e"},{"rt":2697.249999997439,"stimulus":"img/00600.png","slider_start":4,"response":3,"trial_type":"image-slider-response","trial_index":16,"time_elapsed":112221,"internal_node_id":"0.0-3.0-0.13","subject_id":"5c35655f87b777000170d85a","study_id":"605e2a800ccfa0c8e820d869","session_id":"6062209988c5b5abd892a93e"},{"rt":3635.164999999688,"stimulus":"img/00489.png","slider_start":4,"response":4,"trial_type":"image-slider-response","trial_index":17,"time_elapsed":115859,"internal_node_id":"0.0-3.0-0.14","subject_id":"5c35655f87b777000170d85a","study_id":"605e2a800ccfa0c8e820d869","session_id":"6062209988c5b5abd892a93e"},{"rt":2833.534999997937,"stimulus":"img/00764.png","slider_start":4,"response":3,"trial_type":"image-slider-response","trial_index":18,"time_elapsed":118696,"internal_node_id":"0.0-3.0-0.15","subject_id":"5c35655f87b777000170d85a","study_id":"605e2a800ccfa0c8e820d869","session_id":"6062209988c5b5abd892a93e"},{"rt":2855.10499999873,"stimulus":"img/00570.png","slider_start":4,"response":4,"trial_type":"image-slider-response","trial_index":19,"time_elapsed":121554,"internal_node_id":"0.0-3.0-0.16","subject_id":"5c35655f87b777000170d85a","study_id":"605e2a800ccfa0c8e820d869","session_id":"6062209988c5b5abd892a93e"},{"rt":3349.5400000028894,"stimulus":"img/00755.png","slider_start":4,"response":4,"trial_type":"image-slider-response","trial_index":20,"time_elapsed":124907,"internal_node_id":"0.0-3.0-0.17","subject_id":"5c35655f87b777000170d85a","study_id":"605e2a800ccfa0c8e820d869","session_id":"6062209988c5b5abd892a93e"},{"rt":3342.3250000014377,"stimulus":"img/00504.png","slider_start":4,"response":2,"trial_type":"image-slider-response","trial_index":21,"time_elapsed":128253,"internal_node_id":"0.0-3.0-0.18","subject_id":"5c35655f87b777000170d85a","study_id":"605e2a800ccfa0c8e820d869","session_id":"6062209988c5b5abd892a93e"},{"rt":2934.1499999973166,"stimulus":"img/00928.png","slider_start":4,"response":5,"trial_type":"image-slider-response","trial_index":22,"time_elapsed":131190,"internal_node_id":"0.0-3.0-0.19","subject_id":"5c35655f87b777000170d85a","study_id":"605e2a800ccfa0c8e820d869","session_id":"6062209988c5b5abd892a93e"},{"rt":2109.3949999994948,"stimulus":"img/00801.png","slider_start":4,"response":3,"trial_type":"image-slider-response","trial_index":23,"time_elapsed":133303,"internal_node_id":"0.0-3.0-0.20","subject_id":"5c35655f87b777000170d85a","study_id":"605e2a800ccfa0c8e820d869","session_id":"6062209988c5b5abd892a93e"},{"rt":2727.179999998043,"stimulus":"img/00115.png","slider_start":4,"response":2,"trial_type":"image-slider-response","trial_index":24,"time_elapsed":136033,"internal_node_id":"0.0-3.0-0.21","subject_id":"5c35655f87b777000170d85a","study_id":"605e2a800ccfa0c8e820d869","session_id":"6062209988c5b5abd892a93e"},{"rt":4443.119999999908,"stimulus":"img/00511.png","slider_start":4,"response":2,"trial_type":"image-slider-response","trial_index":25,"time_elapsed":140479,"internal_node_id":"0.0-3.0-0.22","subject_id":"5c35655f87b777000170d85a","study_id":"605e2a800ccfa0c8e820d869","session_id":"6062209988c5b5abd892a93e"},{"rt":5026.345000002038,"stimulus":"img/00078.png","slider_start":4,"response":2,"trial_type":"image-slider-response","trial_index":26,"time_elapsed":145509,"internal_node_id":"0.0-3.0-0.23","subject_id":"5c35655f87b777000170d85a","study_id":"605e2a800ccfa0c8e820d869","session_id":"6062209988c5b5abd892a93e"},{"rt":2113.4750000019267,"stimulus":"img/00860.png","slider_start":4,"response":2,"trial_type":"image-slider-response","trial_index":27,"time_elapsed":147626,"internal_node_id":"0.0-3.0-0.24","subject_id":"5c35655f87b777000170d85a","study_id":"605e2a800ccfa0c8e820d869","session_id":"6062209988c5b5abd892a93e"},{"rt":2623.2450000024983,"stimulus":"img/00011.png","slider_start":4,"response":4,"trial_type":"image-slider-response","trial_index":28,"time_elapsed":150252,"internal_node_id":"0.0-3.0-0.25","subject_id":"5c35655f87b777000170d85a","study_id":"605e2a800ccfa0c8e820d869","session_id":"6062209988c5b5abd892a93e"},{"rt":2830.229999999574,"stimulus":"img/00594.png","slider_start":4,"response":5,"trial_type":"image-slider-response","trial_index":29,"time_elapsed":153085,"internal_node_id":"0.0-3.0-0.26","subject_id":"5c35655f87b777000170d85a","study_id":"605e2a800ccfa0c8e820d869","session_id":"6062209988c5b5abd892a93e"},{"rt":3498.00999999934,"stimulus":"img/00093.png","slider_start":4,"response":4,"trial_type":"image-slider-response","trial_index":30,"time_elapsed":156587,"internal_node_id":"0.0-3.0-0.27","subject_id":"5c35655f87b777000170d85a","study_id":"605e2a800ccfa0c8e820d869","session_id":"6062209988c5b5abd892a93e"},{"rt":1946.0799999978917,"stimulus":"img/00693.png","slider_start":4,"response":3,"trial_type":"image-slider-response","trial_index":31,"time_elapsed":158536,"internal_node_id":"0.0-3.0-0.28","subject_id":"5c35655f87b777000170d85a","study_id":"605e2a800ccfa0c8e820d869","session_id":"6062209988c5b5abd892a93e"},{"rt":2118.049999997311,"stimulus":"img/00462.png","slider_start":4,"response":3,"trial_type":"image-slider-response","trial_index":32,"time_elapsed":160657,"internal_node_id":"0.0-3.0-0.29","subject_id":"5c35655f87b777000170d85a","study_id":"605e2a800ccfa0c8e820d869","session_id":"6062209988c5b5abd892a93e"},{"rt":3070.10999999693,"stimulus":"img/00988.png","slider_start":4,"response":2,"trial_type":"image-slider-response","trial_index":33,"time_elapsed":163730,"internal_node_id":"0.0-3.0-0.30","subject_id":"5c35655f87b777000170d85a","study_id":"605e2a800ccfa0c8e820d869","session_id":"6062209988c5b5abd892a93e"},{"rt":2269.5700000003853,"stimulus":"img/00438.png","slider_start":4,"response":3,"trial_type":"image-slider-response","trial_index":34,"time_elapsed":166003,"internal_node_id":"0.0-3.0-0.31","subject_id":"5c35655f87b777000170d85a","study_id":"605e2a800ccfa0c8e820d869","session_id":"6062209988c5b5abd892a93e"},{"rt":2366.150000001653,"stimulus":"img/00012.png","slider_start":4,"response":4,"trial_type":"image-slider-response","trial_index":35,"time_elapsed":168372,"internal_node_id":"0.0-3.0-0.32","subject_id":"5c35655f87b777000170d85a","study_id":"605e2a800ccfa0c8e820d869","session_id":"6062209988c5b5abd892a93e"},{"rt":10529.89499999967,"stimulus":"img/00956.png","slider_start":4,"response":6,"trial_type":"image-slider-response","trial_index":36,"time_elapsed":178905,"internal_node_id":"0.0-3.0-0.33","subject_id":"5c35655f87b777000170d85a","study_id":"605e2a800ccfa0c8e820d869","session_id":"6062209988c5b5abd892a93e"},{"rt":3718.249999998079,"stimulus":"img/00989.png","slider_start":4,"response":3,"trial_type":"image-slider-response","trial_index":37,"time_elapsed":182627,"internal_node_id":"0.0-3.0-0.34","subject_id":"5c35655f87b777000170d85a","study_id":"605e2a800ccfa0c8e820d869","session_id":"6062209988c5b5abd892a93e"},{"rt":2690.114999997604,"stimulus":"img/00592.png","slider_start":4,"response":4,"trial_type":"image-slider-response","trial_index":38,"time_elapsed":185320,"internal_node_id":"0.0-3.0-0.35","subject_id":"5c35655f87b777000170d85a","study_id":"605e2a800ccfa0c8e820d869","session_id":"6062209988c5b5abd892a93e"},{"rt":2910.084999999526,"stimulus":"img/00469.png","slider_start":4,"response":3,"trial_type":"image-slider-response","trial_index":39,"time_elapsed":188234,"internal_node_id":"0.0-3.0-0.36","subject_id":"5c35655f87b777000170d85a","study_id":"605e2a800ccfa0c8e820d869","session_id":"6062209988c5b5abd892a93e"},{"rt":3383.064999998169,"stimulus":"img/00903.png","slider_start":4,"response":4,"trial_type":"image-slider-response","trial_index":40,"time_elapsed":191619,"internal_node_id":"0.0-3.0-0.37","subject_id":"5c35655f87b777000170d85a","study_id":"605e2a800ccfa0c8e820d869","session_id":"6062209988c5b5abd892a93e"},{"rt":3577.5549999998475,"stimulus":"img/00413.png","slider_start":4,"response":2,"trial_type":"image-slider-response","trial_index":41,"time_elapsed":195200,"internal_node_id":"0.0-3.0-0.38","subject_id":"5c35655f87b777000170d85a","study_id":"605e2a800ccfa0c8e820d869","session_id":"6062209988c5b5abd892a93e"},{"rt":2185.489999999845,"stimulus":"img/00691.png","slider_start":4,"response":2,"trial_type":"image-slider-response","trial_index":42,"time_elapsed":197389,"internal_node_id":"0.0-3.0-0.39","subject_id":"5c35655f87b777000170d85a","study_id":"605e2a800ccfa0c8e820d869","session_id":"6062209988c5b5abd892a93e"},{"rt":5428.124999998545,"stimulus":"img/00437.png","slider_start":4,"response":3,"trial_type":"image-slider-response","trial_index":43,"time_elapsed":202820,"internal_node_id":"0.0-3.0-0.40","subject_id":"5c35655f87b777000170d85a","study_id":"605e2a800ccfa0c8e820d869","session_id":"6062209988c5b5abd892a93e"},{"rt":3682.2750000028464,"stimulus":"img/00785.png","slider_start":4,"response":4,"trial_type":"image-slider-response","trial_index":44,"time_elapsed":206506,"internal_node_id":"0.0-3.0-0.41","subject_id":"5c35655f87b777000170d85a","study_id":"605e2a800ccfa0c8e820d869","session_id":"6062209988c5b5abd892a93e"},{"rt":3425.4599999985658,"stimulus":"img/00809.png","slider_start":4,"response":4,"trial_type":"image-slider-response","trial_index":45,"time_elapsed":209935,"internal_node_id":"0.0-3.0-0.42","subject_id":"5c35655f87b777000170d85a","study_id":"605e2a800ccfa0c8e820d869","session_id":"6062209988c5b5abd892a93e"},{"rt":3578.4200000016426,"stimulus":"img/00779.png","slider_start":4,"response":3,"trial_type":"image-slider-response","trial_index":46,"time_elapsed":213517,"internal_node_id":"0.0-3.0-0.43","subject_id":"5c35655f87b777000170d85a","study_id":"605e2a800ccfa0c8e820d869","session_id":"6062209988c5b5abd892a93e"},{"rt":2469.379999998637,"stimulus":"img/00545.png","slider_start":4,"response":4,"trial_type":"image-slider-response","trial_index":47,"time_elapsed":215990,"internal_node_id":"0.0-3.0-0.44","subject_id":"5c35655f87b777000170d85a","study_id":"605e2a800ccfa0c8e820d869","session_id":"6062209988c5b5abd892a93e"},{"rt":3799.3249999999534,"stimulus":"img/00879.png","slider_start":4,"response":4,"trial_type":"image-slider-response","trial_index":48,"time_elapsed":219792,"internal_node_id":"0.0-3.0-0.45","subject_id":"5c35655f87b777000170d85a","study_id":"605e2a800ccfa0c8e820d869","session_id":"6062209988c5b5abd892a93e"},{"rt":3674.349999997503,"stimulus":"img/00543.png","slider_start":4,"response":2,"trial_type":"image-slider-response","trial_index":49,"time_elapsed":223470,"internal_node_id":"0.0-3.0-0.46","subject_id":"5c35655f87b777000170d85a","study_id":"605e2a800ccfa0c8e820d869","session_id":"6062209988c5b5abd892a93e"},{"rt":4758.319999997184,"stimulus":"img/00564.png","slider_start":4,"response":4,"trial_type":"image-slider-response","trial_index":50,"time_elapsed":228232,"internal_node_id":"0.0-3.0-0.47","subject_id":"5c35655f87b777000170d85a","study_id":"605e2a800ccfa0c8e820d869","session_id":"6062209988c5b5abd892a93e"},{"rt":2802.3450000000594,"stimulus":"img/00644.png","slider_start":4,"response":3,"trial_type":"image-slider-response","trial_index":51,"time_elapsed":231038,"internal_node_id":"0.0-3.0-0.48","subject_id":"5c35655f87b777000170d85a","study_id":"605e2a800ccfa0c8e820d869","session_id":"6062209988c5b5abd892a93e"},{"rt":1973.5550000004878,"stimulus":"img/00113.png","slider_start":4,"response":2,"trial_type":"image-slider-response","trial_index":52,"time_elapsed":233015,"internal_node_id":"0.0-3.0-0.49","subject_id":"5c35655f87b777000170d85a","study_id":"605e2a800ccfa0c8e820d869","session_id":"6062209988c5b5abd892a93e"},{"rt":3254.109999998036,"stimulus":"img/00747.png","slider_start":4,"response":3,"trial_type":"image-slider-response","trial_index":53,"time_elapsed":236272,"internal_node_id":"0.0-3.0-0.50","subject_id":"5c35655f87b777000170d85a","study_id":"605e2a800ccfa0c8e820d869","session_id":"6062209988c5b5abd892a93e"},{"rt":3875.045000000682,"stimulus":"img/00773.png","slider_start":4,"response":2,"trial_type":"image-slider-response","trial_index":54,"time_elapsed":240150,"internal_node_id":"0.0-3.0-0.51","subject_id":"5c35655f87b777000170d85a","study_id":"605e2a800ccfa0c8e820d869","session_id":"6062209988c5b5abd892a93e"},{"rt":2533.5699999995995,"stimulus":"img/00059.png","slider_start":4,"response":4,"trial_type":"image-slider-response","trial_index":55,"time_elapsed":242687,"internal_node_id":"0.0-3.0-0.52","subject_id":"5c35655f87b777000170d85a","study_id":"605e2a800ccfa0c8e820d869","session_id":"6062209988c5b5abd892a93e"},{"rt":3543.0649999980233,"stimulus":"img/00930.png","slider_start":4,"response":3,"trial_type":"image-slider-response","trial_index":56,"time_elapsed":246233,"internal_node_id":"0.0-3.0-0.53","subject_id":"5c35655f87b777000170d85a","study_id":"605e2a800ccfa0c8e820d869","session_id":"6062209988c5b5abd892a93e"},{"rt":3858.5800000000745,"stimulus":"img/00902.png","slider_start":4,"response":3,"trial_type":"image-slider-response","trial_index":57,"time_elapsed":250095,"internal_node_id":"0.0-3.0-0.54","subject_id":"5c35655f87b777000170d85a","study_id":"605e2a800ccfa0c8e820d869","session_id":"6062209988c5b5abd892a93e"},{"rt":3566.434999997,"stimulus":"img/00077.png","slider_start":4,"response":4,"trial_type":"image-slider-response","trial_index":58,"time_elapsed":253665,"internal_node_id":"0.0-3.0-0.55","subject_id":"5c35655f87b777000170d85a","study_id":"605e2a800ccfa0c8e820d869","session_id":"6062209988c5b5abd892a93e"},{"rt":4061.490000000049,"stimulus":"img/00427.png","slider_start":4,"response":5,"trial_type":"image-slider-response","trial_index":59,"time_elapsed":257730,"internal_node_id":"0.0-3.0-0.56","subject_id":"5c35655f87b777000170d85a","study_id":"605e2a800ccfa0c8e820d869","session_id":"6062209988c5b5abd892a93e"},{"rt":2258.2950000032724,"stimulus":"img/00822.png","slider_start":4,"response":5,"trial_type":"image-slider-response","trial_index":60,"time_elapsed":259992,"internal_node_id":"0.0-3.0-0.57","subject_id":"5c35655f87b777000170d85a","study_id":"605e2a800ccfa0c8e820d869","session_id":"6062209988c5b5abd892a93e"},{"rt":4482.994999998453,"stimulus":"img/00496.png","slider_start":4,"response":4,"trial_type":"image-slider-response","trial_index":61,"time_elapsed":264478,"internal_node_id":"0.0-3.0-0.58","subject_id":"5c35655f87b777000170d85a","study_id":"605e2a800ccfa0c8e820d869","session_id":"6062209988c5b5abd892a93e"},{"rt":2585.459999998391,"stimulus":"img/00101.png","slider_start":4,"response":1,"trial_type":"image-slider-response","trial_index":62,"time_elapsed":267067,"internal_node_id":"0.0-3.0-0.59","subject_id":"5c35655f87b777000170d85a","study_id":"605e2a800ccfa0c8e820d869","session_id":"6062209988c5b5abd892a93e"},{"rt":3470.339999999851,"stimulus":"img/00447.png","slider_start":4,"response":3,"trial_type":"image-slider-response","trial_index":63,"time_elapsed":270541,"internal_node_id":"0.0-3.0-0.60","subject_id":"5c35655f87b777000170d85a","study_id":"605e2a800ccfa0c8e820d869","session_id":"6062209988c5b5abd892a93e"},{"rt":2126.1349999986123,"stimulus":"img/00815.png","slider_start":4,"response":3,"trial_type":"image-slider-response","trial_index":64,"time_elapsed":272670,"internal_node_id":"0.0-3.0-0.61","subject_id":"5c35655f87b777000170d85a","study_id":"605e2a800ccfa0c8e820d869","session_id":"6062209988c5b5abd892a93e"},{"rt":4002.844999999099,"stimulus":"img/00055.png","slider_start":4,"response":2,"trial_type":"image-slider-response","trial_index":65,"time_elapsed":276676,"internal_node_id":"0.0-3.0-0.62","subject_id":"5c35655f87b777000170d85a","study_id":"605e2a800ccfa0c8e820d869","session_id":"6062209988c5b5abd892a93e"},{"rt":2925.405000001774,"stimulus":"img/00760.png","slider_start":4,"response":3,"trial_type":"image-slider-response","trial_index":66,"time_elapsed":279605,"internal_node_id":"0.0-3.0-0.63","subject_id":"5c35655f87b777000170d85a","study_id":"605e2a800ccfa0c8e820d869","session_id":"6062209988c5b5abd892a93e"},{"rt":3802.3649999995832,"stimulus":"img/00029.png","slider_start":4,"response":3,"trial_type":"image-slider-response","trial_index":67,"time_elapsed":283411,"internal_node_id":"0.0-3.0-0.64","subject_id":"5c35655f87b777000170d85a","study_id":"605e2a800ccfa0c8e820d869","session_id":"6062209988c5b5abd892a93e"},{"rt":4270.424999998824,"stimulus":"img/00559.png","slider_start":4,"response":2,"trial_type":"image-slider-response","trial_index":68,"time_elapsed":287685,"internal_node_id":"0.0-3.0-0.65","subject_id":"5c35655f87b777000170d85a","study_id":"605e2a800ccfa0c8e820d869","session_id":"6062209988c5b5abd892a93e"},{"rt":2273.3449999978184,"stimulus":"img/00759.png","slider_start":4,"response":3,"trial_type":"image-slider-response","trial_index":69,"time_elapsed":289962,"internal_node_id":"0.0-3.0-0.66","subject_id":"5c35655f87b777000170d85a","study_id":"605e2a800ccfa0c8e820d869","session_id":"6062209988c5b5abd892a93e"},{"rt":2246.180000001914,"stimulus":"img/00718.png","slider_start":4,"response":2,"trial_type":"image-slider-response","trial_index":70,"time_elapsed":292211,"internal_node_id":"0.0-3.0-0.67","subject_id":"5c35655f87b777000170d85a","study_id":"605e2a800ccfa0c8e820d869","session_id":"6062209988c5b5abd892a93e"},{"rt":4386.990000002668,"stimulus":"img/00949.png","slider_start":4,"response":3,"trial_type":"image-slider-response","trial_index":71,"time_elapsed":296600,"internal_node_id":"0.0-3.0-0.68","subject_id":"5c35655f87b777000170d85a","study_id":"605e2a800ccfa0c8e820d869","session_id":"6062209988c5b5abd892a93e"},{"rt":3954.2099999998463,"stimulus":"img/00748.png","slider_start":4,"response":4,"trial_type":"image-slider-response","trial_index":72,"time_elapsed":300559,"internal_node_id":"0.0-3.0-0.69","subject_id":"5c35655f87b777000170d85a","study_id":"605e2a800ccfa0c8e820d869","session_id":"6062209988c5b5abd892a93e"},{"rt":2669.290000001609,"stimulus":"img/00114.png","slider_start":4,"response":4,"trial_type":"image-slider-response","trial_index":73,"time_elapsed":303232,"internal_node_id":"0.0-3.0-0.70","subject_id":"5c35655f87b777000170d85a","study_id":"605e2a800ccfa0c8e820d869","session_id":"6062209988c5b5abd892a93e"},{"rt":6908.525000002584,"stimulus":"img/00503.png","slider_start":4,"response":2,"trial_type":"image-slider-response","trial_index":74,"time_elapsed":310144,"internal_node_id":"0.0-3.0-0.71","subject_id":"5c35655f87b777000170d85a","study_id":"605e2a800ccfa0c8e820d869","session_id":"6062209988c5b5abd892a93e"},{"rt":3682.2399999983027,"stimulus":"img/00995.png","slider_start":4,"response":3,"trial_type":"image-slider-response","trial_index":75,"time_elapsed":313830,"internal_node_id":"0.0-3.0-0.72","subject_id":"5c35655f87b777000170d85a","study_id":"605e2a800ccfa0c8e820d869","session_id":"6062209988c5b5abd892a93e"},{"rt":3501.2449999994133,"stimulus":"img/00722.png","slider_start":4,"response":3,"trial_type":"image-slider-response","trial_index":76,"time_elapsed":317335,"internal_node_id":"0.0-3.0-0.73","subject_id":"5c35655f87b777000170d85a","study_id":"605e2a800ccfa0c8e820d869","session_id":"6062209988c5b5abd892a93e"},{"rt":3968.075000000652,"stimulus":"img/00079.png","slider_start":4,"response":4,"trial_type":"image-slider-response","trial_index":77,"time_elapsed":321305,"internal_node_id":"0.0-3.0-0.74","subject_id":"5c35655f87b777000170d85a","study_id":"605e2a800ccfa0c8e820d869","session_id":"6062209988c5b5abd892a93e"},{"rt":2401.4900000002235,"stimulus":"img/00006.png","slider_start":4,"response":3,"trial_type":"image-slider-response","trial_index":78,"time_elapsed":323710,"internal_node_id":"0.0-3.0-0.75","subject_id":"5c35655f87b777000170d85a","study_id":"605e2a800ccfa0c8e820d869","session_id":"6062209988c5b5abd892a93e"},{"rt":4011.0899999999674,"stimulus":"img/00689.png","slider_start":4,"response":3,"trial_type":"image-slider-response","trial_index":79,"time_elapsed":327724,"internal_node_id":"0.0-3.0-0.76","subject_id":"5c35655f87b777000170d85a","study_id":"605e2a800ccfa0c8e820d869","session_id":"6062209988c5b5abd892a93e"},{"rt":3178.4000000006636,"stimulus":"img/00002.png","slider_start":4,"response":2,"trial_type":"image-slider-response","trial_index":80,"time_elapsed":330906,"internal_node_id":"0.0-3.0-0.77","subject_id":"5c35655f87b777000170d85a","study_id":"605e2a800ccfa0c8e820d869","session_id":"6062209988c5b5abd892a93e"},{"rt":4243.11999999918,"stimulus":"img/00982.png","slider_start":4,"response":1,"trial_type":"image-slider-response","trial_index":81,"time_elapsed":335152,"internal_node_id":"0.0-3.0-0.78","subject_id":"5c35655f87b777000170d85a","study_id":"605e2a800ccfa0c8e820d869","session_id":"6062209988c5b5abd892a93e"},{"rt":3149.214999997639,"stimulus":"img/00472.png","slider_start":4,"response":1,"trial_type":"image-slider-response","trial_index":82,"time_elapsed":338305,"internal_node_id":"0.0-3.0-0.79","subject_id":"5c35655f87b777000170d85a","study_id":"605e2a800ccfa0c8e820d869","session_id":"6062209988c5b5abd892a93e"},{"rt":3023.075000000943,"stimulus":"img/00896.png","slider_start":4,"response":3,"trial_type":"image-slider-response","trial_index":83,"time_elapsed":341331,"internal_node_id":"0.0-3.0-0.80","subject_id":"5c35655f87b777000170d85a","study_id":"605e2a800ccfa0c8e820d869","session_id":"6062209988c5b5abd892a93e"},{"rt":2961.4450000007637,"stimulus":"img/00799.png","slider_start":4,"response":4,"trial_type":"image-slider-response","trial_index":84,"time_elapsed":344296,"internal_node_id":"0.0-3.0-0.81","subject_id":"5c35655f87b777000170d85a","study_id":"605e2a800ccfa0c8e820d869","session_id":"6062209988c5b5abd892a93e"},{"rt":2342.1400000006543,"stimulus":"img/00850.png","slider_start":4,"response":2,"trial_type":"image-slider-response","trial_index":85,"time_elapsed":346641,"internal_node_id":"0.0-3.0-0.82","subject_id":"5c35655f87b777000170d85a","study_id":"605e2a800ccfa0c8e820d869","session_id":"6062209988c5b5abd892a93e"},{"rt":2346.8599999978323,"stimulus":"img/00464.png","slider_start":4,"response":1,"trial_type":"image-slider-response","trial_index":86,"time_elapsed":348990,"internal_node_id":"0.0-3.0-0.83","subject_id":"5c35655f87b777000170d85a","study_id":"605e2a800ccfa0c8e820d869","session_id":"6062209988c5b5abd892a93e"},{"rt":2267.0749999997206,"stimulus":"img/00878.png","slider_start":4,"response":3,"trial_type":"image-slider-response","trial_index":87,"time_elapsed":351260,"internal_node_id":"0.0-3.0-0.84","subject_id":"5c35655f87b777000170d85a","study_id":"605e2a800ccfa0c8e820d869","session_id":"6062209988c5b5abd892a93e"},{"rt":2610.094999999972,"stimulus":"img/00105.png","slider_start":4,"response":1,"trial_type":"image-slider-response","trial_index":88,"time_elapsed":353873,"internal_node_id":"0.0-3.0-0.85","subject_id":"5c35655f87b777000170d85a","study_id":"605e2a800ccfa0c8e820d869","session_id":"6062209988c5b5abd892a93e"},{"rt":4571.074999999837,"stimulus":"img/00478.png","slider_start":4,"response":1,"trial_type":"image-slider-response","trial_index":89,"time_elapsed":358447,"internal_node_id":"0.0-3.0-0.86","subject_id":"5c35655f87b777000170d85a","study_id":"605e2a800ccfa0c8e820d869","session_id":"6062209988c5b5abd892a93e"},{"rt":2729.4499999989057,"stimulus":"img/00752.png","slider_start":4,"response":4,"trial_type":"image-slider-response","trial_index":90,"time_elapsed":361180,"internal_node_id":"0.0-3.0-0.87","subject_id":"5c35655f87b777000170d85a","study_id":"605e2a800ccfa0c8e820d869","session_id":"6062209988c5b5abd892a93e"},{"rt":4443.439999999129,"stimulus":"img/00790.png","slider_start":4,"response":3,"trial_type":"image-slider-response","trial_index":91,"time_elapsed":365627,"internal_node_id":"0.0-3.0-0.88","subject_id":"5c35655f87b777000170d85a","study_id":"605e2a800ccfa0c8e820d869","session_id":"6062209988c5b5abd892a93e"},{"rt":2505.424999999348,"stimulus":"img/00708.png","slider_start":4,"response":4,"trial_type":"image-slider-response","trial_index":92,"time_elapsed":368136,"internal_node_id":"0.0-3.0-0.89","subject_id":"5c35655f87b777000170d85a","study_id":"605e2a800ccfa0c8e820d869","session_id":"6062209988c5b5abd892a93e"},{"rt":2617.9249999986496,"stimulus":"img/00629.png","slider_start":4,"response":2,"trial_type":"image-slider-response","trial_index":93,"time_elapsed":370757,"internal_node_id":"0.0-3.0-0.90","subject_id":"5c35655f87b777000170d85a","study_id":"605e2a800ccfa0c8e820d869","session_id":"6062209988c5b5abd892a93e"},{"rt":2370.084999998682,"stimulus":"img/00841.png","slider_start":4,"response":5,"trial_type":"image-slider-response","trial_index":94,"time_elapsed":373130,"internal_node_id":"0.0-3.0-0.91","subject_id":"5c35655f87b777000170d85a","study_id":"605e2a800ccfa0c8e820d869","session_id":"6062209988c5b5abd892a93e"},{"rt":3042.4349999994156,"stimulus":"img/00507.png","slider_start":4,"response":1,"trial_type":"image-slider-response","trial_index":95,"time_elapsed":376176,"internal_node_id":"0.0-3.0-0.92","subject_id":"5c35655f87b777000170d85a","study_id":"605e2a800ccfa0c8e820d869","session_id":"6062209988c5b5abd892a93e"},{"rt":2901.9699999989825,"stimulus":"img/00789.png","slider_start":4,"response":3,"trial_type":"image-slider-response","trial_index":96,"time_elapsed":379081,"internal_node_id":"0.0-3.0-0.93","subject_id":"5c35655f87b777000170d85a","study_id":"605e2a800ccfa0c8e820d869","session_id":"6062209988c5b5abd892a93e"},{"rt":2321.3900000009453,"stimulus":"img/00045.png","slider_start":4,"response":3,"trial_type":"image-slider-response","trial_index":97,"time_elapsed":381406,"internal_node_id":"0.0-3.0-0.94","subject_id":"5c35655f87b777000170d85a","study_id":"605e2a800ccfa0c8e820d869","session_id":"6062209988c5b5abd892a93e"},{"rt":3043.169999997248,"stimulus":"img/00967.png","slider_start":4,"response":3,"trial_type":"image-slider-response","trial_index":98,"time_elapsed":384452,"internal_node_id":"0.0-3.0-0.95","subject_id":"5c35655f87b777000170d85a","study_id":"605e2a800ccfa0c8e820d869","session_id":"6062209988c5b5abd892a93e"},{"rt":2278.1299999987823,"stimulus":"img/00842.png","slider_start":4,"response":5,"trial_type":"image-slider-response","trial_index":99,"time_elapsed":386732,"internal_node_id":"0.0-3.0-0.96","subject_id":"5c35655f87b777000170d85a","study_id":"605e2a800ccfa0c8e820d869","session_id":"6062209988c5b5abd892a93e"},{"rt":2210.0499999978347,"stimulus":"img/00456.png","slider_start":4,"response":3,"trial_type":"image-slider-response","trial_index":100,"time_elapsed":388945,"internal_node_id":"0.0-3.0-0.97","subject_id":"5c35655f87b777000170d85a","study_id":"605e2a800ccfa0c8e820d869","session_id":"6062209988c5b5abd892a93e"},{"rt":2553.5449999988778,"stimulus":"img/00623.png","slider_start":4,"response":4,"trial_type":"image-slider-response","trial_index":101,"time_elapsed":391502,"internal_node_id":"0.0-3.0-0.98","subject_id":"5c35655f87b777000170d85a","study_id":"605e2a800ccfa0c8e820d869","session_id":"6062209988c5b5abd892a93e"},{"rt":3270.764999997453,"stimulus":"img/00631.png","slider_start":4,"response":3,"trial_type":"image-slider-response","trial_index":102,"time_elapsed":394776,"internal_node_id":"0.0-3.0-0.99","subject_id":"5c35655f87b777000170d85a","study_id":"605e2a800ccfa0c8e820d869","session_id":"6062209988c5b5abd892a93e"},{"rt":5743.890000001586,"stimulus":"img/00082.png","slider_start":4,"response":4,"trial_type":"image-slider-response","trial_index":103,"time_elapsed":400523,"internal_node_id":"0.0-3.0-0.100","subject_id":"5c35655f87b777000170d85a","study_id":"605e2a800ccfa0c8e820d869","session_id":"6062209988c5b5abd892a93e"},{"rt":2709.415000001143,"stimulus":"img/00569.png","slider_start":4,"response":3,"trial_type":"image-slider-response","trial_index":104,"time_elapsed":403236,"internal_node_id":"0.0-3.0-0.101","subject_id":"5c35655f87b777000170d85a","study_id":"605e2a800ccfa0c8e820d869","session_id":"6062209988c5b5abd892a93e"},{"rt":2717.1849999976694,"stimulus":"img/00688.png","slider_start":4,"response":4,"trial_type":"image-slider-response","trial_index":105,"time_elapsed":405957,"internal_node_id":"0.0-3.0-0.102","subject_id":"5c35655f87b777000170d85a","study_id":"605e2a800ccfa0c8e820d869","session_id":"6062209988c5b5abd892a93e"},{"rt":3675.1249999979627,"stimulus":"img/00440.png","slider_start":4,"response":1,"trial_type":"image-slider-response","trial_index":106,"time_elapsed":409635,"internal_node_id":"0.0-3.0-0.103","subject_id":"5c35655f87b777000170d85a","study_id":"605e2a800ccfa0c8e820d869","session_id":"6062209988c5b5abd892a93e"},{"rt":2521.3350000012433,"stimulus":"img/00811.png","slider_start":4,"response":3,"trial_type":"image-slider-response","trial_index":107,"time_elapsed":412160,"internal_node_id":"0.0-3.0-0.104","subject_id":"5c35655f87b777000170d85a","study_id":"605e2a800ccfa0c8e820d869","session_id":"6062209988c5b5abd892a93e"},{"rt":3098.999999998312,"stimulus":"img/00042.png","slider_start":4,"response":1,"trial_type":"image-slider-response","trial_index":108,"time_elapsed":415262,"internal_node_id":"0.0-3.0-0.105","subject_id":"5c35655f87b777000170d85a","study_id":"605e2a800ccfa0c8e820d869","session_id":"6062209988c5b5abd892a93e"},{"rt":2657.3199999984354,"stimulus":"img/00587.png","slider_start":4,"response":5,"trial_type":"image-slider-response","trial_index":109,"time_elapsed":417923,"internal_node_id":"0.0-3.0-0.106","subject_id":"5c35655f87b777000170d85a","study_id":"605e2a800ccfa0c8e820d869","session_id":"6062209988c5b5abd892a93e"},{"rt":3038.075000000419,"stimulus":"img/00508.png","slider_start":4,"response":2,"trial_type":"image-slider-response","trial_index":110,"time_elapsed":420964,"internal_node_id":"0.0-3.0-0.107","subject_id":"5c35655f87b777000170d85a","study_id":"605e2a800ccfa0c8e820d869","session_id":"6062209988c5b5abd892a93e"},{"rt":3730.6449999996694,"stimulus":"img/00018.png","slider_start":4,"response":2,"trial_type":"image-slider-response","trial_index":111,"time_elapsed":424698,"internal_node_id":"0.0-3.0-0.108","subject_id":"5c35655f87b777000170d85a","study_id":"605e2a800ccfa0c8e820d869","session_id":"6062209988c5b5abd892a93e"},{"rt":2787.0250000014203,"stimulus":"img/00793.png","slider_start":4,"response":2,"trial_type":"image-slider-response","trial_index":112,"time_elapsed":427488,"internal_node_id":"0.0-3.0-0.109","subject_id":"5c35655f87b777000170d85a","study_id":"605e2a800ccfa0c8e820d869","session_id":"6062209988c5b5abd892a93e"},{"rt":4274.454999998852,"stimulus":"img/00405.png","slider_start":4,"response":4,"trial_type":"image-slider-response","trial_index":113,"time_elapsed":431766,"internal_node_id":"0.0-3.0-0.110","subject_id":"5c35655f87b777000170d85a","study_id":"605e2a800ccfa0c8e820d869","session_id":"6062209988c5b5abd892a93e"},{"rt":6179.345000000438,"stimulus":"img/00129.png","slider_start":4,"response":5,"trial_type":"image-slider-response","trial_index":114,"time_elapsed":437949,"internal_node_id":"0.0-3.0-0.111","subject_id":"5c35655f87b777000170d85a","study_id":"605e2a800ccfa0c8e820d869","session_id":"6062209988c5b5abd892a93e"},{"rt":2197.280000000377,"stimulus":"img/00415.png","slider_start":4,"response":4,"trial_type":"image-slider-response","trial_index":115,"time_elapsed":440150,"internal_node_id":"0.0-3.0-0.112","subject_id":"5c35655f87b777000170d85a","study_id":"605e2a800ccfa0c8e820d869","session_id":"6062209988c5b5abd892a93e"},{"rt":8981.035000000731,"stimulus":"img/00848.png","slider_start":4,"response":3,"trial_type":"image-slider-response","trial_index":116,"time_elapsed":449133,"internal_node_id":"0.0-3.0-0.113","subject_id":"5c35655f87b777000170d85a","study_id":"605e2a800ccfa0c8e820d869","session_id":"6062209988c5b5abd892a93e"},{"rt":2661.3450000004377,"stimulus":"img/00439.png","slider_start":4,"response":2,"trial_type":"image-slider-response","trial_index":117,"time_elapsed":451799,"internal_node_id":"0.0-3.0-0.114","subject_id":"5c35655f87b777000170d85a","study_id":"605e2a800ccfa0c8e820d869","session_id":"6062209988c5b5abd892a93e"},{"rt":6860.749999999884,"stimulus":"img/00015.png","slider_start":4,"response":2,"trial_type":"image-slider-response","trial_index":118,"time_elapsed":458662,"internal_node_id":"0.0-3.0-0.115","subject_id":"5c35655f87b777000170d85a","study_id":"605e2a800ccfa0c8e820d869","session_id":"6062209988c5b5abd892a93e"},{"rt":2019.1149999991176,"stimulus":"img/00549.png","slider_start":4,"response":3,"trial_type":"image-slider-response","trial_index":119,"time_elapsed":460683,"internal_node_id":"0.0-3.0-0.116","subject_id":"5c35655f87b777000170d85a","study_id":"605e2a800ccfa0c8e820d869","session_id":"6062209988c5b5abd892a93e"},{"rt":3117.8749999998836,"stimulus":"img/00048.png","slider_start":4,"response":3,"trial_type":"image-slider-response","trial_index":120,"time_elapsed":463804,"internal_node_id":"0.0-3.0-0.117","subject_id":"5c35655f87b777000170d85a","study_id":"605e2a800ccfa0c8e820d869","session_id":"6062209988c5b5abd892a93e"},{"rt":1797.6349999989616,"stimulus":"img/00040.png","slider_start":4,"response":1,"trial_type":"image-slider-response","trial_index":121,"time_elapsed":465605,"internal_node_id":"0.0-3.0-0.118","subject_id":"5c35655f87b777000170d85a","study_id":"605e2a800ccfa0c8e820d869","session_id":"6062209988c5b5abd892a93e"},{"rt":3946.974999998929,"stimulus":"img/00127.png","slider_start":4,"response":1,"trial_type":"image-slider-response","trial_index":122,"time_elapsed":469555,"internal_node_id":"0.0-3.0-0.119","subject_id":"5c35655f87b777000170d85a","study_id":"605e2a800ccfa0c8e820d869","session_id":"6062209988c5b5abd892a93e"},{"rt":2029.2200000003795,"stimulus":"img/00991.png","slider_start":4,"response":3,"trial_type":"image-slider-response","trial_index":123,"time_elapsed":471589,"internal_node_id":"0.0-3.0-0.120","subject_id":"5c35655f87b777000170d85a","study_id":"605e2a800ccfa0c8e820d869","session_id":"6062209988c5b5abd892a93e"},{"rt":2353.2950000007404,"stimulus":"img/00466.png","slider_start":4,"response":3,"trial_type":"image-slider-response","trial_index":124,"time_elapsed":473945,"internal_node_id":"0.0-3.0-0.121","subject_id":"5c35655f87b777000170d85a","study_id":"605e2a800ccfa0c8e820d869","session_id":"6062209988c5b5abd892a93e"},{"rt":2322.0500000024913,"stimulus":"img/00542.png","slider_start":4,"response":2,"trial_type":"image-slider-response","trial_index":125,"time_elapsed":476270,"internal_node_id":"0.0-3.0-0.122","subject_id":"5c35655f87b777000170d85a","study_id":"605e2a800ccfa0c8e820d869","session_id":"6062209988c5b5abd892a93e"},{"rt":2045.8900000011781,"stimulus":"img/00612.png","slider_start":4,"response":2,"trial_type":"image-slider-response","trial_index":126,"time_elapsed":478319,"internal_node_id":"0.0-3.0-0.123","subject_id":"5c35655f87b777000170d85a","study_id":"605e2a800ccfa0c8e820d869","session_id":"6062209988c5b5abd892a93e"},{"rt":2238.034999998519,"stimulus":"img/00122.png","slider_start":4,"response":4,"trial_type":"image-slider-response","trial_index":127,"time_elapsed":480561,"internal_node_id":"0.0-3.0-0.124","subject_id":"5c35655f87b777000170d85a","study_id":"605e2a800ccfa0c8e820d869","session_id":"6062209988c5b5abd892a93e"},{"rt":3943.0699999975623,"stimulus":"img/00817.png","slider_start":4,"response":3,"trial_type":"image-slider-response","trial_index":128,"time_elapsed":484507,"internal_node_id":"0.0-3.0-0.125","subject_id":"5c35655f87b777000170d85a","study_id":"605e2a800ccfa0c8e820d869","session_id":"6062209988c5b5abd892a93e"},{"rt":4826.229999998701,"stimulus":"img/00973.png","slider_start":4,"response":3,"trial_type":"image-slider-response","trial_index":129,"time_elapsed":489337,"internal_node_id":"0.0-3.0-0.126","subject_id":"5c35655f87b777000170d85a","study_id":"605e2a800ccfa0c8e820d869","session_id":"6062209988c5b5abd892a93e"},{"rt":2113.209999999497,"stimulus":"img/00563.png","slider_start":4,"response":3,"trial_type":"image-slider-response","trial_index":130,"time_elapsed":491454,"internal_node_id":"0.0-3.0-0.127","subject_id":"5c35655f87b777000170d85a","study_id":"605e2a800ccfa0c8e820d869","session_id":"6062209988c5b5abd892a93e"},{"rt":1762.1299999991315,"stimulus":"img/00913.png","slider_start":4,"response":3,"trial_type":"image-slider-response","trial_index":131,"time_elapsed":493219,"internal_node_id":"0.0-3.0-0.128","subject_id":"5c35655f87b777000170d85a","study_id":"605e2a800ccfa0c8e820d869","session_id":"6062209988c5b5abd892a93e"},{"rt":2377.9300000023795,"stimulus":"img/00653.png","slider_start":4,"response":3,"trial_type":"image-slider-response","trial_index":132,"time_elapsed":495600,"internal_node_id":"0.0-3.0-0.129","subject_id":"5c35655f87b777000170d85a","study_id":"605e2a800ccfa0c8e820d869","session_id":"6062209988c5b5abd892a93e"},{"rt":3299.104999998235,"stimulus":"img/00432.png","slider_start":4,"response":4,"trial_type":"image-slider-response","trial_index":133,"time_elapsed":498902,"internal_node_id":"0.0-3.0-0.130","subject_id":"5c35655f87b777000170d85a","study_id":"605e2a800ccfa0c8e820d869","session_id":"6062209988c5b5abd892a93e"},{"rt":2357.995000002149,"stimulus":"img/00731.png","slider_start":4,"response":2,"trial_type":"image-slider-response","trial_index":134,"time_elapsed":501263,"internal_node_id":"0.0-3.0-0.131","subject_id":"5c35655f87b777000170d85a","study_id":"605e2a800ccfa0c8e820d869","session_id":"6062209988c5b5abd892a93e"},{"rt":2001.4750000009662,"stimulus":"img/00742.png","slider_start":4,"response":3,"trial_type":"image-slider-response","trial_index":135,"time_elapsed":503268,"internal_node_id":"0.0-3.0-0.132","subject_id":"5c35655f87b777000170d85a","study_id":"605e2a800ccfa0c8e820d869","session_id":"6062209988c5b5abd892a93e"},{"rt":6027.770000000601,"stimulus":"img/00603.png","slider_start":4,"response":2,"trial_type":"image-slider-response","trial_index":136,"time_elapsed":509299,"internal_node_id":"0.0-3.0-0.133","subject_id":"5c35655f87b777000170d85a","study_id":"605e2a800ccfa0c8e820d869","session_id":"6062209988c5b5abd892a93e"},{"rt":2169.0600000001723,"stimulus":"img/00986.png","slider_start":4,"response":3,"trial_type":"image-slider-response","trial_index":137,"time_elapsed":511472,"internal_node_id":"0.0-3.0-0.134","subject_id":"5c35655f87b777000170d85a","study_id":"605e2a800ccfa0c8e820d869","session_id":"6062209988c5b5abd892a93e"},{"rt":2301.98499999824,"stimulus":"img/00854.png","slider_start":4,"response":2,"trial_type":"image-slider-response","trial_index":138,"time_elapsed":513776,"internal_node_id":"0.0-3.0-0.135","subject_id":"5c35655f87b777000170d85a","study_id":"605e2a800ccfa0c8e820d869","session_id":"6062209988c5b5abd892a93e"},{"rt":2106.289999999688,"stimulus":"img/00418.png","slider_start":4,"response":3,"trial_type":"image-slider-response","trial_index":139,"time_elapsed":515886,"internal_node_id":"0.0-3.0-0.136","subject_id":"5c35655f87b777000170d85a","study_id":"605e2a800ccfa0c8e820d869","session_id":"6062209988c5b5abd892a93e"},{"rt":4899.954999997106,"stimulus":"img/00041.png","slider_start":4,"response":4,"trial_type":"image-slider-response","trial_index":140,"time_elapsed":520788,"internal_node_id":"0.0-3.0-0.137","subject_id":"5c35655f87b777000170d85a","study_id":"605e2a800ccfa0c8e820d869","session_id":"6062209988c5b5abd892a93e"},{"rt":1961.364999999234,"stimulus":"img/00898.png","slider_start":4,"response":1,"trial_type":"image-slider-response","trial_index":141,"time_elapsed":522753,"internal_node_id":"0.0-3.0-0.138","subject_id":"5c35655f87b777000170d85a","study_id":"605e2a800ccfa0c8e820d869","session_id":"6062209988c5b5abd892a93e"},{"rt":3261.835000001127,"stimulus":"img/00951.png","slider_start":4,"response":1,"trial_type":"image-slider-response","trial_index":142,"time_elapsed":526018,"internal_node_id":"0.0-3.0-0.139","subject_id":"5c35655f87b777000170d85a","study_id":"605e2a800ccfa0c8e820d869","session_id":"6062209988c5b5abd892a93e"},{"rt":2917.1950000018114,"stimulus":"img/00554.png","slider_start":4,"response":3,"trial_type":"image-slider-response","trial_index":143,"time_elapsed":528940,"internal_node_id":"0.0-3.0-0.140","subject_id":"5c35655f87b777000170d85a","study_id":"605e2a800ccfa0c8e820d869","session_id":"6062209988c5b5abd892a93e"},{"rt":2345.9350000011036,"stimulus":"img/00126.png","slider_start":4,"response":2,"trial_type":"image-slider-response","trial_index":144,"time_elapsed":531289,"internal_node_id":"0.0-3.0-0.141","subject_id":"5c35655f87b777000170d85a","study_id":"605e2a800ccfa0c8e820d869","session_id":"6062209988c5b5abd892a93e"},{"rt":4822.509999998147,"stimulus":"img/00525.png","slider_start":4,"response":4,"trial_type":"image-slider-response","trial_index":145,"time_elapsed":536115,"internal_node_id":"0.0-3.0-0.142","subject_id":"5c35655f87b777000170d85a","study_id":"605e2a800ccfa0c8e820d869","session_id":"6062209988c5b5abd892a93e"},{"rt":3134.2850000000326,"stimulus":"img/00576.png","slider_start":4,"response":5,"trial_type":"image-slider-response","trial_index":146,"time_elapsed":539253,"internal_node_id":"0.0-3.0-0.143","subject_id":"5c35655f87b777000170d85a","study_id":"605e2a800ccfa0c8e820d869","session_id":"6062209988c5b5abd892a93e"},{"rt":5490.2849999998,"stimulus":"img/00428.png","slider_start":4,"response":3,"trial_type":"image-slider-response","trial_index":147,"time_elapsed":544747,"internal_node_id":"0.0-3.0-0.144","subject_id":"5c35655f87b777000170d85a","study_id":"605e2a800ccfa0c8e820d869","session_id":"6062209988c5b5abd892a93e"},{"rt":2998.244999998831,"stimulus":"img/00424.png","slider_start":4,"response":4,"trial_type":"image-slider-response","trial_index":148,"time_elapsed":547749,"internal_node_id":"0.0-3.0-0.145","subject_id":"5c35655f87b777000170d85a","study_id":"605e2a800ccfa0c8e820d869","session_id":"6062209988c5b5abd892a93e"},{"rt":3970.7149999995017,"stimulus":"img/00561.png","slider_start":4,"response":3,"trial_type":"image-slider-response","trial_index":149,"time_elapsed":551723,"internal_node_id":"0.0-3.0-0.146","subject_id":"5c35655f87b777000170d85a","study_id":"605e2a800ccfa0c8e820d869","session_id":"6062209988c5b5abd892a93e"},{"rt":2633.2250000013737,"stimulus":"img/00130.png","slider_start":4,"response":4,"trial_type":"image-slider-response","trial_index":150,"time_elapsed":554360,"internal_node_id":"0.0-3.0-0.147","subject_id":"5c35655f87b777000170d85a","study_id":"605e2a800ccfa0c8e820d869","session_id":"6062209988c5b5abd892a93e"},{"rt":2497.8699999991804,"stimulus":"img/00618.png","slider_start":4,"response":4,"trial_type":"image-slider-response","trial_index":151,"time_elapsed":556861,"internal_node_id":"0.0-3.0-0.148","subject_id":"5c35655f87b777000170d85a","study_id":"605e2a800ccfa0c8e820d869","session_id":"6062209988c5b5abd892a93e"},{"rt":2731.3199999990175,"stimulus":"img/00853.png","slider_start":4,"response":4,"trial_type":"image-slider-response","trial_index":152,"time_elapsed":559594,"internal_node_id":"0.0-3.0-0.149","subject_id":"5c35655f87b777000170d85a","study_id":"605e2a800ccfa0c8e820d869","session_id":"6062209988c5b5abd892a93e"},{"rt":2958.3199999978533,"stimulus":"img/00401.png","slider_start":4,"response":4,"trial_type":"image-slider-response","trial_index":153,"time_elapsed":562556,"internal_node_id":"0.0-3.0-0.150","subject_id":"5c35655f87b777000170d85a","study_id":"605e2a800ccfa0c8e820d869","session_id":"6062209988c5b5abd892a93e"},{"rt":2822.019999999553,"stimulus":"img/00064.png","slider_start":4,"response":4,"trial_type":"image-slider-response","trial_index":154,"time_elapsed":565381,"internal_node_id":"0.0-3.0-0.151","subject_id":"5c35655f87b777000170d85a","study_id":"605e2a800ccfa0c8e820d869","session_id":"6062209988c5b5abd892a93e"},{"rt":2770.319999999716,"stimulus":"img/00926.png","slider_start":4,"response":4,"trial_type":"image-slider-response","trial_index":155,"time_elapsed":568155,"internal_node_id":"0.0-3.0-0.152","subject_id":"5c35655f87b777000170d85a","study_id":"605e2a800ccfa0c8e820d869","session_id":"6062209988c5b5abd892a93e"},{"rt":3589.9849999987055,"stimulus":"img/00481.png","slider_start":4,"response":2,"trial_type":"image-slider-response","trial_index":156,"time_elapsed":571748,"internal_node_id":"0.0-3.0-0.153","subject_id":"5c35655f87b777000170d85a","study_id":"605e2a800ccfa0c8e820d869","session_id":"6062209988c5b5abd892a93e"},{"rt":2297.3149999998277,"stimulus":"img/00998.png","slider_start":4,"response":4,"trial_type":"image-slider-response","trial_index":157,"time_elapsed":574049,"internal_node_id":"0.0-3.0-0.154","subject_id":"5c35655f87b777000170d85a","study_id":"605e2a800ccfa0c8e820d869","session_id":"6062209988c5b5abd892a93e"},{"rt":2082.024999999674,"stimulus":"img/00744.png","slider_start":4,"response":3,"trial_type":"image-slider-response","trial_index":158,"time_elapsed":576134,"internal_node_id":"0.0-3.0-0.155","subject_id":"5c35655f87b777000170d85a","study_id":"605e2a800ccfa0c8e820d869","session_id":"6062209988c5b5abd892a93e"},{"rt":2287.2600000009406,"stimulus":"img/00460.png","slider_start":4,"response":3,"trial_type":"image-slider-response","trial_index":159,"time_elapsed":578424,"internal_node_id":"0.0-3.0-0.156","subject_id":"5c35655f87b777000170d85a","study_id":"605e2a800ccfa0c8e820d869","session_id":"6062209988c5b5abd892a93e"},{"rt":2433.939999999013,"stimulus":"img/00454.png","slider_start":4,"response":3,"trial_type":"image-slider-response","trial_index":160,"time_elapsed":580861,"internal_node_id":"0.0-3.0-0.157","subject_id":"5c35655f87b777000170d85a","study_id":"605e2a800ccfa0c8e820d869","session_id":"6062209988c5b5abd892a93e"},{"rt":2898.0549999978393,"stimulus":"img/00690.png","slider_start":4,"response":2,"trial_type":"image-slider-response","trial_index":161,"time_elapsed":583762,"internal_node_id":"0.0-3.0-0.158","subject_id":"5c35655f87b777000170d85a","study_id":"605e2a800ccfa0c8e820d869","session_id":"6062209988c5b5abd892a93e"},{"rt":2581.394999997341,"stimulus":"img/00756.png","slider_start":4,"response":4,"trial_type":"image-slider-response","trial_index":162,"time_elapsed":586347,"internal_node_id":"0.0-3.0-0.159","subject_id":"5c35655f87b777000170d85a","study_id":"605e2a800ccfa0c8e820d869","session_id":"6062209988c5b5abd892a93e"},{"rt":4118.975000001257,"stimulus":"img/00581.png","slider_start":4,"response":3,"trial_type":"image-slider-response","trial_index":163,"time_elapsed":590469,"internal_node_id":"0.0-3.0-0.160","subject_id":"5c35655f87b777000170d85a","study_id":"605e2a800ccfa0c8e820d869","session_id":"6062209988c5b5abd892a93e"},{"rt":3334.25999999966,"stimulus":"img/00052.png","slider_start":4,"response":2,"trial_type":"image-slider-response","trial_index":164,"time_elapsed":593806,"internal_node_id":"0.0-3.0-0.161","subject_id":"5c35655f87b777000170d85a","study_id":"605e2a800ccfa0c8e820d869","session_id":"6062209988c5b5abd892a93e"},{"rt":3654.385000001639,"stimulus":"img/00867.png","slider_start":4,"response":4,"trial_type":"image-slider-response","trial_index":165,"time_elapsed":597464,"internal_node_id":"0.0-3.0-0.162","subject_id":"5c35655f87b777000170d85a","study_id":"605e2a800ccfa0c8e820d869","session_id":"6062209988c5b5abd892a93e"},{"rt":2473.4150000003865,"stimulus":"img/00833.png","slider_start":4,"response":4,"trial_type":"image-slider-response","trial_index":166,"time_elapsed":599942,"internal_node_id":"0.0-3.0-0.163","subject_id":"5c35655f87b777000170d85a","study_id":"605e2a800ccfa0c8e820d869","session_id":"6062209988c5b5abd892a93e"},{"rt":2962.0049999976764,"stimulus":"img/00023.png","slider_start":4,"response":3,"trial_type":"image-slider-response","trial_index":167,"time_elapsed":602907,"internal_node_id":"0.0-3.0-0.164","subject_id":"5c35655f87b777000170d85a","study_id":"605e2a800ccfa0c8e820d869","session_id":"6062209988c5b5abd892a93e"},{"rt":6872.905000000261,"stimulus":"img/00768.png","slider_start":4,"response":4,"trial_type":"image-slider-response","trial_index":168,"time_elapsed":609783,"internal_node_id":"0.0-3.0-0.165","subject_id":"5c35655f87b777000170d85a","study_id":"605e2a800ccfa0c8e820d869","session_id":"6062209988c5b5abd892a93e"},{"rt":1949.219999998575,"stimulus":"img/00100.png","slider_start":4,"response":3,"trial_type":"image-slider-response","trial_index":169,"time_elapsed":611736,"internal_node_id":"0.0-3.0-0.166","subject_id":"5c35655f87b777000170d85a","study_id":"605e2a800ccfa0c8e820d869","session_id":"6062209988c5b5abd892a93e"},{"rt":3134.1300000021,"stimulus":"img/00810.png","slider_start":4,"response":3,"trial_type":"image-slider-response","trial_index":170,"time_elapsed":614873,"internal_node_id":"0.0-3.0-0.167","subject_id":"5c35655f87b777000170d85a","study_id":"605e2a800ccfa0c8e820d869","session_id":"6062209988c5b5abd892a93e"},{"rt":2473.9949999966193,"stimulus":"img/00761.png","slider_start":4,"response":2,"trial_type":"image-slider-response","trial_index":171,"time_elapsed":617350,"internal_node_id":"0.0-3.0-0.168","subject_id":"5c35655f87b777000170d85a","study_id":"605e2a800ccfa0c8e820d869","session_id":"6062209988c5b5abd892a93e"},{"rt":4563.160000001546,"stimulus":"img/00686.png","slider_start":4,"response":5,"trial_type":"image-slider-response","trial_index":172,"time_elapsed":621916,"internal_node_id":"0.0-3.0-0.169","subject_id":"5c35655f87b777000170d85a","study_id":"605e2a800ccfa0c8e820d869","session_id":"6062209988c5b5abd892a93e"},{"rt":3573.489999998943,"stimulus":"img/40.png","slider_start":4,"response":3,"trial_type":"image-slider-response","trial_index":173,"time_elapsed":625494,"internal_node_id":"0.0-3.0-0.170","subject_id":"5c35655f87b777000170d85a","study_id":"605e2a800ccfa0c8e820d869","session_id":"6062209988c5b5abd892a93e"},{"rt":2942.350000001141,"stimulus":"img/00522.png","slider_start":4,"response":3,"trial_type":"image-slider-response","trial_index":174,"time_elapsed":628440,"internal_node_id":"0.0-3.0-0.171","subject_id":"5c35655f87b777000170d85a","study_id":"605e2a800ccfa0c8e820d869","session_id":"6062209988c5b5abd892a93e"}]