[{"rt":2635.1500000455417,"stimulus":"Welcome to the experiment. Press any key to begin.","response":" ","trial_type":"html-keyboard-response","trial_index":0,"time_elapsed":2636,"internal_node_id":"0.0-0.0","subject_id":"5f0748618f7d2e100867b042","study_id":"605e2a800ccfa0c8e820d869","session_id":"60622098f96e2cfde257d893"},{"rt":6972.26499998942,"stimulus":"\n        <p>In this experiment, a face will appear on-screen.</p><p> <strong>Rate the face on a 1 - 7 scale based on how attractive he / she is.</strong> </p>\n        </div>\n        <p>Press any key to begin.</p>\n      ","response":" ","trial_type":"html-keyboard-response","trial_index":1,"time_elapsed":9609,"internal_node_id":"0.0-1.0","subject_id":"5f0748618f7d2e100867b042","study_id":"605e2a800ccfa0c8e820d869","session_id":"60622098f96e2cfde257d893"},{"success":true,"timeout":false,"failed_images":[],"failed_audio":[],"failed_video":[],"trial_type":"preload","trial_index":2,"time_elapsed":151499,"internal_node_id":"0.0-2.0","subject_id":"5f0748618f7d2e100867b042","study_id":"605e2a800ccfa0c8e820d869","session_id":"60622098f96e2cfde257d893"},{"rt":38788.21999998763,"stimulus":"img/00415.png","slider_start":4,"response":3,"trial_type":"image-slider-response","trial_index":3,"time_elapsed":190302,"internal_node_id":"0.0-3.0-0.0","subject_id":"5f0748618f7d2e100867b042","study_id":"605e2a800ccfa0c8e820d869","session_id":"60622098f96e2cfde257d893"},{"rt":13810.219999984838,"stimulus":"img/00956.png","slider_start":4,"response":5,"trial_type":"image-slider-response","trial_index":4,"time_elapsed":204117,"internal_node_id":"0.0-3.0-0.1","subject_id":"5f0748618f7d2e100867b042","study_id":"605e2a800ccfa0c8e820d869","session_id":"60622098f96e2cfde257d893"},{"rt":7580.345000023954,"stimulus":"img/00006.png","slider_start":4,"response":5,"trial_type":"image-slider-response","trial_index":5,"time_elapsed":211701,"internal_node_id":"0.0-3.0-0.2","subject_id":"5f0748618f7d2e100867b042","study_id":"605e2a800ccfa0c8e820d869","session_id":"60622098f96e2cfde257d893"},{"rt":12032.835000019986,"stimulus":"img/00042.png","slider_start":4,"response":3,"trial_type":"image-slider-response","trial_index":6,"time_elapsed":223739,"internal_node_id":"0.0-3.0-0.3","subject_id":"5f0748618f7d2e100867b042","study_id":"605e2a800ccfa0c8e820d869","session_id":"60622098f96e2cfde257d893"},{"rt":5199.115000024904,"stimulus":"img/00748.png","slider_start":4,"response":2,"trial_type":"image-slider-response","trial_index":7,"time_elapsed":228943,"internal_node_id":"0.0-3.0-0.4","subject_id":"5f0748618f7d2e100867b042","study_id":"605e2a800ccfa0c8e820d869","session_id":"60622098f96e2cfde257d893"},{"rt":6015.225000039209,"stimulus":"img/00799.png","slider_start":4,"response":5,"trial_type":"image-slider-response","trial_index":8,"time_elapsed":234965,"internal_node_id":"0.0-3.0-0.5","subject_id":"5f0748618f7d2e100867b042","study_id":"605e2a800ccfa0c8e820d869","session_id":"60622098f96e2cfde257d893"},{"rt":5690.119999984745,"stimulus":"img/00825.png","slider_start":4,"response":3,"trial_type":"image-slider-response","trial_index":9,"time_elapsed":240661,"internal_node_id":"0.0-3.0-0.6","subject_id":"5f0748618f7d2e100867b042","study_id":"605e2a800ccfa0c8e820d869","session_id":"60622098f96e2cfde257d893"},{"rt":4496.404999983497,"stimulus":"img/00018.png","slider_start":4,"response":5,"trial_type":"image-slider-response","trial_index":10,"time_elapsed":245162,"internal_node_id":"0.0-3.0-0.7","subject_id":"5f0748618f7d2e100867b042","study_id":"605e2a800ccfa0c8e820d869","session_id":"60622098f96e2cfde257d893"},{"rt":5589.14499997627,"stimulus":"img/00951.png","slider_start":4,"response":5,"trial_type":"image-slider-response","trial_index":11,"time_elapsed":250757,"internal_node_id":"0.0-3.0-0.8","subject_id":"5f0748618f7d2e100867b042","study_id":"605e2a800ccfa0c8e820d869","session_id":"60622098f96e2cfde257d893"},{"rt":4328.890000004321,"stimulus":"img/00898.png","slider_start":4,"response":5,"trial_type":"image-slider-response","trial_index":12,"time_elapsed":255092,"internal_node_id":"0.0-3.0-0.9","subject_id":"5f0748618f7d2e100867b042","study_id":"605e2a800ccfa0c8e820d869","session_id":"60622098f96e2cfde257d893"},{"rt":5201.720000011846,"stimulus":"img/00930.png","slider_start":4,"response":5,"trial_type":"image-slider-response","trial_index":13,"time_elapsed":260299,"internal_node_id":"0.0-3.0-0.10","subject_id":"5f0748618f7d2e100867b042","study_id":"605e2a800ccfa0c8e820d869","session_id":"60622098f96e2cfde257d893"},{"rt":4876.525000028778,"stimulus":"img/00896.png","slider_start":4,"response":3,"trial_type":"image-slider-response","trial_index":14,"time_elapsed":265181,"internal_node_id":"0.0-3.0-0.11","subject_id":"5f0748618f7d2e100867b042","study_id":"605e2a800ccfa0c8e820d869","session_id":"60622098f96e2cfde257d893"},{"rt":5867.150000005495,"stimulus":"img/00542.png","slider_start":4,"response":3,"trial_type":"image-slider-response","trial_index":15,"time_elapsed":271054,"internal_node_id":"0.0-3.0-0.12","subject_id":"5f0748618f7d2e100867b042","study_id":"605e2a800ccfa0c8e820d869","session_id":"60622098f96e2cfde257d893"},{"rt":5860.545000003185,"stimulus":"img/00779.png","slider_start":4,"response":5,"trial_type":"image-slider-response","trial_index":16,"time_elapsed":276919,"internal_node_id":"0.0-3.0-0.13","subject_id":"5f0748618f7d2e100867b042","study_id":"605e2a800ccfa0c8e820d869","session_id":"60622098f96e2cfde257d893"},{"rt":3743.6699999962,"stimulus":"img/00525.png","slider_start":4,"response":5,"trial_type":"image-slider-response","trial_index":17,"time_elapsed":280665,"internal_node_id":"0.0-3.0-0.14","subject_id":"5f0748618f7d2e100867b042","study_id":"605e2a800ccfa0c8e820d869","session_id":"60622098f96e2cfde257d893"},{"rt":5758.265000011306,"stimulus":"img/00809.png","slider_start":4,"response":5,"trial_type":"image-slider-response","trial_index":18,"time_elapsed":286429,"internal_node_id":"0.0-3.0-0.15","subject_id":"5f0748618f7d2e100867b042","study_id":"605e2a800ccfa0c8e820d869","session_id":"60622098f96e2cfde257d893"},{"rt":4407.219999993686,"stimulus":"img/00002.png","slider_start":4,"response":5,"trial_type":"image-slider-response","trial_index":19,"time_elapsed":290839,"internal_node_id":"0.0-3.0-0.16","subject_id":"5f0748618f7d2e100867b042","study_id":"605e2a800ccfa0c8e820d869","session_id":"60622098f96e2cfde257d893"},{"rt":3804.264999984298,"stimulus":"img/00773.png","slider_start":4,"response":5,"trial_type":"image-slider-response","trial_index":20,"time_elapsed":294648,"internal_node_id":"0.0-3.0-0.17","subject_id":"5f0748618f7d2e100867b042","study_id":"605e2a800ccfa0c8e820d869","session_id":"60622098f96e2cfde257d893"},{"rt":7505.744999973103,"stimulus":"img/00052.png","slider_start":4,"response":3,"trial_type":"image-slider-response","trial_index":21,"time_elapsed":302159,"internal_node_id":"0.0-3.0-0.18","subject_id":"5f0748618f7d2e100867b042","study_id":"605e2a800ccfa0c8e820d869","session_id":"60622098f96e2cfde257d893"},{"rt":12751.675000006799,"stimulus":"img/00691.png","slider_start":4,"response":3,"trial_type":"image-slider-response","trial_index":22,"time_elapsed":314916,"internal_node_id":"0.0-3.0-0.19","subject_id":"5f0748618f7d2e100867b042","study_id":"605e2a800ccfa0c8e820d869","session_id":"60622098f96e2cfde257d893"},{"rt":4601.825000019744,"stimulus":"img/00563.png","slider_start":4,"response":5,"trial_type":"image-slider-response","trial_index":23,"time_elapsed":319522,"internal_node_id":"0.0-3.0-0.20","subject_id":"5f0748618f7d2e100867b042","study_id":"605e2a800ccfa0c8e820d869","session_id":"60622098f96e2cfde257d893"},{"rt":5328.014999977313,"stimulus":"img/00833.png","slider_start":4,"response":6,"trial_type":"image-slider-response","trial_index":24,"time_elapsed":324853,"internal_node_id":"0.0-3.0-0.21","subject_id":"5f0748618f7d2e100867b042","study_id":"605e2a800ccfa0c8e820d869","session_id":"60622098f96e2cfde257d893"},{"rt":5323.090000019874,"stimulus":"img/00122.png","slider_start":4,"response":7,"trial_type":"image-slider-response","trial_index":25,"time_elapsed":330181,"internal_node_id":"0.0-3.0-0.22","subject_id":"5f0748618f7d2e100867b042","study_id":"605e2a800ccfa0c8e820d869","session_id":"60622098f96e2cfde257d893"},{"rt":7675.020000024233,"stimulus":"img/00037.png","slider_start":4,"response":6,"trial_type":"image-slider-response","trial_index":26,"time_elapsed":337862,"internal_node_id":"0.0-3.0-0.23","subject_id":"5f0748618f7d2e100867b042","study_id":"605e2a800ccfa0c8e820d869","session_id":"60622098f96e2cfde257d893"},{"rt":4691.859999962617,"stimulus":"img/00559.png","slider_start":4,"response":5,"trial_type":"image-slider-response","trial_index":27,"time_elapsed":342560,"internal_node_id":"0.0-3.0-0.24","subject_id":"5f0748618f7d2e100867b042","study_id":"605e2a800ccfa0c8e820d869","session_id":"60622098f96e2cfde257d893"},{"rt":4605.745000008028,"stimulus":"img/00078.png","slider_start":4,"response":2,"trial_type":"image-slider-response","trial_index":28,"time_elapsed":347172,"internal_node_id":"0.0-3.0-0.25","subject_id":"5f0748618f7d2e100867b042","study_id":"605e2a800ccfa0c8e820d869","session_id":"60622098f96e2cfde257d893"},{"rt":4154.210000007879,"stimulus":"img/00848.png","slider_start":4,"response":5,"trial_type":"image-slider-response","trial_index":29,"time_elapsed":351329,"internal_node_id":"0.0-3.0-0.26","subject_id":"5f0748618f7d2e100867b042","study_id":"605e2a800ccfa0c8e820d869","session_id":"60622098f96e2cfde257d893"},{"rt":3711.780000012368,"stimulus":"img/00986.png","slider_start":4,"response":3,"trial_type":"image-slider-response","trial_index":30,"time_elapsed":355043,"internal_node_id":"0.0-3.0-0.27","subject_id":"5f0748618f7d2e100867b042","study_id":"605e2a800ccfa0c8e820d869","session_id":"60622098f96e2cfde257d893"},{"rt":4300.470000016503,"stimulus":"img/00569.png","slider_start":4,"response":5,"trial_type":"image-slider-response","trial_index":31,"time_elapsed":359348,"internal_node_id":"0.0-3.0-0.28","subject_id":"5f0748618f7d2e100867b042","study_id":"605e2a800ccfa0c8e820d869","session_id":"60622098f96e2cfde257d893"},{"rt":9996.45999999484,"stimulus":"img/00690.png","slider_start":4,"response":5,"trial_type":"image-slider-response","trial_index":32,"time_elapsed":369351,"internal_node_id":"0.0-3.0-0.29","subject_id":"5f0748618f7d2e100867b042","study_id":"605e2a800ccfa0c8e820d869","session_id":"60622098f96e2cfde257d893"},{"rt":4418.019999982789,"stimulus":"img/00902.png","slider_start":4,"response":5,"trial_type":"image-slider-response","trial_index":33,"time_elapsed":373775,"internal_node_id":"0.0-3.0-0.30","subject_id":"5f0748618f7d2e100867b042","study_id":"605e2a800ccfa0c8e820d869","session_id":"60622098f96e2cfde257d893"},{"rt":8297.925000020768,"stimulus":"img/00760.png","slider_start":4,"response":3,"trial_type":"image-slider-response","trial_index":34,"time_elapsed":382077,"internal_node_id":"0.0-3.0-0.31","subject_id":"5f0748618f7d2e100867b042","study_id":"605e2a800ccfa0c8e820d869","session_id":"60622098f96e2cfde257d893"},{"rt":4243.904999981169,"stimulus":"img/00522.png","slider_start":4,"response":5,"trial_type":"image-slider-response","trial_index":35,"time_elapsed":386326,"internal_node_id":"0.0-3.0-0.32","subject_id":"5f0748618f7d2e100867b042","study_id":"605e2a800ccfa0c8e820d869","session_id":"60622098f96e2cfde257d893"},{"rt":4077.564999985043,"stimulus":"img/00129.png","slider_start":4,"response":7,"trial_type":"image-slider-response","trial_index":36,"time_elapsed":390406,"internal_node_id":"0.0-3.0-0.33","subject_id":"5f0748618f7d2e100867b042","study_id":"605e2a800ccfa0c8e820d869","session_id":"60622098f96e2cfde257d893"},{"rt":3844.180000014603,"stimulus":"img/00462.png","slider_start":4,"response":3,"trial_type":"image-slider-response","trial_index":37,"time_elapsed":394257,"internal_node_id":"0.0-3.0-0.34","subject_id":"5f0748618f7d2e100867b042","study_id":"605e2a800ccfa0c8e820d869","session_id":"60622098f96e2cfde257d893"},{"rt":3574.2500000051223,"stimulus":"img/00973.png","slider_start":4,"response":3,"trial_type":"image-slider-response","trial_index":38,"time_elapsed":397836,"internal_node_id":"0.0-3.0-0.35","subject_id":"5f0748618f7d2e100867b042","study_id":"605e2a800ccfa0c8e820d869","session_id":"60622098f96e2cfde257d893"},{"rt":3358.4200000041164,"stimulus":"img/00793.png","slider_start":4,"response":5,"trial_type":"image-slider-response","trial_index":39,"time_elapsed":401199,"internal_node_id":"0.0-3.0-0.36","subject_id":"5f0748618f7d2e100867b042","study_id":"605e2a800ccfa0c8e820d869","session_id":"60622098f96e2cfde257d893"},{"rt":5391.6999999783,"stimulus":"img/00913.png","slider_start":4,"response":5,"trial_type":"image-slider-response","trial_index":40,"time_elapsed":406596,"internal_node_id":"0.0-3.0-0.37","subject_id":"5f0748618f7d2e100867b042","study_id":"605e2a800ccfa0c8e820d869","session_id":"60622098f96e2cfde257d893"},{"rt":3900.0900000100955,"stimulus":"img/00581.png","slider_start":4,"response":2,"trial_type":"image-slider-response","trial_index":41,"time_elapsed":410502,"internal_node_id":"0.0-3.0-0.38","subject_id":"5f0748618f7d2e100867b042","study_id":"605e2a800ccfa0c8e820d869","session_id":"60622098f96e2cfde257d893"},{"rt":3281.2449999619275,"stimulus":"img/00576.png","slider_start":4,"response":7,"trial_type":"image-slider-response","trial_index":42,"time_elapsed":413788,"internal_node_id":"0.0-3.0-0.39","subject_id":"5f0748618f7d2e100867b042","study_id":"605e2a800ccfa0c8e820d869","session_id":"60622098f96e2cfde257d893"},{"rt":6830.850000027567,"stimulus":"img/00048.png","slider_start":4,"response":1,"trial_type":"image-slider-response","trial_index":43,"time_elapsed":420625,"internal_node_id":"0.0-3.0-0.40","subject_id":"5f0748618f7d2e100867b042","study_id":"605e2a800ccfa0c8e820d869","session_id":"60622098f96e2cfde257d893"},{"rt":3875.0399999553338,"stimulus":"img/00100.png","slider_start":4,"response":2,"trial_type":"image-slider-response","trial_index":44,"time_elapsed":424504,"internal_node_id":"0.0-3.0-0.41","subject_id":"5f0748618f7d2e100867b042","study_id":"605e2a800ccfa0c8e820d869","session_id":"60622098f96e2cfde257d893"},{"rt":4248.059999954421,"stimulus":"img/00472.png","slider_start":4,"response":5,"trial_type":"image-slider-response","trial_index":45,"time_elapsed":428758,"internal_node_id":"0.0-3.0-0.42","subject_id":"5f0748618f7d2e100867b042","study_id":"605e2a800ccfa0c8e820d869","session_id":"60622098f96e2cfde257d893"},{"rt":3394.8100000270642,"stimulus":"img/00511.png","slider_start":4,"response":3,"trial_type":"image-slider-response","trial_index":46,"time_elapsed":432159,"internal_node_id":"0.0-3.0-0.43","subject_id":"5f0748618f7d2e100867b042","study_id":"605e2a800ccfa0c8e820d869","session_id":"60622098f96e2cfde257d893"},{"rt":3955.84000000963,"stimulus":"img/00731.png","slider_start":4,"response":3,"trial_type":"image-slider-response","trial_index":47,"time_elapsed":436119,"internal_node_id":"0.0-3.0-0.44","subject_id":"5f0748618f7d2e100867b042","study_id":"605e2a800ccfa0c8e820d869","session_id":"60622098f96e2cfde257d893"},{"rt":3849.0699999965727,"stimulus":"img/00405.png","slider_start":4,"response":5,"trial_type":"image-slider-response","trial_index":48,"time_elapsed":439973,"internal_node_id":"0.0-3.0-0.45","subject_id":"5f0748618f7d2e100867b042","study_id":"605e2a800ccfa0c8e820d869","session_id":"60622098f96e2cfde257d893"},{"rt":5351.7200000351295,"stimulus":"img/00564.png","slider_start":4,"response":5,"trial_type":"image-slider-response","trial_index":49,"time_elapsed":445331,"internal_node_id":"0.0-3.0-0.46","subject_id":"5f0748618f7d2e100867b042","study_id":"605e2a800ccfa0c8e820d869","session_id":"60622098f96e2cfde257d893"},{"rt":2799.9800000106916,"stimulus":"img/00618.png","slider_start":4,"response":7,"trial_type":"image-slider-response","trial_index":50,"time_elapsed":448136,"internal_node_id":"0.0-3.0-0.47","subject_id":"5f0748618f7d2e100867b042","study_id":"605e2a800ccfa0c8e820d869","session_id":"60622098f96e2cfde257d893"},{"rt":6498.20000003092,"stimulus":"img/00113.png","slider_start":4,"response":5,"trial_type":"image-slider-response","trial_index":51,"time_elapsed":454641,"internal_node_id":"0.0-3.0-0.48","subject_id":"5f0748618f7d2e100867b042","study_id":"605e2a800ccfa0c8e820d869","session_id":"60622098f96e2cfde257d893"},{"rt":5046.5649999678135,"stimulus":"img/00114.png","slider_start":4,"response":3,"trial_type":"image-slider-response","trial_index":52,"time_elapsed":459694,"internal_node_id":"0.0-3.0-0.49","subject_id":"5f0748618f7d2e100867b042","study_id":"605e2a800ccfa0c8e820d869","session_id":"60622098f96e2cfde257d893"},{"rt":4404.820000054315,"stimulus":"img/00780.png","slider_start":4,"response":5,"trial_type":"image-slider-response","trial_index":53,"time_elapsed":464104,"internal_node_id":"0.0-3.0-0.50","subject_id":"5f0748618f7d2e100867b042","study_id":"605e2a800ccfa0c8e820d869","session_id":"60622098f96e2cfde257d893"},{"rt":4595.519999973476,"stimulus":"img/00631.png","slider_start":4,"response":5,"trial_type":"image-slider-response","trial_index":54,"time_elapsed":468706,"internal_node_id":"0.0-3.0-0.51","subject_id":"5f0748618f7d2e100867b042","study_id":"605e2a800ccfa0c8e820d869","session_id":"60622098f96e2cfde257d893"},{"rt":7913.219999987632,"stimulus":"img/00015.png","slider_start":4,"response":3,"trial_type":"image-slider-response","trial_index":55,"time_elapsed":476621,"internal_node_id":"0.0-3.0-0.52","subject_id":"5f0748618f7d2e100867b042","study_id":"605e2a800ccfa0c8e820d869","session_id":"60622098f96e2cfde257d893"},{"rt":7318.389999971259,"stimulus":"img/00126.png","slider_start":4,"response":2,"trial_type":"image-slider-response","trial_index":56,"time_elapsed":483945,"internal_node_id":"0.0-3.0-0.53","subject_id":"5f0748618f7d2e100867b042","study_id":"605e2a800ccfa0c8e820d869","session_id":"60622098f96e2cfde257d893"},{"rt":3898.329999996349,"stimulus":"img/00629.png","slider_start":4,"response":2,"trial_type":"image-slider-response","trial_index":57,"time_elapsed":487847,"internal_node_id":"0.0-3.0-0.54","subject_id":"5f0748618f7d2e100867b042","study_id":"605e2a800ccfa0c8e820d869","session_id":"60622098f96e2cfde257d893"},{"rt":3632.400000002235,"stimulus":"img/00842.png","slider_start":4,"response":7,"trial_type":"image-slider-response","trial_index":58,"time_elapsed":491482,"internal_node_id":"0.0-3.0-0.55","subject_id":"5f0748618f7d2e100867b042","study_id":"605e2a800ccfa0c8e820d869","session_id":"60622098f96e2cfde257d893"},{"rt":4410.994999983814,"stimulus":"img/00064.png","slider_start":4,"response":5,"trial_type":"image-slider-response","trial_index":59,"time_elapsed":495895,"internal_node_id":"0.0-3.0-0.56","subject_id":"5f0748618f7d2e100867b042","study_id":"605e2a800ccfa0c8e820d869","session_id":"60622098f96e2cfde257d893"},{"rt":4074.4549999944866,"stimulus":"img/00561.png","slider_start":4,"response":2,"trial_type":"image-slider-response","trial_index":60,"time_elapsed":499974,"internal_node_id":"0.0-3.0-0.57","subject_id":"5f0748618f7d2e100867b042","study_id":"605e2a800ccfa0c8e820d869","session_id":"60622098f96e2cfde257d893"},{"rt":3634.889999986626,"stimulus":"img/00496.png","slider_start":4,"response":7,"trial_type":"image-slider-response","trial_index":61,"time_elapsed":503614,"internal_node_id":"0.0-3.0-0.58","subject_id":"5f0748618f7d2e100867b042","study_id":"605e2a800ccfa0c8e820d869","session_id":"60622098f96e2cfde257d893"},{"rt":10640.005000052042,"stimulus":"img/00127.png","slider_start":4,"response":2,"trial_type":"image-slider-response","trial_index":62,"time_elapsed":514260,"internal_node_id":"0.0-3.0-0.59","subject_id":"5f0748618f7d2e100867b042","study_id":"605e2a800ccfa0c8e820d869","session_id":"60622098f96e2cfde257d893"},{"rt":702.9650000040419,"stimulus":"img/00791.png","slider_start":4,"response":4,"trial_type":"image-slider-response","trial_index":63,"time_elapsed":514968,"internal_node_id":"0.0-3.0-0.60","subject_id":"5f0748618f7d2e100867b042","study_id":"605e2a800ccfa0c8e820d869","session_id":"60622098f96e2cfde257d893"},{"rt":220.10500001488253,"stimulus":"img/00424.png","slider_start":4,"response":4,"trial_type":"image-slider-response","trial_index":64,"time_elapsed":515194,"internal_node_id":"0.0-3.0-0.61","subject_id":"5f0748618f7d2e100867b042","study_id":"605e2a800ccfa0c8e820d869","session_id":"60622098f96e2cfde257d893"},{"rt":5596.075000008568,"stimulus":"img/00810.png","slider_start":4,"response":3,"trial_type":"image-slider-response","trial_index":65,"time_elapsed":520795,"internal_node_id":"0.0-3.0-0.62","subject_id":"5f0748618f7d2e100867b042","study_id":"605e2a800ccfa0c8e820d869","session_id":"60622098f96e2cfde257d893"},{"rt":9006.660000013653,"stimulus":"img/00722.png","slider_start":4,"response":5,"trial_type":"image-slider-response","trial_index":66,"time_elapsed":529807,"internal_node_id":"0.0-3.0-0.63","subject_id":"5f0748618f7d2e100867b042","study_id":"605e2a800ccfa0c8e820d869","session_id":"60622098f96e2cfde257d893"},{"rt":13023.585000017192,"stimulus":"img/00801.png","slider_start":4,"response":2,"trial_type":"image-slider-response","trial_index":67,"time_elapsed":542836,"internal_node_id":"0.0-3.0-0.64","subject_id":"5f0748618f7d2e100867b042","study_id":"605e2a800ccfa0c8e820d869","session_id":"60622098f96e2cfde257d893"},{"rt":7912.629999977071,"stimulus":"img/00012.png","slider_start":4,"response":2,"trial_type":"image-slider-response","trial_index":68,"time_elapsed":550754,"internal_node_id":"0.0-3.0-0.65","subject_id":"5f0748618f7d2e100867b042","study_id":"605e2a800ccfa0c8e820d869","session_id":"60622098f96e2cfde257d893"},{"rt":8422.879999969155,"stimulus":"img/00101.png","slider_start":4,"response":2,"trial_type":"image-slider-response","trial_index":69,"time_elapsed":559182,"internal_node_id":"0.0-3.0-0.66","subject_id":"5f0748618f7d2e100867b042","study_id":"605e2a800ccfa0c8e820d869","session_id":"60622098f96e2cfde257d893"},{"rt":5730.894999986049,"stimulus":"img/00761.png","slider_start":4,"response":5,"trial_type":"image-slider-response","trial_index":70,"time_elapsed":564918,"internal_node_id":"0.0-3.0-0.67","subject_id":"5f0748618f7d2e100867b042","study_id":"605e2a800ccfa0c8e820d869","session_id":"60622098f96e2cfde257d893"},{"rt":4850.7749999989755,"stimulus":"img/00437.png","slider_start":4,"response":2,"trial_type":"image-slider-response","trial_index":71,"time_elapsed":569775,"internal_node_id":"0.0-3.0-0.68","subject_id":"5f0748618f7d2e100867b042","study_id":"605e2a800ccfa0c8e820d869","session_id":"60622098f96e2cfde257d893"},{"rt":7800.084999995306,"stimulus":"img/00957.png","slider_start":4,"response":2,"trial_type":"image-slider-response","trial_index":72,"time_elapsed":577578,"internal_node_id":"0.0-3.0-0.69","subject_id":"5f0748618f7d2e100867b042","study_id":"605e2a800ccfa0c8e820d869","session_id":"60622098f96e2cfde257d893"},{"rt":5920.065000012983,"stimulus":"img/00499.png","slider_start":4,"response":2,"trial_type":"image-slider-response","trial_index":73,"time_elapsed":583503,"internal_node_id":"0.0-3.0-0.70","subject_id":"5f0748618f7d2e100867b042","study_id":"605e2a800ccfa0c8e820d869","session_id":"60622098f96e2cfde257d893"},{"rt":10003.595000016503,"stimulus":"img/00879.png","slider_start":4,"response":7,"trial_type":"image-slider-response","trial_index":74,"time_elapsed":593511,"internal_node_id":"0.0-3.0-0.71","subject_id":"5f0748618f7d2e100867b042","study_id":"605e2a800ccfa0c8e820d869","session_id":"60622098f96e2cfde257d893"},{"rt":6748.00999998115,"stimulus":"img/00478.png","slider_start":4,"response":2,"trial_type":"image-slider-response","trial_index":75,"time_elapsed":600265,"internal_node_id":"0.0-3.0-0.72","subject_id":"5f0748618f7d2e100867b042","study_id":"605e2a800ccfa0c8e820d869","session_id":"60622098f96e2cfde257d893"},{"rt":13520.534999959636,"stimulus":"img/00686.png","slider_start":4,"response":7,"trial_type":"image-slider-response","trial_index":76,"time_elapsed":613792,"internal_node_id":"0.0-3.0-0.73","subject_id":"5f0748618f7d2e100867b042","study_id":"605e2a800ccfa0c8e820d869","session_id":"60622098f96e2cfde257d893"},{"rt":6687.689999991562,"stimulus":"img/00507.png","slider_start":4,"response":2,"trial_type":"image-slider-response","trial_index":77,"time_elapsed":620486,"internal_node_id":"0.0-3.0-0.74","subject_id":"5f0748618f7d2e100867b042","study_id":"605e2a800ccfa0c8e820d869","session_id":"60622098f96e2cfde257d893"},{"rt":3268.9549999777228,"stimulus":"img/00747.png","slider_start":4,"response":5,"trial_type":"image-slider-response","trial_index":78,"time_elapsed":623758,"internal_node_id":"0.0-3.0-0.75","subject_id":"5f0748618f7d2e100867b042","study_id":"605e2a800ccfa0c8e820d869","session_id":"60622098f96e2cfde257d893"},{"rt":4365.344999998342,"stimulus":"img/00466.png","slider_start":4,"response":3,"trial_type":"image-slider-response","trial_index":79,"time_elapsed":628128,"internal_node_id":"0.0-3.0-0.76","subject_id":"5f0748618f7d2e100867b042","study_id":"605e2a800ccfa0c8e820d869","session_id":"60622098f96e2cfde257d893"},{"rt":2930.7100000442006,"stimulus":"img/00850.png","slider_start":4,"response":3,"trial_type":"image-slider-response","trial_index":80,"time_elapsed":631064,"internal_node_id":"0.0-3.0-0.77","subject_id":"5f0748618f7d2e100867b042","study_id":"605e2a800ccfa0c8e820d869","session_id":"60622098f96e2cfde257d893"},{"rt":4042.9299999959767,"stimulus":"img/00688.png","slider_start":4,"response":5,"trial_type":"image-slider-response","trial_index":81,"time_elapsed":635112,"internal_node_id":"0.0-3.0-0.78","subject_id":"5f0748618f7d2e100867b042","study_id":"605e2a800ccfa0c8e820d869","session_id":"60622098f96e2cfde257d893"},{"rt":3583.024999999907,"stimulus":"img/00439.png","slider_start":4,"response":3,"trial_type":"image-slider-response","trial_index":82,"time_elapsed":638701,"internal_node_id":"0.0-3.0-0.79","subject_id":"5f0748618f7d2e100867b042","study_id":"605e2a800ccfa0c8e820d869","session_id":"60622098f96e2cfde257d893"},{"rt":3138.0499999504536,"stimulus":"img/00549.png","slider_start":4,"response":3,"trial_type":"image-slider-response","trial_index":83,"time_elapsed":641841,"internal_node_id":"0.0-3.0-0.80","subject_id":"5f0748618f7d2e100867b042","study_id":"605e2a800ccfa0c8e820d869","session_id":"60622098f96e2cfde257d893"},{"rt":3176.824999973178,"stimulus":"img/00454.png","slider_start":4,"response":3,"trial_type":"image-slider-response","trial_index":84,"time_elapsed":645023,"internal_node_id":"0.0-3.0-0.81","subject_id":"5f0748618f7d2e100867b042","study_id":"605e2a800ccfa0c8e820d869","session_id":"60622098f96e2cfde257d893"},{"rt":3556.5000000060536,"stimulus":"img/00612.png","slider_start":4,"response":3,"trial_type":"image-slider-response","trial_index":85,"time_elapsed":648581,"internal_node_id":"0.0-3.0-0.82","subject_id":"5f0748618f7d2e100867b042","study_id":"605e2a800ccfa0c8e820d869","session_id":"60622098f96e2cfde257d893"},{"rt":4728.019999980461,"stimulus":"img/00432.png","slider_start":4,"response":7,"trial_type":"image-slider-response","trial_index":86,"time_elapsed":653315,"internal_node_id":"0.0-3.0-0.83","subject_id":"5f0748618f7d2e100867b042","study_id":"605e2a800ccfa0c8e820d869","session_id":"60622098f96e2cfde257d893"},{"rt":3580.5200000177138,"stimulus":"img/00077.png","slider_start":4,"response":5,"trial_type":"image-slider-response","trial_index":87,"time_elapsed":656900,"internal_node_id":"0.0-3.0-0.84","subject_id":"5f0748618f7d2e100867b042","study_id":"605e2a800ccfa0c8e820d869","session_id":"60622098f96e2cfde257d893"},{"rt":4396.490000013728,"stimulus":"img/00543.png","slider_start":4,"response":5,"trial_type":"image-slider-response","trial_index":88,"time_elapsed":661301,"internal_node_id":"0.0-3.0-0.85","subject_id":"5f0748618f7d2e100867b042","study_id":"605e2a800ccfa0c8e820d869","session_id":"60622098f96e2cfde257d893"},{"rt":3408.235000038985,"stimulus":"img/00841.png","slider_start":4,"response":7,"trial_type":"image-slider-response","trial_index":89,"time_elapsed":664714,"internal_node_id":"0.0-3.0-0.86","subject_id":"5f0748618f7d2e100867b042","study_id":"605e2a800ccfa0c8e820d869","session_id":"60622098f96e2cfde257d893"},{"rt":5313.6349999695085,"stimulus":"img/00797.png","slider_start":4,"response":5,"trial_type":"image-slider-response","trial_index":90,"time_elapsed":670032,"internal_node_id":"0.0-3.0-0.87","subject_id":"5f0748618f7d2e100867b042","study_id":"605e2a800ccfa0c8e820d869","session_id":"60622098f96e2cfde257d893"},{"rt":4579.954999964684,"stimulus":"img/00752.png","slider_start":4,"response":5,"trial_type":"image-slider-response","trial_index":91,"time_elapsed":674618,"internal_node_id":"0.0-3.0-0.88","subject_id":"5f0748618f7d2e100867b042","study_id":"605e2a800ccfa0c8e820d869","session_id":"60622098f96e2cfde257d893"},{"rt":3872.940000030212,"stimulus":"img/00755.png","slider_start":4,"response":5,"trial_type":"image-slider-response","trial_index":92,"time_elapsed":678494,"internal_node_id":"0.0-3.0-0.89","subject_id":"5f0748618f7d2e100867b042","study_id":"605e2a800ccfa0c8e820d869","session_id":"60622098f96e2cfde257d893"},{"rt":4630.315000016708,"stimulus":"img/00418.png","slider_start":4,"response":5,"trial_type":"image-slider-response","trial_index":93,"time_elapsed":683130,"internal_node_id":"0.0-3.0-0.90","subject_id":"5f0748618f7d2e100867b042","study_id":"605e2a800ccfa0c8e820d869","session_id":"60622098f96e2cfde257d893"},{"rt":3312.529999995604,"stimulus":"img/00867.png","slider_start":4,"response":3,"trial_type":"image-slider-response","trial_index":94,"time_elapsed":686447,"internal_node_id":"0.0-3.0-0.91","subject_id":"5f0748618f7d2e100867b042","study_id":"605e2a800ccfa0c8e820d869","session_id":"60622098f96e2cfde257d893"},{"rt":6751.965000003111,"stimulus":"img/00481.png","slider_start":4,"response":7,"trial_type":"image-slider-response","trial_index":95,"time_elapsed":693206,"internal_node_id":"0.0-3.0-0.92","subject_id":"5f0748618f7d2e100867b042","study_id":"605e2a800ccfa0c8e820d869","session_id":"60622098f96e2cfde257d893"},{"rt":4017.084999999497,"stimulus":"img/00817.png","slider_start":4,"response":5,"trial_type":"image-slider-response","trial_index":96,"time_elapsed":697229,"internal_node_id":"0.0-3.0-0.93","subject_id":"5f0748618f7d2e100867b042","study_id":"605e2a800ccfa0c8e820d869","session_id":"60622098f96e2cfde257d893"},{"rt":6628.480000013951,"stimulus":"img/00600.png","slider_start":4,"response":3,"trial_type":"image-slider-response","trial_index":97,"time_elapsed":703862,"internal_node_id":"0.0-3.0-0.94","subject_id":"5f0748618f7d2e100867b042","study_id":"605e2a800ccfa0c8e820d869","session_id":"60622098f96e2cfde257d893"},{"rt":3325.2900000079535,"stimulus":"img/00594.png","slider_start":4,"response":5,"trial_type":"image-slider-response","trial_index":98,"time_elapsed":707191,"internal_node_id":"0.0-3.0-0.95","subject_id":"5f0748618f7d2e100867b042","study_id":"605e2a800ccfa0c8e820d869","session_id":"60622098f96e2cfde257d893"},{"rt":6821.9999999855645,"stimulus":"img/00105.png","slider_start":4,"response":5,"trial_type":"image-slider-response","trial_index":99,"time_elapsed":714018,"internal_node_id":"0.0-3.0-0.96","subject_id":"5f0748618f7d2e100867b042","study_id":"605e2a800ccfa0c8e820d869","session_id":"60622098f96e2cfde257d893"},{"rt":3388.154999993276,"stimulus":"img/00413.png","slider_start":4,"response":3,"trial_type":"image-slider-response","trial_index":100,"time_elapsed":717412,"internal_node_id":"0.0-3.0-0.97","subject_id":"5f0748618f7d2e100867b042","study_id":"605e2a800ccfa0c8e820d869","session_id":"60622098f96e2cfde257d893"},{"rt":8359.689999953844,"stimulus":"img/40.png","slider_start":4,"response":5,"trial_type":"image-slider-response","trial_index":101,"time_elapsed":725777,"internal_node_id":"0.0-3.0-0.98","subject_id":"5f0748618f7d2e100867b042","study_id":"605e2a800ccfa0c8e820d869","session_id":"60622098f96e2cfde257d893"},{"rt":6017.519999993965,"stimulus":"img/00742.png","slider_start":4,"response":6,"trial_type":"image-slider-response","trial_index":102,"time_elapsed":731799,"internal_node_id":"0.0-3.0-0.99","subject_id":"5f0748618f7d2e100867b042","study_id":"605e2a800ccfa0c8e820d869","session_id":"60622098f96e2cfde257d893"},{"rt":3224.9549999833107,"stimulus":"img/00401.png","slider_start":4,"response":3,"trial_type":"image-slider-response","trial_index":103,"time_elapsed":735026,"internal_node_id":"0.0-3.0-0.100","subject_id":"5f0748618f7d2e100867b042","study_id":"605e2a800ccfa0c8e820d869","session_id":"60622098f96e2cfde257d893"},{"rt":9188.450000016019,"stimulus":"img/00079.png","slider_start":4,"response":6,"trial_type":"image-slider-response","trial_index":104,"time_elapsed":744216,"internal_node_id":"0.0-3.0-0.101","subject_id":"5f0748618f7d2e100867b042","study_id":"605e2a800ccfa0c8e820d869","session_id":"60622098f96e2cfde257d893"},{"rt":3764.575000037439,"stimulus":"img/00708.png","slider_start":4,"response":6,"trial_type":"image-slider-response","trial_index":105,"time_elapsed":747987,"internal_node_id":"0.0-3.0-0.102","subject_id":"5f0748618f7d2e100867b042","study_id":"605e2a800ccfa0c8e820d869","session_id":"60622098f96e2cfde257d893"},{"rt":3106.8300000042655,"stimulus":"img/00440.png","slider_start":4,"response":3,"trial_type":"image-slider-response","trial_index":106,"time_elapsed":751099,"internal_node_id":"0.0-3.0-0.103","subject_id":"5f0748618f7d2e100867b042","study_id":"605e2a800ccfa0c8e820d869","session_id":"60622098f96e2cfde257d893"},{"rt":4035.665000032168,"stimulus":"img/00759.png","slider_start":4,"response":5,"trial_type":"image-slider-response","trial_index":107,"time_elapsed":755136,"internal_node_id":"0.0-3.0-0.104","subject_id":"5f0748618f7d2e100867b042","study_id":"605e2a800ccfa0c8e820d869","session_id":"60622098f96e2cfde257d893"},{"rt":4206.614999973681,"stimulus":"img/00029.png","slider_start":4,"response":5,"trial_type":"image-slider-response","trial_index":108,"time_elapsed":759348,"internal_node_id":"0.0-3.0-0.105","subject_id":"5f0748618f7d2e100867b042","study_id":"605e2a800ccfa0c8e820d869","session_id":"60622098f96e2cfde257d893"},{"rt":3333.314999996219,"stimulus":"img/00768.png","slider_start":4,"response":3,"trial_type":"image-slider-response","trial_index":109,"time_elapsed":762684,"internal_node_id":"0.0-3.0-0.106","subject_id":"5f0748618f7d2e100867b042","study_id":"605e2a800ccfa0c8e820d869","session_id":"60622098f96e2cfde257d893"},{"rt":4701.20999997016,"stimulus":"img/00991.png","slider_start":4,"response":5,"trial_type":"image-slider-response","trial_index":110,"time_elapsed":767391,"internal_node_id":"0.0-3.0-0.107","subject_id":"5f0748618f7d2e100867b042","study_id":"605e2a800ccfa0c8e820d869","session_id":"60622098f96e2cfde257d893"},{"rt":5936.114999989513,"stimulus":"img/00644.png","slider_start":4,"response":6,"trial_type":"image-slider-response","trial_index":111,"time_elapsed":773332,"internal_node_id":"0.0-3.0-0.108","subject_id":"5f0748618f7d2e100867b042","study_id":"605e2a800ccfa0c8e820d869","session_id":"60622098f96e2cfde257d893"},{"rt":3074.1999999736436,"stimulus":"img/00041.png","slider_start":4,"response":7,"trial_type":"image-slider-response","trial_index":112,"time_elapsed":776412,"internal_node_id":"0.0-3.0-0.109","subject_id":"5f0748618f7d2e100867b042","study_id":"605e2a800ccfa0c8e820d869","session_id":"60622098f96e2cfde257d893"},{"rt":4113.475000020117,"stimulus":"img/00023.png","slider_start":4,"response":3,"trial_type":"image-slider-response","trial_index":113,"time_elapsed":780530,"internal_node_id":"0.0-3.0-0.110","subject_id":"5f0748618f7d2e100867b042","study_id":"605e2a800ccfa0c8e820d869","session_id":"60622098f96e2cfde257d893"},{"rt":31708.024999999907,"stimulus":"img/00988.png","slider_start":4,"response":3,"trial_type":"image-slider-response","trial_index":114,"time_elapsed":812244,"internal_node_id":"0.0-3.0-0.111","subject_id":"5f0748618f7d2e100867b042","study_id":"605e2a800ccfa0c8e820d869","session_id":"60622098f96e2cfde257d893"},{"rt":14064.644999976736,"stimulus":"img/00554.png","slider_start":4,"response":2,"trial_type":"image-slider-response","trial_index":115,"time_elapsed":826316,"internal_node_id":"0.0-3.0-0.112","subject_id":"5f0748618f7d2e100867b042","study_id":"605e2a800ccfa0c8e820d869","session_id":"60622098f96e2cfde257d893"},{"rt":6552.530000044499,"stimulus":"img/00479.png","slider_start":4,"response":7,"trial_type":"image-slider-response","trial_index":116,"time_elapsed":832875,"internal_node_id":"0.0-3.0-0.113","subject_id":"5f0748618f7d2e100867b042","study_id":"605e2a800ccfa0c8e820d869","session_id":"60622098f96e2cfde257d893"},{"rt":6960.864999971818,"stimulus":"img/00570.png","slider_start":4,"response":5,"trial_type":"image-slider-response","trial_index":117,"time_elapsed":839842,"internal_node_id":"0.0-3.0-0.114","subject_id":"5f0748618f7d2e100867b042","study_id":"605e2a800ccfa0c8e820d869","session_id":"60622098f96e2cfde257d893"},{"rt":3721.0699999704957,"stimulus":"img/00995.png","slider_start":4,"response":3,"trial_type":"image-slider-response","trial_index":118,"time_elapsed":843566,"internal_node_id":"0.0-3.0-0.115","subject_id":"5f0748618f7d2e100867b042","study_id":"605e2a800ccfa0c8e820d869","session_id":"60622098f96e2cfde257d893"},{"rt":4127.670000016224,"stimulus":"img/00811.png","slider_start":4,"response":3,"trial_type":"image-slider-response","trial_index":119,"time_elapsed":847696,"internal_node_id":"0.0-3.0-0.116","subject_id":"5f0748618f7d2e100867b042","study_id":"605e2a800ccfa0c8e820d869","session_id":"60622098f96e2cfde257d893"},{"rt":4544.195000024047,"stimulus":"img/00508.png","slider_start":4,"response":3,"trial_type":"image-slider-response","trial_index":120,"time_elapsed":852245,"internal_node_id":"0.0-3.0-0.117","subject_id":"5f0748618f7d2e100867b042","study_id":"605e2a800ccfa0c8e820d869","session_id":"60622098f96e2cfde257d893"},{"rt":4242.009999987204,"stimulus":"img/00011.png","slider_start":4,"response":5,"trial_type":"image-slider-response","trial_index":121,"time_elapsed":856496,"internal_node_id":"0.0-3.0-0.118","subject_id":"5f0748618f7d2e100867b042","study_id":"605e2a800ccfa0c8e820d869","session_id":"60622098f96e2cfde257d893"},{"rt":6498.699999996461,"stimulus":"img/00464.png","slider_start":4,"response":3,"trial_type":"image-slider-response","trial_index":122,"time_elapsed":862998,"internal_node_id":"0.0-3.0-0.119","subject_id":"5f0748618f7d2e100867b042","study_id":"605e2a800ccfa0c8e820d869","session_id":"60622098f96e2cfde257d893"},{"rt":4182.109999994282,"stimulus":"img/00587.png","slider_start":4,"response":6,"trial_type":"image-slider-response","trial_index":123,"time_elapsed":867185,"internal_node_id":"0.0-3.0-0.120","subject_id":"5f0748618f7d2e100867b042","study_id":"605e2a800ccfa0c8e820d869","session_id":"60622098f96e2cfde257d893"},{"rt":3540.979999990668,"stimulus":"img/00503.png","slider_start":4,"response":3,"trial_type":"image-slider-response","trial_index":124,"time_elapsed":870730,"internal_node_id":"0.0-3.0-0.121","subject_id":"5f0748618f7d2e100867b042","study_id":"605e2a800ccfa0c8e820d869","session_id":"60622098f96e2cfde257d893"},{"rt":7035.685000009835,"stimulus":"img/00115.png","slider_start":4,"response":2,"trial_type":"image-slider-response","trial_index":125,"time_elapsed":877773,"internal_node_id":"0.0-3.0-0.122","subject_id":"5f0748618f7d2e100867b042","study_id":"605e2a800ccfa0c8e820d869","session_id":"60622098f96e2cfde257d893"},{"rt":3956.980000017211,"stimulus":"img/00860.png","slider_start":4,"response":2,"trial_type":"image-slider-response","trial_index":126,"time_elapsed":881735,"internal_node_id":"0.0-3.0-0.123","subject_id":"5f0748618f7d2e100867b042","study_id":"605e2a800ccfa0c8e820d869","session_id":"60622098f96e2cfde257d893"},{"rt":4875.27499999851,"stimulus":"img/00406.png","slider_start":4,"response":2,"trial_type":"image-slider-response","trial_index":127,"time_elapsed":886615,"internal_node_id":"0.0-3.0-0.124","subject_id":"5f0748618f7d2e100867b042","study_id":"605e2a800ccfa0c8e820d869","session_id":"60622098f96e2cfde257d893"},{"rt":4267.875000019558,"stimulus":"img/00592.png","slider_start":4,"response":7,"trial_type":"image-slider-response","trial_index":128,"time_elapsed":890889,"internal_node_id":"0.0-3.0-0.125","subject_id":"5f0748618f7d2e100867b042","study_id":"605e2a800ccfa0c8e820d869","session_id":"60622098f96e2cfde257d893"},{"rt":3292.859999986831,"stimulus":"img/00055.png","slider_start":4,"response":5,"trial_type":"image-slider-response","trial_index":129,"time_elapsed":894189,"internal_node_id":"0.0-3.0-0.126","subject_id":"5f0748618f7d2e100867b042","study_id":"605e2a800ccfa0c8e820d869","session_id":"60622098f96e2cfde257d893"},{"rt":3557.6550000114366,"stimulus":"img/00521.png","slider_start":4,"response":5,"trial_type":"image-slider-response","trial_index":130,"time_elapsed":897752,"internal_node_id":"0.0-3.0-0.127","subject_id":"5f0748618f7d2e100867b042","study_id":"605e2a800ccfa0c8e820d869","session_id":"60622098f96e2cfde257d893"},{"rt":3081.1950000352226,"stimulus":"img/00689.png","slider_start":4,"response":7,"trial_type":"image-slider-response","trial_index":131,"time_elapsed":900836,"internal_node_id":"0.0-3.0-0.128","subject_id":"5f0748618f7d2e100867b042","study_id":"605e2a800ccfa0c8e820d869","session_id":"60622098f96e2cfde257d893"},{"rt":2954.3999999877997,"stimulus":"img/00016.png","slider_start":4,"response":3,"trial_type":"image-slider-response","trial_index":132,"time_elapsed":903795,"internal_node_id":"0.0-3.0-0.129","subject_id":"5f0748618f7d2e100867b042","study_id":"605e2a800ccfa0c8e820d869","session_id":"60622098f96e2cfde257d893"},{"rt":2586.799999990035,"stimulus":"img/00460.png","slider_start":4,"response":5,"trial_type":"image-slider-response","trial_index":133,"time_elapsed":906383,"internal_node_id":"0.0-3.0-0.130","subject_id":"5f0748618f7d2e100867b042","study_id":"605e2a800ccfa0c8e820d869","session_id":"60622098f96e2cfde257d893"},{"rt":2932.820000045467,"stimulus":"img/00718.png","slider_start":4,"response":3,"trial_type":"image-slider-response","trial_index":134,"time_elapsed":909319,"internal_node_id":"0.0-3.0-0.131","subject_id":"5f0748618f7d2e100867b042","study_id":"605e2a800ccfa0c8e820d869","session_id":"60622098f96e2cfde257d893"},{"rt":3390.654999995604,"stimulus":"img/00504.png","slider_start":4,"response":3,"trial_type":"image-slider-response","trial_index":135,"time_elapsed":912715,"internal_node_id":"0.0-3.0-0.132","subject_id":"5f0748618f7d2e100867b042","study_id":"605e2a800ccfa0c8e820d869","session_id":"60622098f96e2cfde257d893"},{"rt":3759.8549999529496,"stimulus":"img/00967.png","slider_start":4,"response":5,"trial_type":"image-slider-response","trial_index":136,"time_elapsed":916483,"internal_node_id":"0.0-3.0-0.133","subject_id":"5f0748618f7d2e100867b042","study_id":"605e2a800ccfa0c8e820d869","session_id":"60622098f96e2cfde257d893"},{"rt":3360.475000052247,"stimulus":"img/00853.png","slider_start":4,"response":5,"trial_type":"image-slider-response","trial_index":137,"time_elapsed":919849,"internal_node_id":"0.0-3.0-0.134","subject_id":"5f0748618f7d2e100867b042","study_id":"605e2a800ccfa0c8e820d869","session_id":"60622098f96e2cfde257d893"},{"rt":3786.145000020042,"stimulus":"img/00744.png","slider_start":4,"response":5,"trial_type":"image-slider-response","trial_index":138,"time_elapsed":923641,"internal_node_id":"0.0-3.0-0.135","subject_id":"5f0748618f7d2e100867b042","study_id":"605e2a800ccfa0c8e820d869","session_id":"60622098f96e2cfde257d893"},{"rt":4521.970000001602,"stimulus":"img/00878.png","slider_start":4,"response":5,"trial_type":"image-slider-response","trial_index":139,"time_elapsed":928165,"internal_node_id":"0.0-3.0-0.136","subject_id":"5f0748618f7d2e100867b042","study_id":"605e2a800ccfa0c8e820d869","session_id":"60622098f96e2cfde257d893"},{"rt":4158.624999981839,"stimulus":"img/00469.png","slider_start":4,"response":5,"trial_type":"image-slider-response","trial_index":140,"time_elapsed":932326,"internal_node_id":"0.0-3.0-0.137","subject_id":"5f0748618f7d2e100867b042","study_id":"605e2a800ccfa0c8e820d869","session_id":"60622098f96e2cfde257d893"},{"rt":4515.669999993406,"stimulus":"img/00790.png","slider_start":4,"response":3,"trial_type":"image-slider-response","trial_index":141,"time_elapsed":936848,"internal_node_id":"0.0-3.0-0.138","subject_id":"5f0748618f7d2e100867b042","study_id":"605e2a800ccfa0c8e820d869","session_id":"60622098f96e2cfde257d893"},{"rt":4551.260000036564,"stimulus":"img/00130.png","slider_start":4,"response":3,"trial_type":"image-slider-response","trial_index":142,"time_elapsed":941403,"internal_node_id":"0.0-3.0-0.139","subject_id":"5f0748618f7d2e100867b042","study_id":"605e2a800ccfa0c8e820d869","session_id":"60622098f96e2cfde257d893"},{"rt":3992.6800000248477,"stimulus":"img/00854.png","slider_start":4,"response":5,"trial_type":"image-slider-response","trial_index":143,"time_elapsed":945402,"internal_node_id":"0.0-3.0-0.140","subject_id":"5f0748618f7d2e100867b042","study_id":"605e2a800ccfa0c8e820d869","session_id":"60622098f96e2cfde257d893"},{"rt":8208.195000013802,"stimulus":"img/00815.png","slider_start":4,"response":5,"trial_type":"image-slider-response","trial_index":144,"time_elapsed":953615,"internal_node_id":"0.0-3.0-0.141","subject_id":"5f0748618f7d2e100867b042","study_id":"605e2a800ccfa0c8e820d869","session_id":"60622098f96e2cfde257d893"},{"rt":2772.660000016913,"stimulus":"img/00903.png","slider_start":4,"response":3,"trial_type":"image-slider-response","trial_index":145,"time_elapsed":956392,"internal_node_id":"0.0-3.0-0.142","subject_id":"5f0748618f7d2e100867b042","study_id":"605e2a800ccfa0c8e820d869","session_id":"60622098f96e2cfde257d893"},{"rt":2986.0749999643303,"stimulus":"img/00427.png","slider_start":4,"response":7,"trial_type":"image-slider-response","trial_index":146,"time_elapsed":959384,"internal_node_id":"0.0-3.0-0.143","subject_id":"5f0748618f7d2e100867b042","study_id":"605e2a800ccfa0c8e820d869","session_id":"60622098f96e2cfde257d893"},{"rt":4890.039999969304,"stimulus":"img/00789.png","slider_start":4,"response":2,"trial_type":"image-slider-response","trial_index":147,"time_elapsed":964279,"internal_node_id":"0.0-3.0-0.144","subject_id":"5f0748618f7d2e100867b042","study_id":"605e2a800ccfa0c8e820d869","session_id":"60622098f96e2cfde257d893"},{"rt":3412.739999999758,"stimulus":"img/00926.png","slider_start":4,"response":5,"trial_type":"image-slider-response","trial_index":148,"time_elapsed":967697,"internal_node_id":"0.0-3.0-0.145","subject_id":"5f0748618f7d2e100867b042","study_id":"605e2a800ccfa0c8e820d869","session_id":"60622098f96e2cfde257d893"},{"rt":4126.080000016373,"stimulus":"img/00764.png","slider_start":4,"response":2,"trial_type":"image-slider-response","trial_index":149,"time_elapsed":971825,"internal_node_id":"0.0-3.0-0.146","subject_id":"5f0748618f7d2e100867b042","study_id":"605e2a800ccfa0c8e820d869","session_id":"60622098f96e2cfde257d893"},{"rt":3283.500000019558,"stimulus":"img/00059.png","slider_start":4,"response":7,"trial_type":"image-slider-response","trial_index":150,"time_elapsed":975114,"internal_node_id":"0.0-3.0-0.147","subject_id":"5f0748618f7d2e100867b042","study_id":"605e2a800ccfa0c8e820d869","session_id":"60622098f96e2cfde257d893"},{"rt":3326.7399999895133,"stimulus":"img/00093.png","slider_start":4,"response":2,"trial_type":"image-slider-response","trial_index":151,"time_elapsed":978445,"internal_node_id":"0.0-3.0-0.148","subject_id":"5f0748618f7d2e100867b042","study_id":"605e2a800ccfa0c8e820d869","session_id":"60622098f96e2cfde257d893"},{"rt":4345.625000016298,"stimulus":"img/00653.png","slider_start":4,"response":2,"trial_type":"image-slider-response","trial_index":152,"time_elapsed":982797,"internal_node_id":"0.0-3.0-0.149","subject_id":"5f0748618f7d2e100867b042","study_id":"605e2a800ccfa0c8e820d869","session_id":"60622098f96e2cfde257d893"},{"rt":3929.564999998547,"stimulus":"img/00040.png","slider_start":4,"response":1,"trial_type":"image-slider-response","trial_index":153,"time_elapsed":986733,"internal_node_id":"0.0-3.0-0.150","subject_id":"5f0748618f7d2e100867b042","study_id":"605e2a800ccfa0c8e820d869","session_id":"60622098f96e2cfde257d893"},{"rt":3812.4899999820627,"stimulus":"img/00989.png","slider_start":4,"response":5,"trial_type":"image-slider-response","trial_index":154,"time_elapsed":990550,"internal_node_id":"0.0-3.0-0.151","subject_id":"5f0748618f7d2e100867b042","study_id":"605e2a800ccfa0c8e820d869","session_id":"60622098f96e2cfde257d893"},{"rt":7518.3300000499,"stimulus":"img/00404.png","slider_start":4,"response":2,"trial_type":"image-slider-response","trial_index":155,"time_elapsed":998073,"internal_node_id":"0.0-3.0-0.152","subject_id":"5f0748618f7d2e100867b042","study_id":"605e2a800ccfa0c8e820d869","session_id":"60622098f96e2cfde257d893"},{"rt":3476.894999970682,"stimulus":"img/00428.png","slider_start":4,"response":2,"trial_type":"image-slider-response","trial_index":156,"time_elapsed":1001557,"internal_node_id":"0.0-3.0-0.153","subject_id":"5f0748618f7d2e100867b042","study_id":"605e2a800ccfa0c8e820d869","session_id":"60622098f96e2cfde257d893"},{"rt":4411.179999995511,"stimulus":"img/00045.png","slider_start":4,"response":2,"trial_type":"image-slider-response","trial_index":157,"time_elapsed":1005974,"internal_node_id":"0.0-3.0-0.154","subject_id":"5f0748618f7d2e100867b042","study_id":"605e2a800ccfa0c8e820d869","session_id":"60622098f96e2cfde257d893"},{"rt":7462.439999973867,"stimulus":"img/00082.png","slider_start":4,"response":2,"trial_type":"image-slider-response","trial_index":158,"time_elapsed":1013441,"internal_node_id":"0.0-3.0-0.155","subject_id":"5f0748618f7d2e100867b042","study_id":"605e2a800ccfa0c8e820d869","session_id":"60622098f96e2cfde257d893"},{"rt":10651.09499997925,"stimulus":"img/00982.png","slider_start":4,"response":3,"trial_type":"image-slider-response","trial_index":159,"time_elapsed":1024100,"internal_node_id":"0.0-3.0-0.156","subject_id":"5f0748618f7d2e100867b042","study_id":"605e2a800ccfa0c8e820d869","session_id":"60622098f96e2cfde257d893"},{"rt":3506.200000003446,"stimulus":"img/00456.png","slider_start":4,"response":3,"trial_type":"image-slider-response","trial_index":160,"time_elapsed":1027609,"internal_node_id":"0.0-3.0-0.157","subject_id":"5f0748618f7d2e100867b042","study_id":"605e2a800ccfa0c8e820d869","session_id":"60622098f96e2cfde257d893"},{"rt":5702.445000002626,"stimulus":"img/00785.png","slider_start":4,"response":7,"trial_type":"image-slider-response","trial_index":161,"time_elapsed":1033316,"internal_node_id":"0.0-3.0-0.158","subject_id":"5f0748618f7d2e100867b042","study_id":"605e2a800ccfa0c8e820d869","session_id":"60622098f96e2cfde257d893"},{"rt":3630.005000042729,"stimulus":"img/00447.png","slider_start":4,"response":3,"trial_type":"image-slider-response","trial_index":162,"time_elapsed":1036950,"internal_node_id":"0.0-3.0-0.159","subject_id":"5f0748618f7d2e100867b042","study_id":"605e2a800ccfa0c8e820d869","session_id":"60622098f96e2cfde257d893"},{"rt":3095.480000018142,"stimulus":"img/00693.png","slider_start":4,"response":2,"trial_type":"image-slider-response","trial_index":163,"time_elapsed":1040049,"internal_node_id":"0.0-3.0-0.160","subject_id":"5f0748618f7d2e100867b042","study_id":"605e2a800ccfa0c8e820d869","session_id":"60622098f96e2cfde257d893"},{"rt":3703.139999997802,"stimulus":"img/00822.png","slider_start":4,"response":5,"trial_type":"image-slider-response","trial_index":164,"time_elapsed":1043755,"internal_node_id":"0.0-3.0-0.161","subject_id":"5f0748618f7d2e100867b042","study_id":"605e2a800ccfa0c8e820d869","session_id":"60622098f96e2cfde257d893"},{"rt":4816.294999967795,"stimulus":"img/00998.png","slider_start":4,"response":5,"trial_type":"image-slider-response","trial_index":165,"time_elapsed":1048574,"internal_node_id":"0.0-3.0-0.162","subject_id":"5f0748618f7d2e100867b042","study_id":"605e2a800ccfa0c8e820d869","session_id":"60622098f96e2cfde257d893"},{"rt":3930.805000010878,"stimulus":"img/00928.png","slider_start":4,"response":5,"trial_type":"image-slider-response","trial_index":166,"time_elapsed":1052510,"internal_node_id":"0.0-3.0-0.163","subject_id":"5f0748618f7d2e100867b042","study_id":"605e2a800ccfa0c8e820d869","session_id":"60622098f96e2cfde257d893"},{"rt":13669.720000005327,"stimulus":"img/00483.png","slider_start":4,"response":2,"trial_type":"image-slider-response","trial_index":167,"time_elapsed":1066186,"internal_node_id":"0.0-3.0-0.164","subject_id":"5f0748618f7d2e100867b042","study_id":"605e2a800ccfa0c8e820d869","session_id":"60622098f96e2cfde257d893"},{"rt":4473.939999996219,"stimulus":"img/00545.png","slider_start":4,"response":6,"trial_type":"image-slider-response","trial_index":168,"time_elapsed":1070667,"internal_node_id":"0.0-3.0-0.165","subject_id":"5f0748618f7d2e100867b042","study_id":"605e2a800ccfa0c8e820d869","session_id":"60622098f96e2cfde257d893"},{"rt":3131.900000036694,"stimulus":"img/00489.png","slider_start":4,"response":4,"trial_type":"image-slider-response","trial_index":169,"time_elapsed":1073805,"internal_node_id":"0.0-3.0-0.166","subject_id":"5f0748618f7d2e100867b042","study_id":"605e2a800ccfa0c8e820d869","session_id":"60622098f96e2cfde257d893"},{"rt":3593.2599999941885,"stimulus":"img/00438.png","slider_start":4,"response":3,"trial_type":"image-slider-response","trial_index":170,"time_elapsed":1077400,"internal_node_id":"0.0-3.0-0.167","subject_id":"5f0748618f7d2e100867b042","study_id":"605e2a800ccfa0c8e820d869","session_id":"60622098f96e2cfde257d893"},{"rt":3106.199999980163,"stimulus":"img/00603.png","slider_start":4,"response":3,"trial_type":"image-slider-response","trial_index":171,"time_elapsed":1080508,"internal_node_id":"0.0-3.0-0.168","subject_id":"5f0748618f7d2e100867b042","study_id":"605e2a800ccfa0c8e820d869","session_id":"60622098f96e2cfde257d893"},{"rt":3505.620000010822,"stimulus":"img/00949.png","slider_start":4,"response":2,"trial_type":"image-slider-response","trial_index":172,"time_elapsed":1084016,"internal_node_id":"0.0-3.0-0.169","subject_id":"5f0748618f7d2e100867b042","study_id":"605e2a800ccfa0c8e820d869","session_id":"60622098f96e2cfde257d893"},{"rt":3162.964999966789,"stimulus":"img/00623.png","slider_start":4,"response":6,"trial_type":"image-slider-response","trial_index":173,"time_elapsed":1087181,"internal_node_id":"0.0-3.0-0.170","subject_id":"5f0748618f7d2e100867b042","study_id":"605e2a800ccfa0c8e820d869","session_id":"60622098f96e2cfde257d893"},{"rt":5593.220000038855,"stimulus":"img/00756.png","slider_start":4,"response":6,"trial_type":"image-slider-response","trial_index":174,"time_elapsed":1092776,"internal_node_id":"0.0-3.0-0.171","subject_id":"5f0748618f7d2e100867b042","study_id":"605e2a800ccfa0c8e820d869","session_id":"60622098f96e2cfde257d893"}]