[{"rt":3905.594999960158,"stimulus":"Welcome to the experiment. Press any key to begin.","response":" ","trial_type":"html-keyboard-response","trial_index":0,"time_elapsed":3906,"internal_node_id":"0.0-0.0","subject_id":"5fe2669dc299b8e2f9901eaf","study_id":"605e2a800ccfa0c8e820d869","session_id":"6062209890a0af71ed01b72e"},{"rt":1279.5249999617226,"stimulus":"\n        <p>In this experiment, a face will appear on-screen.</p><p> <strong>Rate the face on a 1 - 7 scale based on how attractive he / she is.</strong> </p>\n        </div>\n        <p>Press any key to begin.</p>\n      ","response":" ","trial_type":"html-keyboard-response","trial_index":1,"time_elapsed":5186,"internal_node_id":"0.0-1.0","subject_id":"5fe2669dc299b8e2f9901eaf","study_id":"605e2a800ccfa0c8e820d869","session_id":"6062209890a0af71ed01b72e"},{"success":true,"timeout":false,"failed_images":[],"failed_audio":[],"failed_video":[],"trial_type":"preload","trial_index":2,"time_elapsed":6682,"internal_node_id":"0.0-2.0","subject_id":"5fe2669dc299b8e2f9901eaf","study_id":"605e2a800ccfa0c8e820d869","session_id":"6062209890a0af71ed01b72e"},{"rt":11673.29000000609,"stimulus":"img/00779.png","slider_start":4,"response":3,"trial_type":"image-slider-response","trial_index":3,"time_elapsed":18362,"internal_node_id":"0.0-3.0-0.0","subject_id":"5fe2669dc299b8e2f9901eaf","study_id":"605e2a800ccfa0c8e820d869","session_id":"6062209890a0af71ed01b72e"},{"rt":4301.65500001749,"stimulus":"img/00469.png","slider_start":4,"response":6,"trial_type":"image-slider-response","trial_index":4,"time_elapsed":22666,"internal_node_id":"0.0-3.0-0.1","subject_id":"5fe2669dc299b8e2f9901eaf","study_id":"605e2a800ccfa0c8e820d869","session_id":"6062209890a0af71ed01b72e"},{"rt":5438.594999955967,"stimulus":"img/00581.png","slider_start":4,"response":4,"trial_type":"image-slider-response","trial_index":5,"time_elapsed":28106,"internal_node_id":"0.0-3.0-0.2","subject_id":"5fe2669dc299b8e2f9901eaf","study_id":"605e2a800ccfa0c8e820d869","session_id":"6062209890a0af71ed01b72e"},{"rt":8262.664999987464,"stimulus":"img/00048.png","slider_start":4,"response":4,"trial_type":"image-slider-response","trial_index":6,"time_elapsed":36370,"internal_node_id":"0.0-3.0-0.3","subject_id":"5fe2669dc299b8e2f9901eaf","study_id":"605e2a800ccfa0c8e820d869","session_id":"6062209890a0af71ed01b72e"},{"rt":3894.384999992326,"stimulus":"img/00618.png","slider_start":4,"response":6,"trial_type":"image-slider-response","trial_index":7,"time_elapsed":40266,"internal_node_id":"0.0-3.0-0.4","subject_id":"5fe2669dc299b8e2f9901eaf","study_id":"605e2a800ccfa0c8e820d869","session_id":"6062209890a0af71ed01b72e"},{"rt":2398.894999991171,"stimulus":"img/00791.png","slider_start":4,"response":4,"trial_type":"image-slider-response","trial_index":8,"time_elapsed":42666,"internal_node_id":"0.0-3.0-0.5","subject_id":"5fe2669dc299b8e2f9901eaf","study_id":"605e2a800ccfa0c8e820d869","session_id":"6062209890a0af71ed01b72e"},{"rt":2646.6449999716133,"stimulus":"img/00504.png","slider_start":4,"response":5,"trial_type":"image-slider-response","trial_index":9,"time_elapsed":45314,"internal_node_id":"0.0-3.0-0.6","subject_id":"5fe2669dc299b8e2f9901eaf","study_id":"605e2a800ccfa0c8e820d869","session_id":"6062209890a0af71ed01b72e"},{"rt":2382.7300000120886,"stimulus":"img/00521.png","slider_start":4,"response":4,"trial_type":"image-slider-response","trial_index":10,"time_elapsed":47698,"internal_node_id":"0.0-3.0-0.7","subject_id":"5fe2669dc299b8e2f9901eaf","study_id":"605e2a800ccfa0c8e820d869","session_id":"6062209890a0af71ed01b72e"},{"rt":1542.9000000003725,"stimulus":"img/00768.png","slider_start":4,"response":4,"trial_type":"image-slider-response","trial_index":11,"time_elapsed":49242,"internal_node_id":"0.0-3.0-0.8","subject_id":"5fe2669dc299b8e2f9901eaf","study_id":"605e2a800ccfa0c8e820d869","session_id":"6062209890a0af71ed01b72e"},{"rt":2022.9299999773502,"stimulus":"img/00756.png","slider_start":4,"response":4,"trial_type":"image-slider-response","trial_index":12,"time_elapsed":51266,"internal_node_id":"0.0-3.0-0.9","subject_id":"5fe2669dc299b8e2f9901eaf","study_id":"605e2a800ccfa0c8e820d869","session_id":"6062209890a0af71ed01b72e"},{"rt":2622.849999985192,"stimulus":"img/00848.png","slider_start":4,"response":5,"trial_type":"image-slider-response","trial_index":13,"time_elapsed":53890,"internal_node_id":"0.0-3.0-0.10","subject_id":"5fe2669dc299b8e2f9901eaf","study_id":"605e2a800ccfa0c8e820d869","session_id":"6062209890a0af71ed01b72e"},{"rt":3710.9249999630265,"stimulus":"img/00693.png","slider_start":4,"response":5,"trial_type":"image-slider-response","trial_index":14,"time_elapsed":57602,"internal_node_id":"0.0-3.0-0.11","subject_id":"5fe2669dc299b8e2f9901eaf","study_id":"605e2a800ccfa0c8e820d869","session_id":"6062209890a0af71ed01b72e"},{"rt":2886.5349999978207,"stimulus":"img/00903.png","slider_start":4,"response":5,"trial_type":"image-slider-response","trial_index":15,"time_elapsed":60490,"internal_node_id":"0.0-3.0-0.12","subject_id":"5fe2669dc299b8e2f9901eaf","study_id":"605e2a800ccfa0c8e820d869","session_id":"6062209890a0af71ed01b72e"},{"rt":3134.680000017397,"stimulus":"img/00462.png","slider_start":4,"response":6,"trial_type":"image-slider-response","trial_index":16,"time_elapsed":63626,"internal_node_id":"0.0-3.0-0.13","subject_id":"5fe2669dc299b8e2f9901eaf","study_id":"605e2a800ccfa0c8e820d869","session_id":"6062209890a0af71ed01b72e"},{"rt":2334.885000018403,"stimulus":"img/00055.png","slider_start":4,"response":5,"trial_type":"image-slider-response","trial_index":17,"time_elapsed":65962,"internal_node_id":"0.0-3.0-0.14","subject_id":"5fe2669dc299b8e2f9901eaf","study_id":"605e2a800ccfa0c8e820d869","session_id":"6062209890a0af71ed01b72e"},{"rt":2478.5200000042096,"stimulus":"img/00644.png","slider_start":4,"response":6,"trial_type":"image-slider-response","trial_index":18,"time_elapsed":68442,"internal_node_id":"0.0-3.0-0.15","subject_id":"5fe2669dc299b8e2f9901eaf","study_id":"605e2a800ccfa0c8e820d869","session_id":"6062209890a0af71ed01b72e"},{"rt":3550.829999963753,"stimulus":"img/00499.png","slider_start":4,"response":3,"trial_type":"image-slider-response","trial_index":19,"time_elapsed":71994,"internal_node_id":"0.0-3.0-0.16","subject_id":"5fe2669dc299b8e2f9901eaf","study_id":"605e2a800ccfa0c8e820d869","session_id":"6062209890a0af71ed01b72e"},{"rt":2030.2350000129081,"stimulus":"img/00748.png","slider_start":4,"response":4,"trial_type":"image-slider-response","trial_index":20,"time_elapsed":74026,"internal_node_id":"0.0-3.0-0.17","subject_id":"5fe2669dc299b8e2f9901eaf","study_id":"605e2a800ccfa0c8e820d869","session_id":"6062209890a0af71ed01b72e"},{"rt":1998.9799999748357,"stimulus":"img/00744.png","slider_start":4,"response":4,"trial_type":"image-slider-response","trial_index":21,"time_elapsed":76026,"internal_node_id":"0.0-3.0-0.18","subject_id":"5fe2669dc299b8e2f9901eaf","study_id":"605e2a800ccfa0c8e820d869","session_id":"6062209890a0af71ed01b72e"},{"rt":2638.974999950733,"stimulus":"img/00472.png","slider_start":4,"response":4,"trial_type":"image-slider-response","trial_index":22,"time_elapsed":78666,"internal_node_id":"0.0-3.0-0.19","subject_id":"5fe2669dc299b8e2f9901eaf","study_id":"605e2a800ccfa0c8e820d869","session_id":"6062209890a0af71ed01b72e"},{"rt":4454.694999963976,"stimulus":"img/00413.png","slider_start":4,"response":4,"trial_type":"image-slider-response","trial_index":23,"time_elapsed":83122,"internal_node_id":"0.0-3.0-0.20","subject_id":"5fe2669dc299b8e2f9901eaf","study_id":"605e2a800ccfa0c8e820d869","session_id":"6062209890a0af71ed01b72e"},{"rt":3854.735000000801,"stimulus":"img/00438.png","slider_start":4,"response":4,"trial_type":"image-slider-response","trial_index":24,"time_elapsed":86978,"internal_node_id":"0.0-3.0-0.21","subject_id":"5fe2669dc299b8e2f9901eaf","study_id":"605e2a800ccfa0c8e820d869","session_id":"6062209890a0af71ed01b72e"},{"rt":5790.344999986701,"stimulus":"img/00764.png","slider_start":4,"response":3,"trial_type":"image-slider-response","trial_index":25,"time_elapsed":92769,"internal_node_id":"0.0-3.0-0.22","subject_id":"5fe2669dc299b8e2f9901eaf","study_id":"605e2a800ccfa0c8e820d869","session_id":"6062209890a0af71ed01b72e"},{"rt":2486.5950000239536,"stimulus":"img/00841.png","slider_start":4,"response":5,"trial_type":"image-slider-response","trial_index":26,"time_elapsed":95257,"internal_node_id":"0.0-3.0-0.23","subject_id":"5fe2669dc299b8e2f9901eaf","study_id":"605e2a800ccfa0c8e820d869","session_id":"6062209890a0af71ed01b72e"},{"rt":3110.9099999885075,"stimulus":"img/00592.png","slider_start":4,"response":5,"trial_type":"image-slider-response","trial_index":27,"time_elapsed":98369,"internal_node_id":"0.0-3.0-0.24","subject_id":"5fe2669dc299b8e2f9901eaf","study_id":"605e2a800ccfa0c8e820d869","session_id":"6062209890a0af71ed01b72e"},{"rt":3998.874999990221,"stimulus":"img/00600.png","slider_start":4,"response":3,"trial_type":"image-slider-response","trial_index":28,"time_elapsed":102369,"internal_node_id":"0.0-3.0-0.25","subject_id":"5fe2669dc299b8e2f9901eaf","study_id":"605e2a800ccfa0c8e820d869","session_id":"6062209890a0af71ed01b72e"},{"rt":3358.6299999733455,"stimulus":"img/00105.png","slider_start":4,"response":6,"trial_type":"image-slider-response","trial_index":29,"time_elapsed":105729,"internal_node_id":"0.0-3.0-0.26","subject_id":"5fe2669dc299b8e2f9901eaf","study_id":"605e2a800ccfa0c8e820d869","session_id":"6062209890a0af71ed01b72e"},{"rt":5718.690000008792,"stimulus":"img/00127.png","slider_start":4,"response":4,"trial_type":"image-slider-response","trial_index":30,"time_elapsed":111449,"internal_node_id":"0.0-3.0-0.27","subject_id":"5fe2669dc299b8e2f9901eaf","study_id":"605e2a800ccfa0c8e820d869","session_id":"6062209890a0af71ed01b72e"},{"rt":10342.77500002645,"stimulus":"img/00559.png","slider_start":4,"response":4,"trial_type":"image-slider-response","trial_index":31,"time_elapsed":121794,"internal_node_id":"0.0-3.0-0.28","subject_id":"5fe2669dc299b8e2f9901eaf","study_id":"605e2a800ccfa0c8e820d869","session_id":"6062209890a0af71ed01b72e"},{"rt":2438.160000019707,"stimulus":"img/00926.png","slider_start":4,"response":4,"trial_type":"image-slider-response","trial_index":32,"time_elapsed":124233,"internal_node_id":"0.0-3.0-0.29","subject_id":"5fe2669dc299b8e2f9901eaf","study_id":"605e2a800ccfa0c8e820d869","session_id":"6062209890a0af71ed01b72e"},{"rt":2502.8399999719113,"stimulus":"img/00011.png","slider_start":4,"response":4,"trial_type":"image-slider-response","trial_index":33,"time_elapsed":126737,"internal_node_id":"0.0-3.0-0.30","subject_id":"5fe2669dc299b8e2f9901eaf","study_id":"605e2a800ccfa0c8e820d869","session_id":"6062209890a0af71ed01b72e"},{"rt":6447.005000023637,"stimulus":"img/00052.png","slider_start":4,"response":3,"trial_type":"image-slider-response","trial_index":34,"time_elapsed":133186,"internal_node_id":"0.0-3.0-0.31","subject_id":"5fe2669dc299b8e2f9901eaf","study_id":"605e2a800ccfa0c8e820d869","session_id":"6062209890a0af71ed01b72e"},{"rt":3454.520000028424,"stimulus":"img/00045.png","slider_start":4,"response":4,"trial_type":"image-slider-response","trial_index":35,"time_elapsed":136641,"internal_node_id":"0.0-3.0-0.32","subject_id":"5fe2669dc299b8e2f9901eaf","study_id":"605e2a800ccfa0c8e820d869","session_id":"6062209890a0af71ed01b72e"},{"rt":2190.5550000374205,"stimulus":"img/00511.png","slider_start":4,"response":4,"trial_type":"image-slider-response","trial_index":36,"time_elapsed":138833,"internal_node_id":"0.0-3.0-0.33","subject_id":"5fe2669dc299b8e2f9901eaf","study_id":"605e2a800ccfa0c8e820d869","session_id":"6062209890a0af71ed01b72e"},{"rt":5006.999999983236,"stimulus":"img/00854.png","slider_start":4,"response":4,"trial_type":"image-slider-response","trial_index":37,"time_elapsed":143841,"internal_node_id":"0.0-3.0-0.34","subject_id":"5fe2669dc299b8e2f9901eaf","study_id":"605e2a800ccfa0c8e820d869","session_id":"6062209890a0af71ed01b72e"},{"rt":2806.5000000060536,"stimulus":"img/00842.png","slider_start":4,"response":5,"trial_type":"image-slider-response","trial_index":38,"time_elapsed":146649,"internal_node_id":"0.0-3.0-0.35","subject_id":"5fe2669dc299b8e2f9901eaf","study_id":"605e2a800ccfa0c8e820d869","session_id":"6062209890a0af71ed01b72e"},{"rt":3495.2199999825098,"stimulus":"img/00406.png","slider_start":4,"response":5,"trial_type":"image-slider-response","trial_index":39,"time_elapsed":150146,"internal_node_id":"0.0-3.0-0.36","subject_id":"5fe2669dc299b8e2f9901eaf","study_id":"605e2a800ccfa0c8e820d869","session_id":"6062209890a0af71ed01b72e"},{"rt":4174.025000014808,"stimulus":"img/00122.png","slider_start":4,"response":6,"trial_type":"image-slider-response","trial_index":40,"time_elapsed":154322,"internal_node_id":"0.0-3.0-0.37","subject_id":"5fe2669dc299b8e2f9901eaf","study_id":"605e2a800ccfa0c8e820d869","session_id":"6062209890a0af71ed01b72e"},{"rt":2678.6449999781325,"stimulus":"img/00689.png","slider_start":4,"response":5,"trial_type":"image-slider-response","trial_index":41,"time_elapsed":157002,"internal_node_id":"0.0-3.0-0.38","subject_id":"5fe2669dc299b8e2f9901eaf","study_id":"605e2a800ccfa0c8e820d869","session_id":"6062209890a0af71ed01b72e"},{"rt":3694.8100000154227,"stimulus":"img/00949.png","slider_start":4,"response":5,"trial_type":"image-slider-response","trial_index":42,"time_elapsed":160698,"internal_node_id":"0.0-3.0-0.39","subject_id":"5fe2669dc299b8e2f9901eaf","study_id":"605e2a800ccfa0c8e820d869","session_id":"6062209890a0af71ed01b72e"},{"rt":5662.65499999281,"stimulus":"img/00811.png","slider_start":4,"response":4,"trial_type":"image-slider-response","trial_index":43,"time_elapsed":166362,"internal_node_id":"0.0-3.0-0.40","subject_id":"5fe2669dc299b8e2f9901eaf","study_id":"605e2a800ccfa0c8e820d869","session_id":"6062209890a0af71ed01b72e"},{"rt":5398.159999982454,"stimulus":"img/00064.png","slider_start":4,"response":6,"trial_type":"image-slider-response","trial_index":44,"time_elapsed":171762,"internal_node_id":"0.0-3.0-0.41","subject_id":"5fe2669dc299b8e2f9901eaf","study_id":"605e2a800ccfa0c8e820d869","session_id":"6062209890a0af71ed01b72e"},{"rt":2910.615000000689,"stimulus":"img/00042.png","slider_start":4,"response":6,"trial_type":"image-slider-response","trial_index":45,"time_elapsed":174674,"internal_node_id":"0.0-3.0-0.42","subject_id":"5fe2669dc299b8e2f9901eaf","study_id":"605e2a800ccfa0c8e820d869","session_id":"6062209890a0af71ed01b72e"},{"rt":2558.5699999937788,"stimulus":"img/00489.png","slider_start":4,"response":4,"trial_type":"image-slider-response","trial_index":46,"time_elapsed":177234,"internal_node_id":"0.0-3.0-0.43","subject_id":"5fe2669dc299b8e2f9901eaf","study_id":"605e2a800ccfa0c8e820d869","session_id":"6062209890a0af71ed01b72e"},{"rt":5054.9900000332855,"stimulus":"img/00878.png","slider_start":4,"response":5,"trial_type":"image-slider-response","trial_index":47,"time_elapsed":182290,"internal_node_id":"0.0-3.0-0.44","subject_id":"5fe2669dc299b8e2f9901eaf","study_id":"605e2a800ccfa0c8e820d869","session_id":"6062209890a0af71ed01b72e"},{"rt":1542.3549999832176,"stimulus":"img/00018.png","slider_start":4,"response":4,"trial_type":"image-slider-response","trial_index":48,"time_elapsed":183834,"internal_node_id":"0.0-3.0-0.45","subject_id":"5fe2669dc299b8e2f9901eaf","study_id":"605e2a800ccfa0c8e820d869","session_id":"6062209890a0af71ed01b72e"},{"rt":1678.8550000055693,"stimulus":"img/00418.png","slider_start":4,"response":4,"trial_type":"image-slider-response","trial_index":49,"time_elapsed":185514,"internal_node_id":"0.0-3.0-0.46","subject_id":"5fe2669dc299b8e2f9901eaf","study_id":"605e2a800ccfa0c8e820d869","session_id":"6062209890a0af71ed01b72e"},{"rt":3334.934999991674,"stimulus":"img/00653.png","slider_start":4,"response":5,"trial_type":"image-slider-response","trial_index":50,"time_elapsed":188850,"internal_node_id":"0.0-3.0-0.47","subject_id":"5fe2669dc299b8e2f9901eaf","study_id":"605e2a800ccfa0c8e820d869","session_id":"6062209890a0af71ed01b72e"},{"rt":2830.855000007432,"stimulus":"img/00078.png","slider_start":4,"response":4,"trial_type":"image-slider-response","trial_index":51,"time_elapsed":191682,"internal_node_id":"0.0-3.0-0.48","subject_id":"5fe2669dc299b8e2f9901eaf","study_id":"605e2a800ccfa0c8e820d869","session_id":"6062209890a0af71ed01b72e"},{"rt":3894.6950000245124,"stimulus":"img/00114.png","slider_start":4,"response":3,"trial_type":"image-slider-response","trial_index":52,"time_elapsed":195578,"internal_node_id":"0.0-3.0-0.49","subject_id":"5fe2669dc299b8e2f9901eaf","study_id":"605e2a800ccfa0c8e820d869","session_id":"6062209890a0af71ed01b72e"},{"rt":2926.0549999889918,"stimulus":"img/00126.png","slider_start":4,"response":3,"trial_type":"image-slider-response","trial_index":53,"time_elapsed":198506,"internal_node_id":"0.0-3.0-0.50","subject_id":"5fe2669dc299b8e2f9901eaf","study_id":"605e2a800ccfa0c8e820d869","session_id":"6062209890a0af71ed01b72e"},{"rt":3102.705000026617,"stimulus":"img/00761.png","slider_start":4,"response":5,"trial_type":"image-slider-response","trial_index":54,"time_elapsed":201610,"internal_node_id":"0.0-3.0-0.51","subject_id":"5fe2669dc299b8e2f9901eaf","study_id":"605e2a800ccfa0c8e820d869","session_id":"6062209890a0af71ed01b72e"},{"rt":5550.889999954961,"stimulus":"img/00991.png","slider_start":4,"response":5,"trial_type":"image-slider-response","trial_index":55,"time_elapsed":207162,"internal_node_id":"0.0-3.0-0.52","subject_id":"5fe2669dc299b8e2f9901eaf","study_id":"605e2a800ccfa0c8e820d869","session_id":"6062209890a0af71ed01b72e"},{"rt":3478.4249999793246,"stimulus":"img/00129.png","slider_start":4,"response":5,"trial_type":"image-slider-response","trial_index":56,"time_elapsed":210642,"internal_node_id":"0.0-3.0-0.53","subject_id":"5fe2669dc299b8e2f9901eaf","study_id":"605e2a800ccfa0c8e820d869","session_id":"6062209890a0af71ed01b72e"},{"rt":3942.555000016,"stimulus":"img/00037.png","slider_start":4,"response":5,"trial_type":"image-slider-response","trial_index":57,"time_elapsed":214585,"internal_node_id":"0.0-3.0-0.54","subject_id":"5fe2669dc299b8e2f9901eaf","study_id":"605e2a800ccfa0c8e820d869","session_id":"6062209890a0af71ed01b72e"},{"rt":5054.635000007693,"stimulus":"img/00809.png","slider_start":4,"response":5,"trial_type":"image-slider-response","trial_index":58,"time_elapsed":219641,"internal_node_id":"0.0-3.0-0.55","subject_id":"5fe2669dc299b8e2f9901eaf","study_id":"605e2a800ccfa0c8e820d869","session_id":"6062209890a0af71ed01b72e"},{"rt":4030.4350000224076,"stimulus":"img/00483.png","slider_start":4,"response":5,"trial_type":"image-slider-response","trial_index":59,"time_elapsed":223673,"internal_node_id":"0.0-3.0-0.56","subject_id":"5fe2669dc299b8e2f9901eaf","study_id":"605e2a800ccfa0c8e820d869","session_id":"6062209890a0af71ed01b72e"},{"rt":2758.564999967348,"stimulus":"img/00902.png","slider_start":4,"response":5,"trial_type":"image-slider-response","trial_index":60,"time_elapsed":226433,"internal_node_id":"0.0-3.0-0.57","subject_id":"5fe2669dc299b8e2f9901eaf","study_id":"605e2a800ccfa0c8e820d869","session_id":"6062209890a0af71ed01b72e"},{"rt":1798.5500000067987,"stimulus":"img/00015.png","slider_start":4,"response":4,"trial_type":"image-slider-response","trial_index":61,"time_elapsed":228233,"internal_node_id":"0.0-3.0-0.58","subject_id":"5fe2669dc299b8e2f9901eaf","study_id":"605e2a800ccfa0c8e820d869","session_id":"6062209890a0af71ed01b72e"},{"rt":1430.8450000244193,"stimulus":"img/00797.png","slider_start":4,"response":4,"trial_type":"image-slider-response","trial_index":62,"time_elapsed":229665,"internal_node_id":"0.0-3.0-0.59","subject_id":"5fe2669dc299b8e2f9901eaf","study_id":"605e2a800ccfa0c8e820d869","session_id":"6062209890a0af71ed01b72e"},{"rt":3687.030000030063,"stimulus":"img/00525.png","slider_start":4,"response":4,"trial_type":"image-slider-response","trial_index":63,"time_elapsed":233353,"internal_node_id":"0.0-3.0-0.60","subject_id":"5fe2669dc299b8e2f9901eaf","study_id":"605e2a800ccfa0c8e820d869","session_id":"6062209890a0af71ed01b72e"},{"rt":2438.7349999742582,"stimulus":"img/00631.png","slider_start":4,"response":4,"trial_type":"image-slider-response","trial_index":64,"time_elapsed":235793,"internal_node_id":"0.0-3.0-0.61","subject_id":"5fe2669dc299b8e2f9901eaf","study_id":"605e2a800ccfa0c8e820d869","session_id":"6062209890a0af71ed01b72e"},{"rt":1478.8699999917299,"stimulus":"img/00986.png","slider_start":4,"response":4,"trial_type":"image-slider-response","trial_index":65,"time_elapsed":237273,"internal_node_id":"0.0-3.0-0.62","subject_id":"5fe2669dc299b8e2f9901eaf","study_id":"605e2a800ccfa0c8e820d869","session_id":"6062209890a0af71ed01b72e"},{"rt":2886.9449999765493,"stimulus":"img/00478.png","slider_start":4,"response":3,"trial_type":"image-slider-response","trial_index":66,"time_elapsed":240161,"internal_node_id":"0.0-3.0-0.63","subject_id":"5fe2669dc299b8e2f9901eaf","study_id":"605e2a800ccfa0c8e820d869","session_id":"6062209890a0af71ed01b72e"},{"rt":3534.6349999890663,"stimulus":"img/00012.png","slider_start":4,"response":3,"trial_type":"image-slider-response","trial_index":67,"time_elapsed":243697,"internal_node_id":"0.0-3.0-0.64","subject_id":"5fe2669dc299b8e2f9901eaf","study_id":"605e2a800ccfa0c8e820d869","session_id":"6062209890a0af71ed01b72e"},{"rt":2502.8649999876507,"stimulus":"img/00040.png","slider_start":4,"response":3,"trial_type":"image-slider-response","trial_index":68,"time_elapsed":246201,"internal_node_id":"0.0-3.0-0.65","subject_id":"5fe2669dc299b8e2f9901eaf","study_id":"605e2a800ccfa0c8e820d869","session_id":"6062209890a0af71ed01b72e"},{"rt":3334.4250000081956,"stimulus":"img/00688.png","slider_start":4,"response":6,"trial_type":"image-slider-response","trial_index":69,"time_elapsed":249537,"internal_node_id":"0.0-3.0-0.66","subject_id":"5fe2669dc299b8e2f9901eaf","study_id":"605e2a800ccfa0c8e820d869","session_id":"6062209890a0af71ed01b72e"},{"rt":4046.9150000135414,"stimulus":"img/00587.png","slider_start":4,"response":6,"trial_type":"image-slider-response","trial_index":70,"time_elapsed":253585,"internal_node_id":"0.0-3.0-0.67","subject_id":"5fe2669dc299b8e2f9901eaf","study_id":"605e2a800ccfa0c8e820d869","session_id":"6062209890a0af71ed01b72e"},{"rt":3678.6149999825284,"stimulus":"img/00773.png","slider_start":4,"response":5,"trial_type":"image-slider-response","trial_index":71,"time_elapsed":257265,"internal_node_id":"0.0-3.0-0.68","subject_id":"5fe2669dc299b8e2f9901eaf","study_id":"605e2a800ccfa0c8e820d869","session_id":"6062209890a0af71ed01b72e"},{"rt":2518.5050000436604,"stimulus":"img/00799.png","slider_start":4,"response":3,"trial_type":"image-slider-response","trial_index":72,"time_elapsed":259785,"internal_node_id":"0.0-3.0-0.69","subject_id":"5fe2669dc299b8e2f9901eaf","study_id":"605e2a800ccfa0c8e820d869","session_id":"6062209890a0af71ed01b72e"},{"rt":1710.944999998901,"stimulus":"img/00742.png","slider_start":4,"response":3,"trial_type":"image-slider-response","trial_index":73,"time_elapsed":261497,"internal_node_id":"0.0-3.0-0.70","subject_id":"5fe2669dc299b8e2f9901eaf","study_id":"605e2a800ccfa0c8e820d869","session_id":"6062209890a0af71ed01b72e"},{"rt":4694.870000006631,"stimulus":"img/00082.png","slider_start":4,"response":3,"trial_type":"image-slider-response","trial_index":74,"time_elapsed":266193,"internal_node_id":"0.0-3.0-0.71","subject_id":"5fe2669dc299b8e2f9901eaf","study_id":"605e2a800ccfa0c8e820d869","session_id":"6062209890a0af71ed01b72e"},{"rt":3102.6100000017323,"stimulus":"img/00755.png","slider_start":4,"response":4,"trial_type":"image-slider-response","trial_index":75,"time_elapsed":269297,"internal_node_id":"0.0-3.0-0.72","subject_id":"5fe2669dc299b8e2f9901eaf","study_id":"605e2a800ccfa0c8e820d869","session_id":"6062209890a0af71ed01b72e"},{"rt":2263.3650000207126,"stimulus":"img/00561.png","slider_start":4,"response":4,"trial_type":"image-slider-response","trial_index":76,"time_elapsed":271562,"internal_node_id":"0.0-3.0-0.73","subject_id":"5fe2669dc299b8e2f9901eaf","study_id":"605e2a800ccfa0c8e820d869","session_id":"6062209890a0af71ed01b72e"},{"rt":1461.9999999995343,"stimulus":"img/00569.png","slider_start":4,"response":4,"trial_type":"image-slider-response","trial_index":77,"time_elapsed":273025,"internal_node_id":"0.0-3.0-0.74","subject_id":"5fe2669dc299b8e2f9901eaf","study_id":"605e2a800ccfa0c8e820d869","session_id":"6062209890a0af71ed01b72e"},{"rt":1486.6800000309013,"stimulus":"img/00913.png","slider_start":4,"response":4,"trial_type":"image-slider-response","trial_index":78,"time_elapsed":274513,"internal_node_id":"0.0-3.0-0.75","subject_id":"5fe2669dc299b8e2f9901eaf","study_id":"605e2a800ccfa0c8e820d869","session_id":"6062209890a0af71ed01b72e"},{"rt":2238.870000001043,"stimulus":"img/00853.png","slider_start":4,"response":4,"trial_type":"image-slider-response","trial_index":79,"time_elapsed":276753,"internal_node_id":"0.0-3.0-0.76","subject_id":"5fe2669dc299b8e2f9901eaf","study_id":"605e2a800ccfa0c8e820d869","session_id":"6062209890a0af71ed01b72e"},{"rt":1630.9050000272691,"stimulus":"img/00825.png","slider_start":4,"response":4,"trial_type":"image-slider-response","trial_index":80,"time_elapsed":278385,"internal_node_id":"0.0-3.0-0.77","subject_id":"5fe2669dc299b8e2f9901eaf","study_id":"605e2a800ccfa0c8e820d869","session_id":"6062209890a0af71ed01b72e"},{"rt":3662.919999973383,"stimulus":"img/00093.png","slider_start":4,"response":3,"trial_type":"image-slider-response","trial_index":81,"time_elapsed":282049,"internal_node_id":"0.0-3.0-0.78","subject_id":"5fe2669dc299b8e2f9901eaf","study_id":"605e2a800ccfa0c8e820d869","session_id":"6062209890a0af71ed01b72e"},{"rt":2054.665000003297,"stimulus":"img/00867.png","slider_start":4,"response":4,"trial_type":"image-slider-response","trial_index":82,"time_elapsed":284105,"internal_node_id":"0.0-3.0-0.79","subject_id":"5fe2669dc299b8e2f9901eaf","study_id":"605e2a800ccfa0c8e820d869","session_id":"6062209890a0af71ed01b72e"},{"rt":4087.0100000174716,"stimulus":"img/00801.png","slider_start":4,"response":4,"trial_type":"image-slider-response","trial_index":83,"time_elapsed":288193,"internal_node_id":"0.0-3.0-0.80","subject_id":"5fe2669dc299b8e2f9901eaf","study_id":"605e2a800ccfa0c8e820d869","session_id":"6062209890a0af71ed01b72e"},{"rt":2294.540000031702,"stimulus":"img/00115.png","slider_start":4,"response":3,"trial_type":"image-slider-response","trial_index":84,"time_elapsed":290489,"internal_node_id":"0.0-3.0-0.81","subject_id":"5fe2669dc299b8e2f9901eaf","study_id":"605e2a800ccfa0c8e820d869","session_id":"6062209890a0af71ed01b72e"},{"rt":3102.9499999713153,"stimulus":"img/00973.png","slider_start":4,"response":3,"trial_type":"image-slider-response","trial_index":85,"time_elapsed":293593,"internal_node_id":"0.0-3.0-0.82","subject_id":"5fe2669dc299b8e2f9901eaf","study_id":"605e2a800ccfa0c8e820d869","session_id":"6062209890a0af71ed01b72e"},{"rt":2862.5299999839626,"stimulus":"img/00405.png","slider_start":4,"response":4,"trial_type":"image-slider-response","trial_index":86,"time_elapsed":296457,"internal_node_id":"0.0-3.0-0.83","subject_id":"5fe2669dc299b8e2f9901eaf","study_id":"605e2a800ccfa0c8e820d869","session_id":"6062209890a0af71ed01b72e"},{"rt":6030.490000033751,"stimulus":"img/00686.png","slider_start":4,"response":5,"trial_type":"image-slider-response","trial_index":87,"time_elapsed":302489,"internal_node_id":"0.0-3.0-0.84","subject_id":"5fe2669dc299b8e2f9901eaf","study_id":"605e2a800ccfa0c8e820d869","session_id":"6062209890a0af71ed01b72e"},{"rt":2950.5999999819323,"stimulus":"img/00690.png","slider_start":4,"response":6,"trial_type":"image-slider-response","trial_index":88,"time_elapsed":305441,"internal_node_id":"0.0-3.0-0.85","subject_id":"5fe2669dc299b8e2f9901eaf","study_id":"605e2a800ccfa0c8e820d869","session_id":"6062209890a0af71ed01b72e"},{"rt":2558.729999989737,"stimulus":"img/00998.png","slider_start":4,"response":3,"trial_type":"image-slider-response","trial_index":89,"time_elapsed":308001,"internal_node_id":"0.0-3.0-0.86","subject_id":"5fe2669dc299b8e2f9901eaf","study_id":"605e2a800ccfa0c8e820d869","session_id":"6062209890a0af71ed01b72e"},{"rt":1958.8249999796972,"stimulus":"img/00988.png","slider_start":4,"response":4,"trial_type":"image-slider-response","trial_index":90,"time_elapsed":309961,"internal_node_id":"0.0-3.0-0.87","subject_id":"5fe2669dc299b8e2f9901eaf","study_id":"605e2a800ccfa0c8e820d869","session_id":"6062209890a0af71ed01b72e"},{"rt":3206.685000041034,"stimulus":"img/00879.png","slider_start":4,"response":4,"trial_type":"image-slider-response","trial_index":91,"time_elapsed":313169,"internal_node_id":"0.0-3.0-0.88","subject_id":"5fe2669dc299b8e2f9901eaf","study_id":"605e2a800ccfa0c8e820d869","session_id":"6062209890a0af71ed01b72e"},{"rt":2223.085000005085,"stimulus":"img/00956.png","slider_start":4,"response":4,"trial_type":"image-slider-response","trial_index":92,"time_elapsed":315394,"internal_node_id":"0.0-3.0-0.89","subject_id":"5fe2669dc299b8e2f9901eaf","study_id":"605e2a800ccfa0c8e820d869","session_id":"6062209890a0af71ed01b72e"},{"rt":3518.5599999967963,"stimulus":"img/00002.png","slider_start":4,"response":5,"trial_type":"image-slider-response","trial_index":93,"time_elapsed":318913,"internal_node_id":"0.0-3.0-0.90","subject_id":"5fe2669dc299b8e2f9901eaf","study_id":"605e2a800ccfa0c8e820d869","session_id":"6062209890a0af71ed01b72e"},{"rt":3430.609999981243,"stimulus":"img/00603.png","slider_start":4,"response":3,"trial_type":"image-slider-response","trial_index":94,"time_elapsed":322345,"internal_node_id":"0.0-3.0-0.91","subject_id":"5fe2669dc299b8e2f9901eaf","study_id":"605e2a800ccfa0c8e820d869","session_id":"6062209890a0af71ed01b72e"},{"rt":1542.5750000285916,"stimulus":"img/00100.png","slider_start":4,"response":4,"trial_type":"image-slider-response","trial_index":95,"time_elapsed":323889,"internal_node_id":"0.0-3.0-0.92","subject_id":"5fe2669dc299b8e2f9901eaf","study_id":"605e2a800ccfa0c8e820d869","session_id":"6062209890a0af71ed01b72e"},{"rt":3854.9300000304356,"stimulus":"img/00995.png","slider_start":4,"response":6,"trial_type":"image-slider-response","trial_index":96,"time_elapsed":327745,"internal_node_id":"0.0-3.0-0.93","subject_id":"5fe2669dc299b8e2f9901eaf","study_id":"605e2a800ccfa0c8e820d869","session_id":"6062209890a0af71ed01b72e"},{"rt":1966.6299999807961,"stimulus":"img/00508.png","slider_start":4,"response":5,"trial_type":"image-slider-response","trial_index":97,"time_elapsed":329713,"internal_node_id":"0.0-3.0-0.94","subject_id":"5fe2669dc299b8e2f9901eaf","study_id":"605e2a800ccfa0c8e820d869","session_id":"6062209890a0af71ed01b72e"},{"rt":3518.8649999909103,"stimulus":"img/00623.png","slider_start":4,"response":6,"trial_type":"image-slider-response","trial_index":98,"time_elapsed":333234,"internal_node_id":"0.0-3.0-0.95","subject_id":"5fe2669dc299b8e2f9901eaf","study_id":"605e2a800ccfa0c8e820d869","session_id":"6062209890a0af71ed01b72e"},{"rt":2758.8700000196695,"stimulus":"img/00404.png","slider_start":4,"response":5,"trial_type":"image-slider-response","trial_index":99,"time_elapsed":335994,"internal_node_id":"0.0-3.0-0.96","subject_id":"5fe2669dc299b8e2f9901eaf","study_id":"605e2a800ccfa0c8e820d869","session_id":"6062209890a0af71ed01b72e"},{"rt":3446.185000007972,"stimulus":"img/00594.png","slider_start":4,"response":5,"trial_type":"image-slider-response","trial_index":100,"time_elapsed":339442,"internal_node_id":"0.0-3.0-0.97","subject_id":"5fe2669dc299b8e2f9901eaf","study_id":"605e2a800ccfa0c8e820d869","session_id":"6062209890a0af71ed01b72e"},{"rt":1854.619999998249,"stimulus":"img/00989.png","slider_start":4,"response":4,"trial_type":"image-slider-response","trial_index":101,"time_elapsed":341298,"internal_node_id":"0.0-3.0-0.98","subject_id":"5fe2669dc299b8e2f9901eaf","study_id":"605e2a800ccfa0c8e820d869","session_id":"6062209890a0af71ed01b72e"},{"rt":2927.045000018552,"stimulus":"img/00570.png","slider_start":4,"response":5,"trial_type":"image-slider-response","trial_index":102,"time_elapsed":344226,"internal_node_id":"0.0-3.0-0.99","subject_id":"5fe2669dc299b8e2f9901eaf","study_id":"605e2a800ccfa0c8e820d869","session_id":"6062209890a0af71ed01b72e"},{"rt":4086.249999993015,"stimulus":"img/00460.png","slider_start":4,"response":5,"trial_type":"image-slider-response","trial_index":103,"time_elapsed":348314,"internal_node_id":"0.0-3.0-0.100","subject_id":"5fe2669dc299b8e2f9901eaf","study_id":"605e2a800ccfa0c8e820d869","session_id":"6062209890a0af71ed01b72e"},{"rt":6926.600000006147,"stimulus":"img/00554.png","slider_start":4,"response":4,"trial_type":"image-slider-response","trial_index":104,"time_elapsed":355242,"internal_node_id":"0.0-3.0-0.101","subject_id":"5fe2669dc299b8e2f9901eaf","study_id":"605e2a800ccfa0c8e820d869","session_id":"6062209890a0af71ed01b72e"},{"rt":6358.054999960586,"stimulus":"img/00951.png","slider_start":4,"response":3,"trial_type":"image-slider-response","trial_index":105,"time_elapsed":361602,"internal_node_id":"0.0-3.0-0.102","subject_id":"5fe2669dc299b8e2f9901eaf","study_id":"605e2a800ccfa0c8e820d869","session_id":"6062209890a0af71ed01b72e"},{"rt":6182.559999986552,"stimulus":"img/00982.png","slider_start":4,"response":5,"trial_type":"image-slider-response","trial_index":106,"time_elapsed":367786,"internal_node_id":"0.0-3.0-0.103","subject_id":"5fe2669dc299b8e2f9901eaf","study_id":"605e2a800ccfa0c8e820d869","session_id":"6062209890a0af71ed01b72e"},{"rt":5422.714999993332,"stimulus":"img/00967.png","slider_start":4,"response":4,"trial_type":"image-slider-response","trial_index":107,"time_elapsed":373210,"internal_node_id":"0.0-3.0-0.104","subject_id":"5fe2669dc299b8e2f9901eaf","study_id":"605e2a800ccfa0c8e820d869","session_id":"6062209890a0af71ed01b72e"},{"rt":3590.3549999929965,"stimulus":"img/00130.png","slider_start":4,"response":5,"trial_type":"image-slider-response","trial_index":108,"time_elapsed":376802,"internal_node_id":"0.0-3.0-0.105","subject_id":"5fe2669dc299b8e2f9901eaf","study_id":"605e2a800ccfa0c8e820d869","session_id":"6062209890a0af71ed01b72e"},{"rt":1918.5450000222772,"stimulus":"img/00059.png","slider_start":4,"response":5,"trial_type":"image-slider-response","trial_index":109,"time_elapsed":378722,"internal_node_id":"0.0-3.0-0.106","subject_id":"5fe2669dc299b8e2f9901eaf","study_id":"605e2a800ccfa0c8e820d869","session_id":"6062209890a0af71ed01b72e"},{"rt":3358.9149999897927,"stimulus":"img/00113.png","slider_start":4,"response":3,"trial_type":"image-slider-response","trial_index":110,"time_elapsed":382082,"internal_node_id":"0.0-3.0-0.107","subject_id":"5fe2669dc299b8e2f9901eaf","study_id":"605e2a800ccfa0c8e820d869","session_id":"6062209890a0af71ed01b72e"},{"rt":4134.725000010803,"stimulus":"img/00612.png","slider_start":4,"response":3,"trial_type":"image-slider-response","trial_index":111,"time_elapsed":386218,"internal_node_id":"0.0-3.0-0.108","subject_id":"5fe2669dc299b8e2f9901eaf","study_id":"605e2a800ccfa0c8e820d869","session_id":"6062209890a0af71ed01b72e"},{"rt":2302.650000026915,"stimulus":"img/40.png","slider_start":4,"response":3,"trial_type":"image-slider-response","trial_index":112,"time_elapsed":388522,"internal_node_id":"0.0-3.0-0.109","subject_id":"5fe2669dc299b8e2f9901eaf","study_id":"605e2a800ccfa0c8e820d869","session_id":"6062209890a0af71ed01b72e"},{"rt":2318.9150000107475,"stimulus":"img/00810.png","slider_start":4,"response":4,"trial_type":"image-slider-response","trial_index":113,"time_elapsed":390842,"internal_node_id":"0.0-3.0-0.110","subject_id":"5fe2669dc299b8e2f9901eaf","study_id":"605e2a800ccfa0c8e820d869","session_id":"6062209890a0af71ed01b72e"},{"rt":2886.7600000230595,"stimulus":"img/00815.png","slider_start":4,"response":5,"trial_type":"image-slider-response","trial_index":114,"time_elapsed":393730,"internal_node_id":"0.0-3.0-0.111","subject_id":"5fe2669dc299b8e2f9901eaf","study_id":"605e2a800ccfa0c8e820d869","session_id":"6062209890a0af71ed01b72e"},{"rt":4430.930000031367,"stimulus":"img/00464.png","slider_start":4,"response":5,"trial_type":"image-slider-response","trial_index":115,"time_elapsed":398162,"internal_node_id":"0.0-3.0-0.112","subject_id":"5fe2669dc299b8e2f9901eaf","study_id":"605e2a800ccfa0c8e820d869","session_id":"6062209890a0af71ed01b72e"},{"rt":3246.5400000219233,"stimulus":"img/00437.png","slider_start":4,"response":5,"trial_type":"image-slider-response","trial_index":116,"time_elapsed":401410,"internal_node_id":"0.0-3.0-0.113","subject_id":"5fe2669dc299b8e2f9901eaf","study_id":"605e2a800ccfa0c8e820d869","session_id":"6062209890a0af71ed01b72e"},{"rt":1806.7249999730848,"stimulus":"img/00563.png","slider_start":4,"response":5,"trial_type":"image-slider-response","trial_index":117,"time_elapsed":403218,"internal_node_id":"0.0-3.0-0.114","subject_id":"5fe2669dc299b8e2f9901eaf","study_id":"605e2a800ccfa0c8e820d869","session_id":"6062209890a0af71ed01b72e"},{"rt":2966.885000001639,"stimulus":"img/00898.png","slider_start":4,"response":3,"trial_type":"image-slider-response","trial_index":118,"time_elapsed":406186,"internal_node_id":"0.0-3.0-0.115","subject_id":"5fe2669dc299b8e2f9901eaf","study_id":"605e2a800ccfa0c8e820d869","session_id":"6062209890a0af71ed01b72e"},{"rt":2982.6900000334717,"stimulus":"img/00016.png","slider_start":4,"response":3,"trial_type":"image-slider-response","trial_index":119,"time_elapsed":409170,"internal_node_id":"0.0-3.0-0.116","subject_id":"5fe2669dc299b8e2f9901eaf","study_id":"605e2a800ccfa0c8e820d869","session_id":"6062209890a0af71ed01b72e"},{"rt":2478.8600000320002,"stimulus":"img/00747.png","slider_start":4,"response":4,"trial_type":"image-slider-response","trial_index":120,"time_elapsed":411650,"internal_node_id":"0.0-3.0-0.117","subject_id":"5fe2669dc299b8e2f9901eaf","study_id":"605e2a800ccfa0c8e820d869","session_id":"6062209890a0af71ed01b72e"},{"rt":2166.9349999865517,"stimulus":"img/00928.png","slider_start":4,"response":5,"trial_type":"image-slider-response","trial_index":121,"time_elapsed":413818,"internal_node_id":"0.0-3.0-0.118","subject_id":"5fe2669dc299b8e2f9901eaf","study_id":"605e2a800ccfa0c8e820d869","session_id":"6062209890a0af71ed01b72e"},{"rt":2478.8399999961257,"stimulus":"img/00542.png","slider_start":4,"response":3,"trial_type":"image-slider-response","trial_index":122,"time_elapsed":416298,"internal_node_id":"0.0-3.0-0.119","subject_id":"5fe2669dc299b8e2f9901eaf","study_id":"605e2a800ccfa0c8e820d869","session_id":"6062209890a0af71ed01b72e"},{"rt":4534.600000013597,"stimulus":"img/00780.png","slider_start":4,"response":4,"trial_type":"image-slider-response","trial_index":123,"time_elapsed":420834,"internal_node_id":"0.0-3.0-0.120","subject_id":"5fe2669dc299b8e2f9901eaf","study_id":"605e2a800ccfa0c8e820d869","session_id":"6062209890a0af71ed01b72e"},{"rt":1686.2049999763258,"stimulus":"img/00428.png","slider_start":4,"response":4,"trial_type":"image-slider-response","trial_index":124,"time_elapsed":422522,"internal_node_id":"0.0-3.0-0.121","subject_id":"5fe2669dc299b8e2f9901eaf","study_id":"605e2a800ccfa0c8e820d869","session_id":"6062209890a0af71ed01b72e"},{"rt":3518.9099999843165,"stimulus":"img/00549.png","slider_start":4,"response":5,"trial_type":"image-slider-response","trial_index":125,"time_elapsed":426042,"internal_node_id":"0.0-3.0-0.122","subject_id":"5fe2669dc299b8e2f9901eaf","study_id":"605e2a800ccfa0c8e820d869","session_id":"6062209890a0af71ed01b72e"},{"rt":2358.264999988023,"stimulus":"img/00543.png","slider_start":4,"response":4,"trial_type":"image-slider-response","trial_index":126,"time_elapsed":428402,"internal_node_id":"0.0-3.0-0.123","subject_id":"5fe2669dc299b8e2f9901eaf","study_id":"605e2a800ccfa0c8e820d869","session_id":"6062209890a0af71ed01b72e"},{"rt":3678.879999963101,"stimulus":"img/00077.png","slider_start":4,"response":5,"trial_type":"image-slider-response","trial_index":127,"time_elapsed":432082,"internal_node_id":"0.0-3.0-0.124","subject_id":"5fe2669dc299b8e2f9901eaf","study_id":"605e2a800ccfa0c8e820d869","session_id":"6062209890a0af71ed01b72e"},{"rt":2974.6649999869987,"stimulus":"img/00503.png","slider_start":4,"response":4,"trial_type":"image-slider-response","trial_index":128,"time_elapsed":435058,"internal_node_id":"0.0-3.0-0.125","subject_id":"5fe2669dc299b8e2f9901eaf","study_id":"605e2a800ccfa0c8e820d869","session_id":"6062209890a0af71ed01b72e"},{"rt":3087.0400000130758,"stimulus":"img/00041.png","slider_start":4,"response":4,"trial_type":"image-slider-response","trial_index":129,"time_elapsed":438146,"internal_node_id":"0.0-3.0-0.126","subject_id":"5fe2669dc299b8e2f9901eaf","study_id":"605e2a800ccfa0c8e820d869","session_id":"6062209890a0af71ed01b72e"},{"rt":2430.594999983441,"stimulus":"img/00930.png","slider_start":4,"response":5,"trial_type":"image-slider-response","trial_index":130,"time_elapsed":440578,"internal_node_id":"0.0-3.0-0.127","subject_id":"5fe2669dc299b8e2f9901eaf","study_id":"605e2a800ccfa0c8e820d869","session_id":"6062209890a0af71ed01b72e"},{"rt":7438.764999969862,"stimulus":"img/00454.png","slider_start":4,"response":4,"trial_type":"image-slider-response","trial_index":131,"time_elapsed":448018,"internal_node_id":"0.0-3.0-0.128","subject_id":"5fe2669dc299b8e2f9901eaf","study_id":"605e2a800ccfa0c8e820d869","session_id":"6062209890a0af71ed01b72e"},{"rt":12358.644999971148,"stimulus":"img/00789.png","slider_start":4,"response":3,"trial_type":"image-slider-response","trial_index":132,"time_elapsed":460377,"internal_node_id":"0.0-3.0-0.129","subject_id":"5fe2669dc299b8e2f9901eaf","study_id":"605e2a800ccfa0c8e820d869","session_id":"6062209890a0af71ed01b72e"},{"rt":4814.639999996871,"stimulus":"img/00833.png","slider_start":4,"response":4,"trial_type":"image-slider-response","trial_index":133,"time_elapsed":465193,"internal_node_id":"0.0-3.0-0.130","subject_id":"5fe2669dc299b8e2f9901eaf","study_id":"605e2a800ccfa0c8e820d869","session_id":"6062209890a0af71ed01b72e"},{"rt":2942.0399999944493,"stimulus":"img/00424.png","slider_start":4,"response":4,"trial_type":"image-slider-response","trial_index":134,"time_elapsed":468137,"internal_node_id":"0.0-3.0-0.131","subject_id":"5fe2669dc299b8e2f9901eaf","study_id":"605e2a800ccfa0c8e820d869","session_id":"6062209890a0af71ed01b72e"},{"rt":2822.6400000276044,"stimulus":"img/00440.png","slider_start":4,"response":3,"trial_type":"image-slider-response","trial_index":135,"time_elapsed":470961,"internal_node_id":"0.0-3.0-0.132","subject_id":"5fe2669dc299b8e2f9901eaf","study_id":"605e2a800ccfa0c8e820d869","session_id":"6062209890a0af71ed01b72e"},{"rt":3590.6449999893084,"stimulus":"img/00023.png","slider_start":4,"response":4,"trial_type":"image-slider-response","trial_index":136,"time_elapsed":474553,"internal_node_id":"0.0-3.0-0.133","subject_id":"5fe2669dc299b8e2f9901eaf","study_id":"605e2a800ccfa0c8e820d869","session_id":"6062209890a0af71ed01b72e"},{"rt":2654.5399999595247,"stimulus":"img/00101.png","slider_start":4,"response":4,"trial_type":"image-slider-response","trial_index":137,"time_elapsed":477209,"internal_node_id":"0.0-3.0-0.134","subject_id":"5fe2669dc299b8e2f9901eaf","study_id":"605e2a800ccfa0c8e820d869","session_id":"6062209890a0af71ed01b72e"},{"rt":1430.850000004284,"stimulus":"img/00790.png","slider_start":4,"response":4,"trial_type":"image-slider-response","trial_index":138,"time_elapsed":478641,"internal_node_id":"0.0-3.0-0.135","subject_id":"5fe2669dc299b8e2f9901eaf","study_id":"605e2a800ccfa0c8e820d869","session_id":"6062209890a0af71ed01b72e"},{"rt":2438.689999980852,"stimulus":"img/00722.png","slider_start":4,"response":4,"trial_type":"image-slider-response","trial_index":139,"time_elapsed":481081,"internal_node_id":"0.0-3.0-0.136","subject_id":"5fe2669dc299b8e2f9901eaf","study_id":"605e2a800ccfa0c8e820d869","session_id":"6062209890a0af71ed01b72e"},{"rt":8102.825000009034,"stimulus":"img/00896.png","slider_start":4,"response":3,"trial_type":"image-slider-response","trial_index":140,"time_elapsed":489185,"internal_node_id":"0.0-3.0-0.137","subject_id":"5fe2669dc299b8e2f9901eaf","study_id":"605e2a800ccfa0c8e820d869","session_id":"6062209890a0af71ed01b72e"},{"rt":5486.529999994673,"stimulus":"img/00427.png","slider_start":4,"response":6,"trial_type":"image-slider-response","trial_index":141,"time_elapsed":494673,"internal_node_id":"0.0-3.0-0.138","subject_id":"5fe2669dc299b8e2f9901eaf","study_id":"605e2a800ccfa0c8e820d869","session_id":"6062209890a0af71ed01b72e"},{"rt":3085.880000027828,"stimulus":"img/00718.png","slider_start":4,"response":4,"trial_type":"image-slider-response","trial_index":142,"time_elapsed":497761,"internal_node_id":"0.0-3.0-0.139","subject_id":"5fe2669dc299b8e2f9901eaf","study_id":"605e2a800ccfa0c8e820d869","session_id":"6062209890a0af71ed01b72e"},{"rt":2093.4550000238232,"stimulus":"img/00822.png","slider_start":4,"response":4,"trial_type":"image-slider-response","trial_index":143,"time_elapsed":499857,"internal_node_id":"0.0-3.0-0.140","subject_id":"5fe2669dc299b8e2f9901eaf","study_id":"605e2a800ccfa0c8e820d869","session_id":"6062209890a0af71ed01b72e"},{"rt":2678.7350000231527,"stimulus":"img/00522.png","slider_start":4,"response":5,"trial_type":"image-slider-response","trial_index":144,"time_elapsed":502537,"internal_node_id":"0.0-3.0-0.141","subject_id":"5fe2669dc299b8e2f9901eaf","study_id":"605e2a800ccfa0c8e820d869","session_id":"6062209890a0af71ed01b72e"},{"rt":2718.8200000091456,"stimulus":"img/00957.png","slider_start":4,"response":4,"trial_type":"image-slider-response","trial_index":145,"time_elapsed":505257,"internal_node_id":"0.0-3.0-0.142","subject_id":"5fe2669dc299b8e2f9901eaf","study_id":"605e2a800ccfa0c8e820d869","session_id":"6062209890a0af71ed01b72e"},{"rt":2974.534999986645,"stimulus":"img/00432.png","slider_start":4,"response":5,"trial_type":"image-slider-response","trial_index":146,"time_elapsed":508233,"internal_node_id":"0.0-3.0-0.143","subject_id":"5fe2669dc299b8e2f9901eaf","study_id":"605e2a800ccfa0c8e820d869","session_id":"6062209890a0af71ed01b72e"},{"rt":2318.8000000081956,"stimulus":"img/00564.png","slider_start":4,"response":5,"trial_type":"image-slider-response","trial_index":147,"time_elapsed":510553,"internal_node_id":"0.0-3.0-0.144","subject_id":"5fe2669dc299b8e2f9901eaf","study_id":"605e2a800ccfa0c8e820d869","session_id":"6062209890a0af71ed01b72e"},{"rt":2942.909999983385,"stimulus":"img/00507.png","slider_start":4,"response":4,"trial_type":"image-slider-response","trial_index":148,"time_elapsed":513497,"internal_node_id":"0.0-3.0-0.145","subject_id":"5fe2669dc299b8e2f9901eaf","study_id":"605e2a800ccfa0c8e820d869","session_id":"6062209890a0af71ed01b72e"},{"rt":1902.745000028517,"stimulus":"img/00466.png","slider_start":4,"response":4,"trial_type":"image-slider-response","trial_index":149,"time_elapsed":515401,"internal_node_id":"0.0-3.0-0.146","subject_id":"5fe2669dc299b8e2f9901eaf","study_id":"605e2a800ccfa0c8e820d869","session_id":"6062209890a0af71ed01b72e"},{"rt":1694.435000012163,"stimulus":"img/00629.png","slider_start":4,"response":4,"trial_type":"image-slider-response","trial_index":150,"time_elapsed":517097,"internal_node_id":"0.0-3.0-0.147","subject_id":"5fe2669dc299b8e2f9901eaf","study_id":"605e2a800ccfa0c8e820d869","session_id":"6062209890a0af71ed01b72e"},{"rt":4294.929999974556,"stimulus":"img/00447.png","slider_start":4,"response":4,"trial_type":"image-slider-response","trial_index":151,"time_elapsed":521393,"internal_node_id":"0.0-3.0-0.148","subject_id":"5fe2669dc299b8e2f9901eaf","study_id":"605e2a800ccfa0c8e820d869","session_id":"6062209890a0af71ed01b72e"},{"rt":2846.3900000206195,"stimulus":"img/00576.png","slider_start":4,"response":5,"trial_type":"image-slider-response","trial_index":152,"time_elapsed":524241,"internal_node_id":"0.0-3.0-0.149","subject_id":"5fe2669dc299b8e2f9901eaf","study_id":"605e2a800ccfa0c8e820d869","session_id":"6062209890a0af71ed01b72e"},{"rt":4414.534999988973,"stimulus":"img/00708.png","slider_start":4,"response":6,"trial_type":"image-slider-response","trial_index":153,"time_elapsed":528657,"internal_node_id":"0.0-3.0-0.150","subject_id":"5fe2669dc299b8e2f9901eaf","study_id":"605e2a800ccfa0c8e820d869","session_id":"6062209890a0af71ed01b72e"},{"rt":4638.269999995828,"stimulus":"img/00439.png","slider_start":4,"response":3,"trial_type":"image-slider-response","trial_index":154,"time_elapsed":533297,"internal_node_id":"0.0-3.0-0.151","subject_id":"5fe2669dc299b8e2f9901eaf","study_id":"605e2a800ccfa0c8e820d869","session_id":"6062209890a0af71ed01b72e"},{"rt":3078.6000000080094,"stimulus":"img/00752.png","slider_start":4,"response":3,"trial_type":"image-slider-response","trial_index":155,"time_elapsed":536377,"internal_node_id":"0.0-3.0-0.152","subject_id":"5fe2669dc299b8e2f9901eaf","study_id":"605e2a800ccfa0c8e820d869","session_id":"6062209890a0af71ed01b72e"},{"rt":2622.884999960661,"stimulus":"img/00691.png","slider_start":4,"response":3,"trial_type":"image-slider-response","trial_index":156,"time_elapsed":539001,"internal_node_id":"0.0-3.0-0.153","subject_id":"5fe2669dc299b8e2f9901eaf","study_id":"605e2a800ccfa0c8e820d869","session_id":"6062209890a0af71ed01b72e"},{"rt":1287.2250000364147,"stimulus":"img/00079.png","slider_start":4,"response":4,"trial_type":"image-slider-response","trial_index":157,"time_elapsed":540289,"internal_node_id":"0.0-3.0-0.154","subject_id":"5fe2669dc299b8e2f9901eaf","study_id":"605e2a800ccfa0c8e820d869","session_id":"6062209890a0af71ed01b72e"},{"rt":3502.6949999737553,"stimulus":"img/00456.png","slider_start":4,"response":4,"trial_type":"image-slider-response","trial_index":158,"time_elapsed":543793,"internal_node_id":"0.0-3.0-0.155","subject_id":"5fe2669dc299b8e2f9901eaf","study_id":"605e2a800ccfa0c8e820d869","session_id":"6062209890a0af71ed01b72e"},{"rt":2037.4249999877065,"stimulus":"img/00860.png","slider_start":4,"response":4,"trial_type":"image-slider-response","trial_index":159,"time_elapsed":545833,"internal_node_id":"0.0-3.0-0.156","subject_id":"5fe2669dc299b8e2f9901eaf","study_id":"605e2a800ccfa0c8e820d869","session_id":"6062209890a0af71ed01b72e"},{"rt":5425.465000036638,"stimulus":"img/00481.png","slider_start":4,"response":4,"trial_type":"image-slider-response","trial_index":160,"time_elapsed":551265,"internal_node_id":"0.0-3.0-0.157","subject_id":"5fe2669dc299b8e2f9901eaf","study_id":"605e2a800ccfa0c8e820d869","session_id":"6062209890a0af71ed01b72e"},{"rt":2246.220000030007,"stimulus":"img/00760.png","slider_start":4,"response":4,"trial_type":"image-slider-response","trial_index":161,"time_elapsed":553513,"internal_node_id":"0.0-3.0-0.158","subject_id":"5fe2669dc299b8e2f9901eaf","study_id":"605e2a800ccfa0c8e820d869","session_id":"6062209890a0af71ed01b72e"},{"rt":3470.9149999544024,"stimulus":"img/00479.png","slider_start":4,"response":4,"trial_type":"image-slider-response","trial_index":162,"time_elapsed":556985,"internal_node_id":"0.0-3.0-0.159","subject_id":"5fe2669dc299b8e2f9901eaf","study_id":"605e2a800ccfa0c8e820d869","session_id":"6062209890a0af71ed01b72e"},{"rt":2982.8949999646284,"stimulus":"img/00793.png","slider_start":4,"response":5,"trial_type":"image-slider-response","trial_index":163,"time_elapsed":559969,"internal_node_id":"0.0-3.0-0.160","subject_id":"5fe2669dc299b8e2f9901eaf","study_id":"605e2a800ccfa0c8e820d869","session_id":"6062209890a0af71ed01b72e"},{"rt":3478.590000013355,"stimulus":"img/00029.png","slider_start":4,"response":3,"trial_type":"image-slider-response","trial_index":164,"time_elapsed":563449,"internal_node_id":"0.0-3.0-0.161","subject_id":"5fe2669dc299b8e2f9901eaf","study_id":"605e2a800ccfa0c8e820d869","session_id":"6062209890a0af71ed01b72e"},{"rt":2710.5899999733083,"stimulus":"img/00401.png","slider_start":4,"response":4,"trial_type":"image-slider-response","trial_index":165,"time_elapsed":566161,"internal_node_id":"0.0-3.0-0.162","subject_id":"5fe2669dc299b8e2f9901eaf","study_id":"605e2a800ccfa0c8e820d869","session_id":"6062209890a0af71ed01b72e"},{"rt":2454.8000000067987,"stimulus":"img/00006.png","slider_start":4,"response":5,"trial_type":"image-slider-response","trial_index":166,"time_elapsed":568617,"internal_node_id":"0.0-3.0-0.163","subject_id":"5fe2669dc299b8e2f9901eaf","study_id":"605e2a800ccfa0c8e820d869","session_id":"6062209890a0af71ed01b72e"},{"rt":2230.9499999973923,"stimulus":"img/00817.png","slider_start":4,"response":4,"trial_type":"image-slider-response","trial_index":167,"time_elapsed":570849,"internal_node_id":"0.0-3.0-0.164","subject_id":"5fe2669dc299b8e2f9901eaf","study_id":"605e2a800ccfa0c8e820d869","session_id":"6062209890a0af71ed01b72e"},{"rt":1470.865000039339,"stimulus":"img/00496.png","slider_start":4,"response":4,"trial_type":"image-slider-response","trial_index":168,"time_elapsed":572321,"internal_node_id":"0.0-3.0-0.165","subject_id":"5fe2669dc299b8e2f9901eaf","study_id":"605e2a800ccfa0c8e820d869","session_id":"6062209890a0af71ed01b72e"},{"rt":2662.875000038184,"stimulus":"img/00850.png","slider_start":4,"response":4,"trial_type":"image-slider-response","trial_index":169,"time_elapsed":574985,"internal_node_id":"0.0-3.0-0.166","subject_id":"5fe2669dc299b8e2f9901eaf","study_id":"605e2a800ccfa0c8e820d869","session_id":"6062209890a0af71ed01b72e"},{"rt":11798.87499997858,"stimulus":"img/00759.png","slider_start":4,"response":4,"trial_type":"image-slider-response","trial_index":170,"time_elapsed":586785,"internal_node_id":"0.0-3.0-0.167","subject_id":"5fe2669dc299b8e2f9901eaf","study_id":"605e2a800ccfa0c8e820d869","session_id":"6062209890a0af71ed01b72e"},{"rt":3974.6650000452064,"stimulus":"img/00545.png","slider_start":4,"response":4,"trial_type":"image-slider-response","trial_index":171,"time_elapsed":590761,"internal_node_id":"0.0-3.0-0.168","subject_id":"5fe2669dc299b8e2f9901eaf","study_id":"605e2a800ccfa0c8e820d869","session_id":"6062209890a0af71ed01b72e"},{"rt":2646.8799999565817,"stimulus":"img/00415.png","slider_start":4,"response":4,"trial_type":"image-slider-response","trial_index":172,"time_elapsed":593409,"internal_node_id":"0.0-3.0-0.169","subject_id":"5fe2669dc299b8e2f9901eaf","study_id":"605e2a800ccfa0c8e820d869","session_id":"6062209890a0af71ed01b72e"},{"rt":5582.504999998491,"stimulus":"img/00731.png","slider_start":4,"response":4,"trial_type":"image-slider-response","trial_index":173,"time_elapsed":598993,"internal_node_id":"0.0-3.0-0.170","subject_id":"5fe2669dc299b8e2f9901eaf","study_id":"605e2a800ccfa0c8e820d869","session_id":"6062209890a0af71ed01b72e"},{"rt":2373.014999961015,"stimulus":"img/00785.png","slider_start":4,"response":5,"trial_type":"image-slider-response","trial_index":174,"time_elapsed":601369,"internal_node_id":"0.0-3.0-0.171","subject_id":"5fe2669dc299b8e2f9901eaf","study_id":"605e2a800ccfa0c8e820d869","session_id":"6062209890a0af71ed01b72e"}]