[{"rt":9615,"stimulus":"Welcome to the experiment. Press any key to begin.","response":" ","trial_type":"html-keyboard-response","trial_index":0,"time_elapsed":9619,"internal_node_id":"0.0-0.0","subject_id":"5f68b8416b15d601691eddf7","study_id":"605e2a800ccfa0c8e820d869","session_id":"6062209b0d52e7ad9a4193fd"},{"rt":5633,"stimulus":"\n        <p>In this experiment, a face will appear on-screen.</p><p> <strong>Rate the face on a 1 - 7 scale based on how attractive he / she is.</strong> </p>\n        </div>\n        <p>Press any key to begin.</p>\n      ","response":" ","trial_type":"html-keyboard-response","trial_index":1,"time_elapsed":15255,"internal_node_id":"0.0-1.0","subject_id":"5f68b8416b15d601691eddf7","study_id":"605e2a800ccfa0c8e820d869","session_id":"6062209b0d52e7ad9a4193fd"},{"success":true,"timeout":false,"failed_images":[],"failed_audio":[],"failed_video":[],"trial_type":"preload","trial_index":2,"time_elapsed":123295,"internal_node_id":"0.0-2.0","subject_id":"5f68b8416b15d601691eddf7","study_id":"605e2a800ccfa0c8e820d869","session_id":"6062209b0d52e7ad9a4193fd"},{"rt":11046,"stimulus":"img/00012.png","slider_start":4,"response":2,"trial_type":"image-slider-response","trial_index":3,"time_elapsed":134357,"internal_node_id":"0.0-3.0-0.0","subject_id":"5f68b8416b15d601691eddf7","study_id":"605e2a800ccfa0c8e820d869","session_id":"6062209b0d52e7ad9a4193fd"},{"rt":6778,"stimulus":"img/00079.png","slider_start":4,"response":5,"trial_type":"image-slider-response","trial_index":4,"time_elapsed":141149,"internal_node_id":"0.0-3.0-0.1","subject_id":"5f68b8416b15d601691eddf7","study_id":"605e2a800ccfa0c8e820d869","session_id":"6062209b0d52e7ad9a4193fd"},{"rt":8011,"stimulus":"img/00949.png","slider_start":4,"response":2,"trial_type":"image-slider-response","trial_index":5,"time_elapsed":149173,"internal_node_id":"0.0-3.0-0.2","subject_id":"5f68b8416b15d601691eddf7","study_id":"605e2a800ccfa0c8e820d869","session_id":"6062209b0d52e7ad9a4193fd"},{"rt":10164,"stimulus":"img/00998.png","slider_start":4,"response":3,"trial_type":"image-slider-response","trial_index":6,"time_elapsed":159351,"internal_node_id":"0.0-3.0-0.3","subject_id":"5f68b8416b15d601691eddf7","study_id":"605e2a800ccfa0c8e820d869","session_id":"6062209b0d52e7ad9a4193fd"},{"rt":4592,"stimulus":"img/00440.png","slider_start":4,"response":4,"trial_type":"image-slider-response","trial_index":7,"time_elapsed":163958,"internal_node_id":"0.0-3.0-0.4","subject_id":"5f68b8416b15d601691eddf7","study_id":"605e2a800ccfa0c8e820d869","session_id":"6062209b0d52e7ad9a4193fd"},{"rt":4012,"stimulus":"img/00623.png","slider_start":4,"response":4,"trial_type":"image-slider-response","trial_index":8,"time_elapsed":167982,"internal_node_id":"0.0-3.0-0.5","subject_id":"5f68b8416b15d601691eddf7","study_id":"605e2a800ccfa0c8e820d869","session_id":"6062209b0d52e7ad9a4193fd"},{"rt":4113,"stimulus":"img/00878.png","slider_start":4,"response":4,"trial_type":"image-slider-response","trial_index":9,"time_elapsed":172109,"internal_node_id":"0.0-3.0-0.6","subject_id":"5f68b8416b15d601691eddf7","study_id":"605e2a800ccfa0c8e820d869","session_id":"6062209b0d52e7ad9a4193fd"},{"rt":7592,"stimulus":"img/00428.png","slider_start":4,"response":2,"trial_type":"image-slider-response","trial_index":10,"time_elapsed":179718,"internal_node_id":"0.0-3.0-0.7","subject_id":"5f68b8416b15d601691eddf7","study_id":"605e2a800ccfa0c8e820d869","session_id":"6062209b0d52e7ad9a4193fd"},{"rt":3940,"stimulus":"img/00748.png","slider_start":4,"response":4,"trial_type":"image-slider-response","trial_index":11,"time_elapsed":183670,"internal_node_id":"0.0-3.0-0.8","subject_id":"5f68b8416b15d601691eddf7","study_id":"605e2a800ccfa0c8e820d869","session_id":"6062209b0d52e7ad9a4193fd"},{"rt":2634,"stimulus":"img/00569.png","slider_start":4,"response":3,"trial_type":"image-slider-response","trial_index":12,"time_elapsed":186318,"internal_node_id":"0.0-3.0-0.9","subject_id":"5f68b8416b15d601691eddf7","study_id":"605e2a800ccfa0c8e820d869","session_id":"6062209b0d52e7ad9a4193fd"},{"rt":6492,"stimulus":"img/00718.png","slider_start":4,"response":4,"trial_type":"image-slider-response","trial_index":13,"time_elapsed":192822,"internal_node_id":"0.0-3.0-0.10","subject_id":"5f68b8416b15d601691eddf7","study_id":"605e2a800ccfa0c8e820d869","session_id":"6062209b0d52e7ad9a4193fd"},{"rt":3115,"stimulus":"img/00744.png","slider_start":4,"response":4,"trial_type":"image-slider-response","trial_index":14,"time_elapsed":195950,"internal_node_id":"0.0-3.0-0.11","subject_id":"5f68b8416b15d601691eddf7","study_id":"605e2a800ccfa0c8e820d869","session_id":"6062209b0d52e7ad9a4193fd"},{"rt":7187,"stimulus":"img/00481.png","slider_start":4,"response":2,"trial_type":"image-slider-response","trial_index":15,"time_elapsed":203150,"internal_node_id":"0.0-3.0-0.12","subject_id":"5f68b8416b15d601691eddf7","study_id":"605e2a800ccfa0c8e820d869","session_id":"6062209b0d52e7ad9a4193fd"},{"rt":4667,"stimulus":"img/00822.png","slider_start":4,"response":4,"trial_type":"image-slider-response","trial_index":16,"time_elapsed":207831,"internal_node_id":"0.0-3.0-0.13","subject_id":"5f68b8416b15d601691eddf7","study_id":"605e2a800ccfa0c8e820d869","session_id":"6062209b0d52e7ad9a4193fd"},{"rt":3620,"stimulus":"img/00466.png","slider_start":4,"response":3,"trial_type":"image-slider-response","trial_index":17,"time_elapsed":211463,"internal_node_id":"0.0-3.0-0.14","subject_id":"5f68b8416b15d601691eddf7","study_id":"605e2a800ccfa0c8e820d869","session_id":"6062209b0d52e7ad9a4193fd"},{"rt":7506,"stimulus":"img/00618.png","slider_start":4,"response":6,"trial_type":"image-slider-response","trial_index":18,"time_elapsed":218982,"internal_node_id":"0.0-3.0-0.15","subject_id":"5f68b8416b15d601691eddf7","study_id":"605e2a800ccfa0c8e820d869","session_id":"6062209b0d52e7ad9a4193fd"},{"rt":3587,"stimulus":"img/00731.png","slider_start":4,"response":3,"trial_type":"image-slider-response","trial_index":19,"time_elapsed":222582,"internal_node_id":"0.0-3.0-0.16","subject_id":"5f68b8416b15d601691eddf7","study_id":"605e2a800ccfa0c8e820d869","session_id":"6062209b0d52e7ad9a4193fd"},{"rt":2730,"stimulus":"img/00809.png","slider_start":4,"response":4,"trial_type":"image-slider-response","trial_index":20,"time_elapsed":225326,"internal_node_id":"0.0-3.0-0.17","subject_id":"5f68b8416b15d601691eddf7","study_id":"605e2a800ccfa0c8e820d869","session_id":"6062209b0d52e7ad9a4193fd"},{"rt":4955,"stimulus":"img/00789.png","slider_start":4,"response":4,"trial_type":"image-slider-response","trial_index":21,"time_elapsed":230295,"internal_node_id":"0.0-3.0-0.18","subject_id":"5f68b8416b15d601691eddf7","study_id":"605e2a800ccfa0c8e820d869","session_id":"6062209b0d52e7ad9a4193fd"},{"rt":5564,"stimulus":"img/00478.png","slider_start":4,"response":1,"trial_type":"image-slider-response","trial_index":22,"time_elapsed":235870,"internal_node_id":"0.0-3.0-0.19","subject_id":"5f68b8416b15d601691eddf7","study_id":"605e2a800ccfa0c8e820d869","session_id":"6062209b0d52e7ad9a4193fd"},{"rt":5339,"stimulus":"img/00756.png","slider_start":4,"response":6,"trial_type":"image-slider-response","trial_index":23,"time_elapsed":241223,"internal_node_id":"0.0-3.0-0.20","subject_id":"5f68b8416b15d601691eddf7","study_id":"605e2a800ccfa0c8e820d869","session_id":"6062209b0d52e7ad9a4193fd"},{"rt":2972,"stimulus":"img/00913.png","slider_start":4,"response":3,"trial_type":"image-slider-response","trial_index":24,"time_elapsed":244208,"internal_node_id":"0.0-3.0-0.21","subject_id":"5f68b8416b15d601691eddf7","study_id":"605e2a800ccfa0c8e820d869","session_id":"6062209b0d52e7ad9a4193fd"},{"rt":3938,"stimulus":"img/00587.png","slider_start":4,"response":2,"trial_type":"image-slider-response","trial_index":25,"time_elapsed":248159,"internal_node_id":"0.0-3.0-0.22","subject_id":"5f68b8416b15d601691eddf7","study_id":"605e2a800ccfa0c8e820d869","session_id":"6062209b0d52e7ad9a4193fd"},{"rt":3050,"stimulus":"img/00928.png","slider_start":4,"response":2,"trial_type":"image-slider-response","trial_index":26,"time_elapsed":251223,"internal_node_id":"0.0-3.0-0.23","subject_id":"5f68b8416b15d601691eddf7","study_id":"605e2a800ccfa0c8e820d869","session_id":"6062209b0d52e7ad9a4193fd"},{"rt":7763,"stimulus":"img/00708.png","slider_start":4,"response":3,"trial_type":"image-slider-response","trial_index":27,"time_elapsed":258999,"internal_node_id":"0.0-3.0-0.24","subject_id":"5f68b8416b15d601691eddf7","study_id":"605e2a800ccfa0c8e820d869","session_id":"6062209b0d52e7ad9a4193fd"},{"rt":3291,"stimulus":"img/00594.png","slider_start":4,"response":5,"trial_type":"image-slider-response","trial_index":28,"time_elapsed":262303,"internal_node_id":"0.0-3.0-0.25","subject_id":"5f68b8416b15d601691eddf7","study_id":"605e2a800ccfa0c8e820d869","session_id":"6062209b0d52e7ad9a4193fd"},{"rt":2619,"stimulus":"img/00549.png","slider_start":4,"response":6,"trial_type":"image-slider-response","trial_index":29,"time_elapsed":264935,"internal_node_id":"0.0-3.0-0.26","subject_id":"5f68b8416b15d601691eddf7","study_id":"605e2a800ccfa0c8e820d869","session_id":"6062209b0d52e7ad9a4193fd"},{"rt":5266,"stimulus":"img/00405.png","slider_start":4,"response":6,"trial_type":"image-slider-response","trial_index":30,"time_elapsed":270215,"internal_node_id":"0.0-3.0-0.27","subject_id":"5f68b8416b15d601691eddf7","study_id":"605e2a800ccfa0c8e820d869","session_id":"6062209b0d52e7ad9a4193fd"},{"rt":2844,"stimulus":"img/00644.png","slider_start":4,"response":7,"trial_type":"image-slider-response","trial_index":31,"time_elapsed":273071,"internal_node_id":"0.0-3.0-0.28","subject_id":"5f68b8416b15d601691eddf7","study_id":"605e2a800ccfa0c8e820d869","session_id":"6062209b0d52e7ad9a4193fd"},{"rt":2300,"stimulus":"img/00462.png","slider_start":4,"response":5,"trial_type":"image-slider-response","trial_index":32,"time_elapsed":275384,"internal_node_id":"0.0-3.0-0.29","subject_id":"5f68b8416b15d601691eddf7","study_id":"605e2a800ccfa0c8e820d869","session_id":"6062209b0d52e7ad9a4193fd"},{"rt":2980,"stimulus":"img/00833.png","slider_start":4,"response":2,"trial_type":"image-slider-response","trial_index":33,"time_elapsed":278376,"internal_node_id":"0.0-3.0-0.30","subject_id":"5f68b8416b15d601691eddf7","study_id":"605e2a800ccfa0c8e820d869","session_id":"6062209b0d52e7ad9a4193fd"},{"rt":3666,"stimulus":"img/00447.png","slider_start":4,"response":6,"trial_type":"image-slider-response","trial_index":34,"time_elapsed":282056,"internal_node_id":"0.0-3.0-0.31","subject_id":"5f68b8416b15d601691eddf7","study_id":"605e2a800ccfa0c8e820d869","session_id":"6062209b0d52e7ad9a4193fd"},{"rt":2843,"stimulus":"img/00867.png","slider_start":4,"response":6,"trial_type":"image-slider-response","trial_index":35,"time_elapsed":284912,"internal_node_id":"0.0-3.0-0.32","subject_id":"5f68b8416b15d601691eddf7","study_id":"605e2a800ccfa0c8e820d869","session_id":"6062209b0d52e7ad9a4193fd"},{"rt":5036,"stimulus":"img/00525.png","slider_start":4,"response":2,"trial_type":"image-slider-response","trial_index":36,"time_elapsed":289961,"internal_node_id":"0.0-3.0-0.33","subject_id":"5f68b8416b15d601691eddf7","study_id":"605e2a800ccfa0c8e820d869","session_id":"6062209b0d52e7ad9a4193fd"},{"rt":2681,"stimulus":"img/00037.png","slider_start":4,"response":5,"trial_type":"image-slider-response","trial_index":37,"time_elapsed":292656,"internal_node_id":"0.0-3.0-0.34","subject_id":"5f68b8416b15d601691eddf7","study_id":"605e2a800ccfa0c8e820d869","session_id":"6062209b0d52e7ad9a4193fd"},{"rt":2597,"stimulus":"img/00437.png","slider_start":4,"response":5,"trial_type":"image-slider-response","trial_index":38,"time_elapsed":295264,"internal_node_id":"0.0-3.0-0.35","subject_id":"5f68b8416b15d601691eddf7","study_id":"605e2a800ccfa0c8e820d869","session_id":"6062209b0d52e7ad9a4193fd"},{"rt":3986,"stimulus":"img/00460.png","slider_start":4,"response":3,"trial_type":"image-slider-response","trial_index":39,"time_elapsed":299263,"internal_node_id":"0.0-3.0-0.36","subject_id":"5f68b8416b15d601691eddf7","study_id":"605e2a800ccfa0c8e820d869","session_id":"6062209b0d52e7ad9a4193fd"},{"rt":2901,"stimulus":"img/00543.png","slider_start":4,"response":1,"trial_type":"image-slider-response","trial_index":40,"time_elapsed":302177,"internal_node_id":"0.0-3.0-0.37","subject_id":"5f68b8416b15d601691eddf7","study_id":"605e2a800ccfa0c8e820d869","session_id":"6062209b0d52e7ad9a4193fd"},{"rt":5467,"stimulus":"img/00016.png","slider_start":4,"response":1,"trial_type":"image-slider-response","trial_index":41,"time_elapsed":307656,"internal_node_id":"0.0-3.0-0.38","subject_id":"5f68b8416b15d601691eddf7","study_id":"605e2a800ccfa0c8e820d869","session_id":"6062209b0d52e7ad9a4193fd"},{"rt":3386,"stimulus":"img/40.png","slider_start":4,"response":1,"trial_type":"image-slider-response","trial_index":42,"time_elapsed":311056,"internal_node_id":"0.0-3.0-0.39","subject_id":"5f68b8416b15d601691eddf7","study_id":"605e2a800ccfa0c8e820d869","session_id":"6062209b0d52e7ad9a4193fd"},{"rt":2907,"stimulus":"img/00499.png","slider_start":4,"response":1,"trial_type":"image-slider-response","trial_index":43,"time_elapsed":313978,"internal_node_id":"0.0-3.0-0.40","subject_id":"5f68b8416b15d601691eddf7","study_id":"605e2a800ccfa0c8e820d869","session_id":"6062209b0d52e7ad9a4193fd"},{"rt":3643,"stimulus":"img/00023.png","slider_start":4,"response":5,"trial_type":"image-slider-response","trial_index":44,"time_elapsed":317632,"internal_node_id":"0.0-3.0-0.41","subject_id":"5f68b8416b15d601691eddf7","study_id":"605e2a800ccfa0c8e820d869","session_id":"6062209b0d52e7ad9a4193fd"},{"rt":2747,"stimulus":"img/00126.png","slider_start":4,"response":2,"trial_type":"image-slider-response","trial_index":45,"time_elapsed":320393,"internal_node_id":"0.0-3.0-0.42","subject_id":"5f68b8416b15d601691eddf7","study_id":"605e2a800ccfa0c8e820d869","session_id":"6062209b0d52e7ad9a4193fd"},{"rt":2659,"stimulus":"img/00522.png","slider_start":4,"response":6,"trial_type":"image-slider-response","trial_index":46,"time_elapsed":323064,"internal_node_id":"0.0-3.0-0.43","subject_id":"5f68b8416b15d601691eddf7","study_id":"605e2a800ccfa0c8e820d869","session_id":"6062209b0d52e7ad9a4193fd"},{"rt":5147,"stimulus":"img/00688.png","slider_start":4,"response":4,"trial_type":"image-slider-response","trial_index":47,"time_elapsed":328225,"internal_node_id":"0.0-3.0-0.44","subject_id":"5f68b8416b15d601691eddf7","study_id":"605e2a800ccfa0c8e820d869","session_id":"6062209b0d52e7ad9a4193fd"},{"rt":2026,"stimulus":"img/00989.png","slider_start":4,"response":4,"trial_type":"image-slider-response","trial_index":48,"time_elapsed":330265,"internal_node_id":"0.0-3.0-0.45","subject_id":"5f68b8416b15d601691eddf7","study_id":"605e2a800ccfa0c8e820d869","session_id":"6062209b0d52e7ad9a4193fd"},{"rt":3291,"stimulus":"img/00507.png","slider_start":4,"response":2,"trial_type":"image-slider-response","trial_index":49,"time_elapsed":333569,"internal_node_id":"0.0-3.0-0.46","subject_id":"5f68b8416b15d601691eddf7","study_id":"605e2a800ccfa0c8e820d869","session_id":"6062209b0d52e7ad9a4193fd"},{"rt":2412,"stimulus":"img/00793.png","slider_start":4,"response":4,"trial_type":"image-slider-response","trial_index":50,"time_elapsed":335993,"internal_node_id":"0.0-3.0-0.47","subject_id":"5f68b8416b15d601691eddf7","study_id":"605e2a800ccfa0c8e820d869","session_id":"6062209b0d52e7ad9a4193fd"},{"rt":3724,"stimulus":"img/00542.png","slider_start":4,"response":4,"trial_type":"image-slider-response","trial_index":51,"time_elapsed":339729,"internal_node_id":"0.0-3.0-0.48","subject_id":"5f68b8416b15d601691eddf7","study_id":"605e2a800ccfa0c8e820d869","session_id":"6062209b0d52e7ad9a4193fd"},{"rt":1802,"stimulus":"img/00456.png","slider_start":4,"response":4,"trial_type":"image-slider-response","trial_index":52,"time_elapsed":341544,"internal_node_id":"0.0-3.0-0.49","subject_id":"5f68b8416b15d601691eddf7","study_id":"605e2a800ccfa0c8e820d869","session_id":"6062209b0d52e7ad9a4193fd"},{"rt":6438,"stimulus":"img/00115.png","slider_start":4,"response":3,"trial_type":"image-slider-response","trial_index":53,"time_elapsed":348001,"internal_node_id":"0.0-3.0-0.50","subject_id":"5f68b8416b15d601691eddf7","study_id":"605e2a800ccfa0c8e820d869","session_id":"6062209b0d52e7ad9a4193fd"},{"rt":4004,"stimulus":"img/00801.png","slider_start":4,"response":3,"trial_type":"image-slider-response","trial_index":54,"time_elapsed":352017,"internal_node_id":"0.0-3.0-0.51","subject_id":"5f68b8416b15d601691eddf7","study_id":"605e2a800ccfa0c8e820d869","session_id":"6062209b0d52e7ad9a4193fd"},{"rt":3962,"stimulus":"img/00105.png","slider_start":4,"response":7,"trial_type":"image-slider-response","trial_index":55,"time_elapsed":355994,"internal_node_id":"0.0-3.0-0.52","subject_id":"5f68b8416b15d601691eddf7","study_id":"605e2a800ccfa0c8e820d869","session_id":"6062209b0d52e7ad9a4193fd"},{"rt":4074,"stimulus":"img/00815.png","slider_start":4,"response":6,"trial_type":"image-slider-response","trial_index":56,"time_elapsed":360081,"internal_node_id":"0.0-3.0-0.53","subject_id":"5f68b8416b15d601691eddf7","study_id":"605e2a800ccfa0c8e820d869","session_id":"6062209b0d52e7ad9a4193fd"},{"rt":3397,"stimulus":"img/00755.png","slider_start":4,"response":6,"trial_type":"image-slider-response","trial_index":57,"time_elapsed":363490,"internal_node_id":"0.0-3.0-0.54","subject_id":"5f68b8416b15d601691eddf7","study_id":"605e2a800ccfa0c8e820d869","session_id":"6062209b0d52e7ad9a4193fd"},{"rt":6362,"stimulus":"img/00785.png","slider_start":4,"response":5,"trial_type":"image-slider-response","trial_index":58,"time_elapsed":369865,"internal_node_id":"0.0-3.0-0.55","subject_id":"5f68b8416b15d601691eddf7","study_id":"605e2a800ccfa0c8e820d869","session_id":"6062209b0d52e7ad9a4193fd"},{"rt":3963,"stimulus":"img/00006.png","slider_start":4,"response":4,"trial_type":"image-slider-response","trial_index":59,"time_elapsed":373842,"internal_node_id":"0.0-3.0-0.56","subject_id":"5f68b8416b15d601691eddf7","study_id":"605e2a800ccfa0c8e820d869","session_id":"6062209b0d52e7ad9a4193fd"},{"rt":2723,"stimulus":"img/00401.png","slider_start":4,"response":6,"trial_type":"image-slider-response","trial_index":60,"time_elapsed":376578,"internal_node_id":"0.0-3.0-0.57","subject_id":"5f68b8416b15d601691eddf7","study_id":"605e2a800ccfa0c8e820d869","session_id":"6062209b0d52e7ad9a4193fd"},{"rt":2747,"stimulus":"img/00653.png","slider_start":4,"response":3,"trial_type":"image-slider-response","trial_index":61,"time_elapsed":379338,"internal_node_id":"0.0-3.0-0.58","subject_id":"5f68b8416b15d601691eddf7","study_id":"605e2a800ccfa0c8e820d869","session_id":"6062209b0d52e7ad9a4193fd"},{"rt":2020,"stimulus":"img/00438.png","slider_start":4,"response":5,"trial_type":"image-slider-response","trial_index":62,"time_elapsed":381370,"internal_node_id":"0.0-3.0-0.59","subject_id":"5f68b8416b15d601691eddf7","study_id":"605e2a800ccfa0c8e820d869","session_id":"6062209b0d52e7ad9a4193fd"},{"rt":3089,"stimulus":"img/00554.png","slider_start":4,"response":5,"trial_type":"image-slider-response","trial_index":63,"time_elapsed":384474,"internal_node_id":"0.0-3.0-0.60","subject_id":"5f68b8416b15d601691eddf7","study_id":"605e2a800ccfa0c8e820d869","session_id":"6062209b0d52e7ad9a4193fd"},{"rt":5779,"stimulus":"img/00853.png","slider_start":4,"response":5,"trial_type":"image-slider-response","trial_index":64,"time_elapsed":390266,"internal_node_id":"0.0-3.0-0.61","subject_id":"5f68b8416b15d601691eddf7","study_id":"605e2a800ccfa0c8e820d869","session_id":"6062209b0d52e7ad9a4193fd"},{"rt":2570,"stimulus":"img/00078.png","slider_start":4,"response":2,"trial_type":"image-slider-response","trial_index":65,"time_elapsed":392850,"internal_node_id":"0.0-3.0-0.62","subject_id":"5f68b8416b15d601691eddf7","study_id":"605e2a800ccfa0c8e820d869","session_id":"6062209b0d52e7ad9a4193fd"},{"rt":7348,"stimulus":"img/00559.png","slider_start":4,"response":7,"trial_type":"image-slider-response","trial_index":66,"time_elapsed":400210,"internal_node_id":"0.0-3.0-0.63","subject_id":"5f68b8416b15d601691eddf7","study_id":"605e2a800ccfa0c8e820d869","session_id":"6062209b0d52e7ad9a4193fd"},{"rt":3465,"stimulus":"img/00040.png","slider_start":4,"response":5,"trial_type":"image-slider-response","trial_index":67,"time_elapsed":403689,"internal_node_id":"0.0-3.0-0.64","subject_id":"5f68b8416b15d601691eddf7","study_id":"605e2a800ccfa0c8e820d869","session_id":"6062209b0d52e7ad9a4193fd"},{"rt":3995,"stimulus":"img/00841.png","slider_start":4,"response":6,"trial_type":"image-slider-response","trial_index":68,"time_elapsed":407698,"internal_node_id":"0.0-3.0-0.65","subject_id":"5f68b8416b15d601691eddf7","study_id":"605e2a800ccfa0c8e820d869","session_id":"6062209b0d52e7ad9a4193fd"},{"rt":3481,"stimulus":"img/00967.png","slider_start":4,"response":1,"trial_type":"image-slider-response","trial_index":69,"time_elapsed":411194,"internal_node_id":"0.0-3.0-0.66","subject_id":"5f68b8416b15d601691eddf7","study_id":"605e2a800ccfa0c8e820d869","session_id":"6062209b0d52e7ad9a4193fd"},{"rt":2713,"stimulus":"img/00052.png","slider_start":4,"response":3,"trial_type":"image-slider-response","trial_index":70,"time_elapsed":413922,"internal_node_id":"0.0-3.0-0.67","subject_id":"5f68b8416b15d601691eddf7","study_id":"605e2a800ccfa0c8e820d869","session_id":"6062209b0d52e7ad9a4193fd"},{"rt":1497,"stimulus":"img/00926.png","slider_start":4,"response":4,"trial_type":"image-slider-response","trial_index":71,"time_elapsed":415434,"internal_node_id":"0.0-3.0-0.68","subject_id":"5f68b8416b15d601691eddf7","study_id":"605e2a800ccfa0c8e820d869","session_id":"6062209b0d52e7ad9a4193fd"},{"rt":2737,"stimulus":"img/00570.png","slider_start":4,"response":6,"trial_type":"image-slider-response","trial_index":72,"time_elapsed":418185,"internal_node_id":"0.0-3.0-0.69","subject_id":"5f68b8416b15d601691eddf7","study_id":"605e2a800ccfa0c8e820d869","session_id":"6062209b0d52e7ad9a4193fd"},{"rt":4076,"stimulus":"img/00011.png","slider_start":4,"response":2,"trial_type":"image-slider-response","trial_index":73,"time_elapsed":422274,"internal_node_id":"0.0-3.0-0.70","subject_id":"5f68b8416b15d601691eddf7","study_id":"605e2a800ccfa0c8e820d869","session_id":"6062209b0d52e7ad9a4193fd"},{"rt":4586,"stimulus":"img/00752.png","slider_start":4,"response":1,"trial_type":"image-slider-response","trial_index":74,"time_elapsed":426874,"internal_node_id":"0.0-3.0-0.71","subject_id":"5f68b8416b15d601691eddf7","study_id":"605e2a800ccfa0c8e820d869","session_id":"6062209b0d52e7ad9a4193fd"},{"rt":4458,"stimulus":"img/00454.png","slider_start":4,"response":5,"trial_type":"image-slider-response","trial_index":75,"time_elapsed":431347,"internal_node_id":"0.0-3.0-0.72","subject_id":"5f68b8416b15d601691eddf7","study_id":"605e2a800ccfa0c8e820d869","session_id":"6062209b0d52e7ad9a4193fd"},{"rt":5820,"stimulus":"img/00479.png","slider_start":4,"response":6,"trial_type":"image-slider-response","trial_index":76,"time_elapsed":437179,"internal_node_id":"0.0-3.0-0.73","subject_id":"5f68b8416b15d601691eddf7","study_id":"605e2a800ccfa0c8e820d869","session_id":"6062209b0d52e7ad9a4193fd"},{"rt":3649,"stimulus":"img/00093.png","slider_start":4,"response":5,"trial_type":"image-slider-response","trial_index":77,"time_elapsed":440842,"internal_node_id":"0.0-3.0-0.74","subject_id":"5f68b8416b15d601691eddf7","study_id":"605e2a800ccfa0c8e820d869","session_id":"6062209b0d52e7ad9a4193fd"},{"rt":2553,"stimulus":"img/00879.png","slider_start":4,"response":5,"trial_type":"image-slider-response","trial_index":78,"time_elapsed":443412,"internal_node_id":"0.0-3.0-0.75","subject_id":"5f68b8416b15d601691eddf7","study_id":"605e2a800ccfa0c8e820d869","session_id":"6062209b0d52e7ad9a4193fd"},{"rt":3618,"stimulus":"img/00986.png","slider_start":4,"response":5,"trial_type":"image-slider-response","trial_index":79,"time_elapsed":447043,"internal_node_id":"0.0-3.0-0.76","subject_id":"5f68b8416b15d601691eddf7","study_id":"605e2a800ccfa0c8e820d869","session_id":"6062209b0d52e7ad9a4193fd"},{"rt":3291,"stimulus":"img/00413.png","slider_start":4,"response":6,"trial_type":"image-slider-response","trial_index":80,"time_elapsed":450346,"internal_node_id":"0.0-3.0-0.77","subject_id":"5f68b8416b15d601691eddf7","study_id":"605e2a800ccfa0c8e820d869","session_id":"6062209b0d52e7ad9a4193fd"},{"rt":2770,"stimulus":"img/00469.png","slider_start":4,"response":7,"trial_type":"image-slider-response","trial_index":81,"time_elapsed":453130,"internal_node_id":"0.0-3.0-0.78","subject_id":"5f68b8416b15d601691eddf7","study_id":"605e2a800ccfa0c8e820d869","session_id":"6062209b0d52e7ad9a4193fd"},{"rt":2636,"stimulus":"img/00600.png","slider_start":4,"response":3,"trial_type":"image-slider-response","trial_index":82,"time_elapsed":455779,"internal_node_id":"0.0-3.0-0.79","subject_id":"5f68b8416b15d601691eddf7","study_id":"605e2a800ccfa0c8e820d869","session_id":"6062209b0d52e7ad9a4193fd"},{"rt":3291,"stimulus":"img/00817.png","slider_start":4,"response":1,"trial_type":"image-slider-response","trial_index":83,"time_elapsed":459083,"internal_node_id":"0.0-3.0-0.80","subject_id":"5f68b8416b15d601691eddf7","study_id":"605e2a800ccfa0c8e820d869","session_id":"6062209b0d52e7ad9a4193fd"},{"rt":4181,"stimulus":"img/00504.png","slider_start":4,"response":5,"trial_type":"image-slider-response","trial_index":84,"time_elapsed":463274,"internal_node_id":"0.0-3.0-0.81","subject_id":"5f68b8416b15d601691eddf7","study_id":"605e2a800ccfa0c8e820d869","session_id":"6062209b0d52e7ad9a4193fd"},{"rt":4330,"stimulus":"img/00511.png","slider_start":4,"response":4,"trial_type":"image-slider-response","trial_index":85,"time_elapsed":467619,"internal_node_id":"0.0-3.0-0.82","subject_id":"5f68b8416b15d601691eddf7","study_id":"605e2a800ccfa0c8e820d869","session_id":"6062209b0d52e7ad9a4193fd"},{"rt":4780,"stimulus":"img/00424.png","slider_start":4,"response":7,"trial_type":"image-slider-response","trial_index":86,"time_elapsed":472410,"internal_node_id":"0.0-3.0-0.83","subject_id":"5f68b8416b15d601691eddf7","study_id":"605e2a800ccfa0c8e820d869","session_id":"6062209b0d52e7ad9a4193fd"},{"rt":3884,"stimulus":"img/00759.png","slider_start":4,"response":3,"trial_type":"image-slider-response","trial_index":87,"time_elapsed":476307,"internal_node_id":"0.0-3.0-0.84","subject_id":"5f68b8416b15d601691eddf7","study_id":"605e2a800ccfa0c8e820d869","session_id":"6062209b0d52e7ad9a4193fd"},{"rt":5914,"stimulus":"img/00689.png","slider_start":4,"response":4,"trial_type":"image-slider-response","trial_index":88,"time_elapsed":482235,"internal_node_id":"0.0-3.0-0.85","subject_id":"5f68b8416b15d601691eddf7","study_id":"605e2a800ccfa0c8e820d869","session_id":"6062209b0d52e7ad9a4193fd"},{"rt":2875,"stimulus":"img/00045.png","slider_start":4,"response":3,"trial_type":"image-slider-response","trial_index":89,"time_elapsed":485123,"internal_node_id":"0.0-3.0-0.86","subject_id":"5f68b8416b15d601691eddf7","study_id":"605e2a800ccfa0c8e820d869","session_id":"6062209b0d52e7ad9a4193fd"},{"rt":3156,"stimulus":"img/00896.png","slider_start":4,"response":1,"trial_type":"image-slider-response","trial_index":90,"time_elapsed":488290,"internal_node_id":"0.0-3.0-0.87","subject_id":"5f68b8416b15d601691eddf7","study_id":"605e2a800ccfa0c8e820d869","session_id":"6062209b0d52e7ad9a4193fd"},{"rt":3300,"stimulus":"img/00015.png","slider_start":4,"response":6,"trial_type":"image-slider-response","trial_index":91,"time_elapsed":491603,"internal_node_id":"0.0-3.0-0.88","subject_id":"5f68b8416b15d601691eddf7","study_id":"605e2a800ccfa0c8e820d869","session_id":"6062209b0d52e7ad9a4193fd"},{"rt":4235,"stimulus":"img/00406.png","slider_start":4,"response":3,"trial_type":"image-slider-response","trial_index":92,"time_elapsed":495851,"internal_node_id":"0.0-3.0-0.89","subject_id":"5f68b8416b15d601691eddf7","study_id":"605e2a800ccfa0c8e820d869","session_id":"6062209b0d52e7ad9a4193fd"},{"rt":1786,"stimulus":"img/00690.png","slider_start":4,"response":5,"trial_type":"image-slider-response","trial_index":93,"time_elapsed":497651,"internal_node_id":"0.0-3.0-0.90","subject_id":"5f68b8416b15d601691eddf7","study_id":"605e2a800ccfa0c8e820d869","session_id":"6062209b0d52e7ad9a4193fd"},{"rt":1785,"stimulus":"img/00988.png","slider_start":4,"response":5,"trial_type":"image-slider-response","trial_index":94,"time_elapsed":499452,"internal_node_id":"0.0-3.0-0.91","subject_id":"5f68b8416b15d601691eddf7","study_id":"605e2a800ccfa0c8e820d869","session_id":"6062209b0d52e7ad9a4193fd"},{"rt":5457,"stimulus":"img/00742.png","slider_start":4,"response":4,"trial_type":"image-slider-response","trial_index":95,"time_elapsed":504922,"internal_node_id":"0.0-3.0-0.92","subject_id":"5f68b8416b15d601691eddf7","study_id":"605e2a800ccfa0c8e820d869","session_id":"6062209b0d52e7ad9a4193fd"},{"rt":2564,"stimulus":"img/00100.png","slider_start":4,"response":4,"trial_type":"image-slider-response","trial_index":96,"time_elapsed":507499,"internal_node_id":"0.0-3.0-0.93","subject_id":"5f68b8416b15d601691eddf7","study_id":"605e2a800ccfa0c8e820d869","session_id":"6062209b0d52e7ad9a4193fd"},{"rt":3793,"stimulus":"img/00747.png","slider_start":4,"response":5,"trial_type":"image-slider-response","trial_index":97,"time_elapsed":511307,"internal_node_id":"0.0-3.0-0.94","subject_id":"5f68b8416b15d601691eddf7","study_id":"605e2a800ccfa0c8e820d869","session_id":"6062209b0d52e7ad9a4193fd"},{"rt":3936,"stimulus":"img/00629.png","slider_start":4,"response":3,"trial_type":"image-slider-response","trial_index":98,"time_elapsed":515259,"internal_node_id":"0.0-3.0-0.95","subject_id":"5f68b8416b15d601691eddf7","study_id":"605e2a800ccfa0c8e820d869","session_id":"6062209b0d52e7ad9a4193fd"},{"rt":1923,"stimulus":"img/00854.png","slider_start":4,"response":5,"trial_type":"image-slider-response","trial_index":99,"time_elapsed":517195,"internal_node_id":"0.0-3.0-0.96","subject_id":"5f68b8416b15d601691eddf7","study_id":"605e2a800ccfa0c8e820d869","session_id":"6062209b0d52e7ad9a4193fd"},{"rt":2372,"stimulus":"img/00018.png","slider_start":4,"response":4,"trial_type":"image-slider-response","trial_index":100,"time_elapsed":519579,"internal_node_id":"0.0-3.0-0.97","subject_id":"5f68b8416b15d601691eddf7","study_id":"605e2a800ccfa0c8e820d869","session_id":"6062209b0d52e7ad9a4193fd"},{"rt":9843,"stimulus":"img/00439.png","slider_start":4,"response":2,"trial_type":"image-slider-response","trial_index":101,"time_elapsed":529435,"internal_node_id":"0.0-3.0-0.98","subject_id":"5f68b8416b15d601691eddf7","study_id":"605e2a800ccfa0c8e820d869","session_id":"6062209b0d52e7ad9a4193fd"},{"rt":3012,"stimulus":"img/00810.png","slider_start":4,"response":2,"trial_type":"image-slider-response","trial_index":102,"time_elapsed":532458,"internal_node_id":"0.0-3.0-0.99","subject_id":"5f68b8416b15d601691eddf7","study_id":"605e2a800ccfa0c8e820d869","session_id":"6062209b0d52e7ad9a4193fd"},{"rt":2043,"stimulus":"img/00991.png","slider_start":4,"response":3,"trial_type":"image-slider-response","trial_index":103,"time_elapsed":534514,"internal_node_id":"0.0-3.0-0.100","subject_id":"5f68b8416b15d601691eddf7","study_id":"605e2a800ccfa0c8e820d869","session_id":"6062209b0d52e7ad9a4193fd"},{"rt":1787,"stimulus":"img/00956.png","slider_start":4,"response":3,"trial_type":"image-slider-response","trial_index":104,"time_elapsed":536315,"internal_node_id":"0.0-3.0-0.101","subject_id":"5f68b8416b15d601691eddf7","study_id":"605e2a800ccfa0c8e820d869","session_id":"6062209b0d52e7ad9a4193fd"},{"rt":2098,"stimulus":"img/00982.png","slider_start":4,"response":4,"trial_type":"image-slider-response","trial_index":105,"time_elapsed":538426,"internal_node_id":"0.0-3.0-0.102","subject_id":"5f68b8416b15d601691eddf7","study_id":"605e2a800ccfa0c8e820d869","session_id":"6062209b0d52e7ad9a4193fd"},{"rt":4473,"stimulus":"img/00404.png","slider_start":4,"response":2,"trial_type":"image-slider-response","trial_index":106,"time_elapsed":542915,"internal_node_id":"0.0-3.0-0.103","subject_id":"5f68b8416b15d601691eddf7","study_id":"605e2a800ccfa0c8e820d869","session_id":"6062209b0d52e7ad9a4193fd"},{"rt":4482,"stimulus":"img/00427.png","slider_start":4,"response":7,"trial_type":"image-slider-response","trial_index":107,"time_elapsed":547411,"internal_node_id":"0.0-3.0-0.104","subject_id":"5f68b8416b15d601691eddf7","study_id":"605e2a800ccfa0c8e820d869","session_id":"6062209b0d52e7ad9a4193fd"},{"rt":2874,"stimulus":"img/00041.png","slider_start":4,"response":7,"trial_type":"image-slider-response","trial_index":108,"time_elapsed":550299,"internal_node_id":"0.0-3.0-0.105","subject_id":"5f68b8416b15d601691eddf7","study_id":"605e2a800ccfa0c8e820d869","session_id":"6062209b0d52e7ad9a4193fd"},{"rt":2596,"stimulus":"img/00764.png","slider_start":4,"response":3,"trial_type":"image-slider-response","trial_index":109,"time_elapsed":552907,"internal_node_id":"0.0-3.0-0.106","subject_id":"5f68b8416b15d601691eddf7","study_id":"605e2a800ccfa0c8e820d869","session_id":"6062209b0d52e7ad9a4193fd"},{"rt":5748,"stimulus":"img/00691.png","slider_start":4,"response":3,"trial_type":"image-slider-response","trial_index":110,"time_elapsed":558667,"internal_node_id":"0.0-3.0-0.107","subject_id":"5f68b8416b15d601691eddf7","study_id":"605e2a800ccfa0c8e820d869","session_id":"6062209b0d52e7ad9a4193fd"},{"rt":3179,"stimulus":"img/00811.png","slider_start":4,"response":4,"trial_type":"image-slider-response","trial_index":111,"time_elapsed":561859,"internal_node_id":"0.0-3.0-0.108","subject_id":"5f68b8416b15d601691eddf7","study_id":"605e2a800ccfa0c8e820d869","session_id":"6062209b0d52e7ad9a4193fd"},{"rt":1219,"stimulus":"img/00791.png","slider_start":4,"response":4,"trial_type":"image-slider-response","trial_index":112,"time_elapsed":563091,"internal_node_id":"0.0-3.0-0.109","subject_id":"5f68b8416b15d601691eddf7","study_id":"605e2a800ccfa0c8e820d869","session_id":"6062209b0d52e7ad9a4193fd"},{"rt":3073,"stimulus":"img/00418.png","slider_start":4,"response":5,"trial_type":"image-slider-response","trial_index":113,"time_elapsed":566179,"internal_node_id":"0.0-3.0-0.110","subject_id":"5f68b8416b15d601691eddf7","study_id":"605e2a800ccfa0c8e820d869","session_id":"6062209b0d52e7ad9a4193fd"},{"rt":2997,"stimulus":"img/00415.png","slider_start":4,"response":6,"trial_type":"image-slider-response","trial_index":114,"time_elapsed":569190,"internal_node_id":"0.0-3.0-0.111","subject_id":"5f68b8416b15d601691eddf7","study_id":"605e2a800ccfa0c8e820d869","session_id":"6062209b0d52e7ad9a4193fd"},{"rt":2514,"stimulus":"img/00464.png","slider_start":4,"response":3,"trial_type":"image-slider-response","trial_index":115,"time_elapsed":571715,"internal_node_id":"0.0-3.0-0.112","subject_id":"5f68b8416b15d601691eddf7","study_id":"605e2a800ccfa0c8e820d869","session_id":"6062209b0d52e7ad9a4193fd"},{"rt":2437,"stimulus":"img/00127.png","slider_start":4,"response":4,"trial_type":"image-slider-response","trial_index":116,"time_elapsed":574164,"internal_node_id":"0.0-3.0-0.113","subject_id":"5f68b8416b15d601691eddf7","study_id":"605e2a800ccfa0c8e820d869","session_id":"6062209b0d52e7ad9a4193fd"},{"rt":2156,"stimulus":"img/00055.png","slider_start":4,"response":5,"trial_type":"image-slider-response","trial_index":117,"time_elapsed":576332,"internal_node_id":"0.0-3.0-0.114","subject_id":"5f68b8416b15d601691eddf7","study_id":"605e2a800ccfa0c8e820d869","session_id":"6062209b0d52e7ad9a4193fd"},{"rt":2363,"stimulus":"img/00472.png","slider_start":4,"response":6,"trial_type":"image-slider-response","trial_index":118,"time_elapsed":578707,"internal_node_id":"0.0-3.0-0.115","subject_id":"5f68b8416b15d601691eddf7","study_id":"605e2a800ccfa0c8e820d869","session_id":"6062209b0d52e7ad9a4193fd"},{"rt":2963,"stimulus":"img/00693.png","slider_start":4,"response":5,"trial_type":"image-slider-response","trial_index":119,"time_elapsed":581683,"internal_node_id":"0.0-3.0-0.116","subject_id":"5f68b8416b15d601691eddf7","study_id":"605e2a800ccfa0c8e820d869","session_id":"6062209b0d52e7ad9a4193fd"},{"rt":2387,"stimulus":"img/00930.png","slider_start":4,"response":4,"trial_type":"image-slider-response","trial_index":120,"time_elapsed":584083,"internal_node_id":"0.0-3.0-0.117","subject_id":"5f68b8416b15d601691eddf7","study_id":"605e2a800ccfa0c8e820d869","session_id":"6062209b0d52e7ad9a4193fd"},{"rt":2587,"stimulus":"img/00521.png","slider_start":4,"response":2,"trial_type":"image-slider-response","trial_index":121,"time_elapsed":586684,"internal_node_id":"0.0-3.0-0.118","subject_id":"5f68b8416b15d601691eddf7","study_id":"605e2a800ccfa0c8e820d869","session_id":"6062209b0d52e7ad9a4193fd"},{"rt":2804,"stimulus":"img/00760.png","slider_start":4,"response":6,"trial_type":"image-slider-response","trial_index":122,"time_elapsed":589500,"internal_node_id":"0.0-3.0-0.119","subject_id":"5f68b8416b15d601691eddf7","study_id":"605e2a800ccfa0c8e820d869","session_id":"6062209b0d52e7ad9a4193fd"},{"rt":1882,"stimulus":"img/00496.png","slider_start":4,"response":6,"trial_type":"image-slider-response","trial_index":123,"time_elapsed":591395,"internal_node_id":"0.0-3.0-0.120","subject_id":"5f68b8416b15d601691eddf7","study_id":"605e2a800ccfa0c8e820d869","session_id":"6062209b0d52e7ad9a4193fd"},{"rt":2651,"stimulus":"img/00761.png","slider_start":4,"response":6,"trial_type":"image-slider-response","trial_index":124,"time_elapsed":594059,"internal_node_id":"0.0-3.0-0.121","subject_id":"5f68b8416b15d601691eddf7","study_id":"605e2a800ccfa0c8e820d869","session_id":"6062209b0d52e7ad9a4193fd"},{"rt":9443,"stimulus":"img/00603.png","slider_start":4,"response":4,"trial_type":"image-slider-response","trial_index":125,"time_elapsed":603516,"internal_node_id":"0.0-3.0-0.122","subject_id":"5f68b8416b15d601691eddf7","study_id":"605e2a800ccfa0c8e820d869","session_id":"6062209b0d52e7ad9a4193fd"},{"rt":2804,"stimulus":"img/00631.png","slider_start":4,"response":5,"trial_type":"image-slider-response","trial_index":126,"time_elapsed":606333,"internal_node_id":"0.0-3.0-0.123","subject_id":"5f68b8416b15d601691eddf7","study_id":"605e2a800ccfa0c8e820d869","session_id":"6062209b0d52e7ad9a4193fd"},{"rt":2859,"stimulus":"img/00503.png","slider_start":4,"response":1,"trial_type":"image-slider-response","trial_index":127,"time_elapsed":609204,"internal_node_id":"0.0-3.0-0.124","subject_id":"5f68b8416b15d601691eddf7","study_id":"605e2a800ccfa0c8e820d869","session_id":"6062209b0d52e7ad9a4193fd"},{"rt":1420,"stimulus":"img/00114.png","slider_start":4,"response":4,"trial_type":"image-slider-response","trial_index":128,"time_elapsed":610636,"internal_node_id":"0.0-3.0-0.125","subject_id":"5f68b8416b15d601691eddf7","study_id":"605e2a800ccfa0c8e820d869","session_id":"6062209b0d52e7ad9a4193fd"},{"rt":2508,"stimulus":"img/00951.png","slider_start":4,"response":2,"trial_type":"image-slider-response","trial_index":129,"time_elapsed":613156,"internal_node_id":"0.0-3.0-0.126","subject_id":"5f68b8416b15d601691eddf7","study_id":"605e2a800ccfa0c8e820d869","session_id":"6062209b0d52e7ad9a4193fd"},{"rt":7397,"stimulus":"img/00779.png","slider_start":4,"response":1,"trial_type":"image-slider-response","trial_index":130,"time_elapsed":620563,"internal_node_id":"0.0-3.0-0.127","subject_id":"5f68b8416b15d601691eddf7","study_id":"605e2a800ccfa0c8e820d869","session_id":"6062209b0d52e7ad9a4193fd"},{"rt":1946,"stimulus":"img/00489.png","slider_start":4,"response":1,"trial_type":"image-slider-response","trial_index":131,"time_elapsed":622523,"internal_node_id":"0.0-3.0-0.128","subject_id":"5f68b8416b15d601691eddf7","study_id":"605e2a800ccfa0c8e820d869","session_id":"6062209b0d52e7ad9a4193fd"},{"rt":1096,"stimulus":"img/00848.png","slider_start":4,"response":4,"trial_type":"image-slider-response","trial_index":132,"time_elapsed":623636,"internal_node_id":"0.0-3.0-0.129","subject_id":"5f68b8416b15d601691eddf7","study_id":"605e2a800ccfa0c8e820d869","session_id":"6062209b0d52e7ad9a4193fd"},{"rt":2952,"stimulus":"img/00101.png","slider_start":4,"response":1,"trial_type":"image-slider-response","trial_index":133,"time_elapsed":626604,"internal_node_id":"0.0-3.0-0.130","subject_id":"5f68b8416b15d601691eddf7","study_id":"605e2a800ccfa0c8e820d869","session_id":"6062209b0d52e7ad9a4193fd"},{"rt":3458,"stimulus":"img/00581.png","slider_start":4,"response":4,"trial_type":"image-slider-response","trial_index":134,"time_elapsed":630076,"internal_node_id":"0.0-3.0-0.131","subject_id":"5f68b8416b15d601691eddf7","study_id":"605e2a800ccfa0c8e820d869","session_id":"6062209b0d52e7ad9a4193fd"},{"rt":3859,"stimulus":"img/00768.png","slider_start":4,"response":7,"trial_type":"image-slider-response","trial_index":135,"time_elapsed":633948,"internal_node_id":"0.0-3.0-0.132","subject_id":"5f68b8416b15d601691eddf7","study_id":"605e2a800ccfa0c8e820d869","session_id":"6062209b0d52e7ad9a4193fd"},{"rt":7499,"stimulus":"img/00903.png","slider_start":4,"response":6,"trial_type":"image-slider-response","trial_index":136,"time_elapsed":641460,"internal_node_id":"0.0-3.0-0.133","subject_id":"5f68b8416b15d601691eddf7","study_id":"605e2a800ccfa0c8e820d869","session_id":"6062209b0d52e7ad9a4193fd"},{"rt":2466,"stimulus":"img/00902.png","slider_start":4,"response":5,"trial_type":"image-slider-response","trial_index":137,"time_elapsed":643939,"internal_node_id":"0.0-3.0-0.134","subject_id":"5f68b8416b15d601691eddf7","study_id":"605e2a800ccfa0c8e820d869","session_id":"6062209b0d52e7ad9a4193fd"},{"rt":2266,"stimulus":"img/00029.png","slider_start":4,"response":3,"trial_type":"image-slider-response","trial_index":138,"time_elapsed":646220,"internal_node_id":"0.0-3.0-0.135","subject_id":"5f68b8416b15d601691eddf7","study_id":"605e2a800ccfa0c8e820d869","session_id":"6062209b0d52e7ad9a4193fd"},{"rt":4650,"stimulus":"img/00077.png","slider_start":4,"response":5,"trial_type":"image-slider-response","trial_index":139,"time_elapsed":650884,"internal_node_id":"0.0-3.0-0.136","subject_id":"5f68b8416b15d601691eddf7","study_id":"605e2a800ccfa0c8e820d869","session_id":"6062209b0d52e7ad9a4193fd"},{"rt":2082,"stimulus":"img/00797.png","slider_start":4,"response":3,"trial_type":"image-slider-response","trial_index":140,"time_elapsed":652980,"internal_node_id":"0.0-3.0-0.137","subject_id":"5f68b8416b15d601691eddf7","study_id":"605e2a800ccfa0c8e820d869","session_id":"6062209b0d52e7ad9a4193fd"},{"rt":2954,"stimulus":"img/00592.png","slider_start":4,"response":6,"trial_type":"image-slider-response","trial_index":141,"time_elapsed":655948,"internal_node_id":"0.0-3.0-0.138","subject_id":"5f68b8416b15d601691eddf7","study_id":"605e2a800ccfa0c8e820d869","session_id":"6062209b0d52e7ad9a4193fd"},{"rt":4051,"stimulus":"img/00957.png","slider_start":4,"response":3,"trial_type":"image-slider-response","trial_index":142,"time_elapsed":660012,"internal_node_id":"0.0-3.0-0.139","subject_id":"5f68b8416b15d601691eddf7","study_id":"605e2a800ccfa0c8e820d869","session_id":"6062209b0d52e7ad9a4193fd"},{"rt":3563,"stimulus":"img/00048.png","slider_start":4,"response":2,"trial_type":"image-slider-response","trial_index":143,"time_elapsed":663587,"internal_node_id":"0.0-3.0-0.140","subject_id":"5f68b8416b15d601691eddf7","study_id":"605e2a800ccfa0c8e820d869","session_id":"6062209b0d52e7ad9a4193fd"},{"rt":2241,"stimulus":"img/00563.png","slider_start":4,"response":1,"trial_type":"image-slider-response","trial_index":144,"time_elapsed":665844,"internal_node_id":"0.0-3.0-0.141","subject_id":"5f68b8416b15d601691eddf7","study_id":"605e2a800ccfa0c8e820d869","session_id":"6062209b0d52e7ad9a4193fd"},{"rt":2618,"stimulus":"img/00561.png","slider_start":4,"response":3,"trial_type":"image-slider-response","trial_index":145,"time_elapsed":668476,"internal_node_id":"0.0-3.0-0.142","subject_id":"5f68b8416b15d601691eddf7","study_id":"605e2a800ccfa0c8e820d869","session_id":"6062209b0d52e7ad9a4193fd"},{"rt":5372,"stimulus":"img/00042.png","slider_start":4,"response":5,"trial_type":"image-slider-response","trial_index":146,"time_elapsed":673860,"internal_node_id":"0.0-3.0-0.143","subject_id":"5f68b8416b15d601691eddf7","study_id":"605e2a800ccfa0c8e820d869","session_id":"6062209b0d52e7ad9a4193fd"},{"rt":3782,"stimulus":"img/00850.png","slider_start":4,"response":4,"trial_type":"image-slider-response","trial_index":147,"time_elapsed":677652,"internal_node_id":"0.0-3.0-0.144","subject_id":"5f68b8416b15d601691eddf7","study_id":"605e2a800ccfa0c8e820d869","session_id":"6062209b0d52e7ad9a4193fd"},{"rt":2339,"stimulus":"img/00483.png","slider_start":4,"response":5,"trial_type":"image-slider-response","trial_index":148,"time_elapsed":680004,"internal_node_id":"0.0-3.0-0.145","subject_id":"5f68b8416b15d601691eddf7","study_id":"605e2a800ccfa0c8e820d869","session_id":"6062209b0d52e7ad9a4193fd"},{"rt":5981,"stimulus":"img/00995.png","slider_start":4,"response":5,"trial_type":"image-slider-response","trial_index":149,"time_elapsed":685996,"internal_node_id":"0.0-3.0-0.146","subject_id":"5f68b8416b15d601691eddf7","study_id":"605e2a800ccfa0c8e820d869","session_id":"6062209b0d52e7ad9a4193fd"},{"rt":3986,"stimulus":"img/00002.png","slider_start":4,"response":2,"trial_type":"image-slider-response","trial_index":150,"time_elapsed":689996,"internal_node_id":"0.0-3.0-0.147","subject_id":"5f68b8416b15d601691eddf7","study_id":"605e2a800ccfa0c8e820d869","session_id":"6062209b0d52e7ad9a4193fd"},{"rt":2625,"stimulus":"img/00129.png","slider_start":4,"response":6,"trial_type":"image-slider-response","trial_index":151,"time_elapsed":692636,"internal_node_id":"0.0-3.0-0.148","subject_id":"5f68b8416b15d601691eddf7","study_id":"605e2a800ccfa0c8e820d869","session_id":"6062209b0d52e7ad9a4193fd"},{"rt":4387,"stimulus":"img/00773.png","slider_start":4,"response":4,"trial_type":"image-slider-response","trial_index":152,"time_elapsed":697037,"internal_node_id":"0.0-3.0-0.149","subject_id":"5f68b8416b15d601691eddf7","study_id":"605e2a800ccfa0c8e820d869","session_id":"6062209b0d52e7ad9a4193fd"},{"rt":2969,"stimulus":"img/00122.png","slider_start":4,"response":7,"trial_type":"image-slider-response","trial_index":153,"time_elapsed":700021,"internal_node_id":"0.0-3.0-0.150","subject_id":"5f68b8416b15d601691eddf7","study_id":"605e2a800ccfa0c8e820d869","session_id":"6062209b0d52e7ad9a4193fd"},{"rt":3267,"stimulus":"img/00113.png","slider_start":4,"response":2,"trial_type":"image-slider-response","trial_index":154,"time_elapsed":703300,"internal_node_id":"0.0-3.0-0.151","subject_id":"5f68b8416b15d601691eddf7","study_id":"605e2a800ccfa0c8e820d869","session_id":"6062209b0d52e7ad9a4193fd"},{"rt":2683,"stimulus":"img/00898.png","slider_start":4,"response":2,"trial_type":"image-slider-response","trial_index":155,"time_elapsed":705997,"internal_node_id":"0.0-3.0-0.152","subject_id":"5f68b8416b15d601691eddf7","study_id":"605e2a800ccfa0c8e820d869","session_id":"6062209b0d52e7ad9a4193fd"},{"rt":5108,"stimulus":"img/00082.png","slider_start":4,"response":4,"trial_type":"image-slider-response","trial_index":156,"time_elapsed":711116,"internal_node_id":"0.0-3.0-0.153","subject_id":"5f68b8416b15d601691eddf7","study_id":"605e2a800ccfa0c8e820d869","session_id":"6062209b0d52e7ad9a4193fd"},{"rt":3731,"stimulus":"img/00612.png","slider_start":4,"response":2,"trial_type":"image-slider-response","trial_index":157,"time_elapsed":714860,"internal_node_id":"0.0-3.0-0.154","subject_id":"5f68b8416b15d601691eddf7","study_id":"605e2a800ccfa0c8e820d869","session_id":"6062209b0d52e7ad9a4193fd"},{"rt":4147,"stimulus":"img/00780.png","slider_start":4,"response":3,"trial_type":"image-slider-response","trial_index":158,"time_elapsed":719020,"internal_node_id":"0.0-3.0-0.155","subject_id":"5f68b8416b15d601691eddf7","study_id":"605e2a800ccfa0c8e820d869","session_id":"6062209b0d52e7ad9a4193fd"},{"rt":2828,"stimulus":"img/00860.png","slider_start":4,"response":2,"trial_type":"image-slider-response","trial_index":159,"time_elapsed":721860,"internal_node_id":"0.0-3.0-0.156","subject_id":"5f68b8416b15d601691eddf7","study_id":"605e2a800ccfa0c8e820d869","session_id":"6062209b0d52e7ad9a4193fd"},{"rt":7028,"stimulus":"img/00825.png","slider_start":4,"response":7,"trial_type":"image-slider-response","trial_index":160,"time_elapsed":728900,"internal_node_id":"0.0-3.0-0.157","subject_id":"5f68b8416b15d601691eddf7","study_id":"605e2a800ccfa0c8e820d869","session_id":"6062209b0d52e7ad9a4193fd"},{"rt":2266,"stimulus":"img/00508.png","slider_start":4,"response":5,"trial_type":"image-slider-response","trial_index":161,"time_elapsed":731181,"internal_node_id":"0.0-3.0-0.158","subject_id":"5f68b8416b15d601691eddf7","study_id":"605e2a800ccfa0c8e820d869","session_id":"6062209b0d52e7ad9a4193fd"},{"rt":2196,"stimulus":"img/00576.png","slider_start":4,"response":6,"trial_type":"image-slider-response","trial_index":162,"time_elapsed":733389,"internal_node_id":"0.0-3.0-0.159","subject_id":"5f68b8416b15d601691eddf7","study_id":"605e2a800ccfa0c8e820d869","session_id":"6062209b0d52e7ad9a4193fd"},{"rt":4788,"stimulus":"img/00790.png","slider_start":4,"response":4,"trial_type":"image-slider-response","trial_index":163,"time_elapsed":738188,"internal_node_id":"0.0-3.0-0.160","subject_id":"5f68b8416b15d601691eddf7","study_id":"605e2a800ccfa0c8e820d869","session_id":"6062209b0d52e7ad9a4193fd"},{"rt":2028,"stimulus":"img/00842.png","slider_start":4,"response":6,"trial_type":"image-slider-response","trial_index":164,"time_elapsed":740229,"internal_node_id":"0.0-3.0-0.161","subject_id":"5f68b8416b15d601691eddf7","study_id":"605e2a800ccfa0c8e820d869","session_id":"6062209b0d52e7ad9a4193fd"},{"rt":2651,"stimulus":"img/00686.png","slider_start":4,"response":6,"trial_type":"image-slider-response","trial_index":165,"time_elapsed":742893,"internal_node_id":"0.0-3.0-0.162","subject_id":"5f68b8416b15d601691eddf7","study_id":"605e2a800ccfa0c8e820d869","session_id":"6062209b0d52e7ad9a4193fd"},{"rt":8736,"stimulus":"img/00064.png","slider_start":4,"response":6,"trial_type":"image-slider-response","trial_index":166,"time_elapsed":751638,"internal_node_id":"0.0-3.0-0.163","subject_id":"5f68b8416b15d601691eddf7","study_id":"605e2a800ccfa0c8e820d869","session_id":"6062209b0d52e7ad9a4193fd"},{"rt":3113,"stimulus":"img/00799.png","slider_start":4,"response":2,"trial_type":"image-slider-response","trial_index":167,"time_elapsed":754764,"internal_node_id":"0.0-3.0-0.164","subject_id":"5f68b8416b15d601691eddf7","study_id":"605e2a800ccfa0c8e820d869","session_id":"6062209b0d52e7ad9a4193fd"},{"rt":1771,"stimulus":"img/00722.png","slider_start":4,"response":3,"trial_type":"image-slider-response","trial_index":168,"time_elapsed":756549,"internal_node_id":"0.0-3.0-0.165","subject_id":"5f68b8416b15d601691eddf7","study_id":"605e2a800ccfa0c8e820d869","session_id":"6062209b0d52e7ad9a4193fd"},{"rt":2225,"stimulus":"img/00545.png","slider_start":4,"response":4,"trial_type":"image-slider-response","trial_index":169,"time_elapsed":758788,"internal_node_id":"0.0-3.0-0.166","subject_id":"5f68b8416b15d601691eddf7","study_id":"605e2a800ccfa0c8e820d869","session_id":"6062209b0d52e7ad9a4193fd"},{"rt":2780,"stimulus":"img/00432.png","slider_start":4,"response":7,"trial_type":"image-slider-response","trial_index":170,"time_elapsed":761581,"internal_node_id":"0.0-3.0-0.167","subject_id":"5f68b8416b15d601691eddf7","study_id":"605e2a800ccfa0c8e820d869","session_id":"6062209b0d52e7ad9a4193fd"},{"rt":9251,"stimulus":"img/00973.png","slider_start":4,"response":6,"trial_type":"image-slider-response","trial_index":171,"time_elapsed":770845,"internal_node_id":"0.0-3.0-0.168","subject_id":"5f68b8416b15d601691eddf7","study_id":"605e2a800ccfa0c8e820d869","session_id":"6062209b0d52e7ad9a4193fd"},{"rt":2233,"stimulus":"img/00059.png","slider_start":4,"response":6,"trial_type":"image-slider-response","trial_index":172,"time_elapsed":773092,"internal_node_id":"0.0-3.0-0.169","subject_id":"5f68b8416b15d601691eddf7","study_id":"605e2a800ccfa0c8e820d869","session_id":"6062209b0d52e7ad9a4193fd"},{"rt":2524,"stimulus":"img/00130.png","slider_start":4,"response":7,"trial_type":"image-slider-response","trial_index":173,"time_elapsed":775628,"internal_node_id":"0.0-3.0-0.170","subject_id":"5f68b8416b15d601691eddf7","study_id":"605e2a800ccfa0c8e820d869","session_id":"6062209b0d52e7ad9a4193fd"},{"rt":3121,"stimulus":"img/00564.png","slider_start":4,"response":7,"trial_type":"image-slider-response","trial_index":174,"time_elapsed":778765,"internal_node_id":"0.0-3.0-0.171","subject_id":"5f68b8416b15d601691eddf7","study_id":"605e2a800ccfa0c8e820d869","session_id":"6062209b0d52e7ad9a4193fd"}]