[{"rt":1631.6549999992276,"stimulus":"Welcome to the experiment. Press any key to begin.","response":" ","trial_type":"html-keyboard-response","trial_index":0,"time_elapsed":1640,"internal_node_id":"0.0-0.0","subject_id":"5c1041a209e7c20001f1f128","study_id":"605e2a800ccfa0c8e820d869","session_id":"606220985ef4ca9f98e3a176"},{"rt":3085.814999998547,"stimulus":"\n        <p>In this experiment, a face will appear on-screen.</p><p> <strong>Rate the face on a 1 - 7 scale based on how attractive he / she is.</strong> </p>\n        </div>\n        <p>Press any key to begin.</p>\n      ","response":" ","trial_type":"html-keyboard-response","trial_index":1,"time_elapsed":4729,"internal_node_id":"0.0-1.0","subject_id":"5c1041a209e7c20001f1f128","study_id":"605e2a800ccfa0c8e820d869","session_id":"606220985ef4ca9f98e3a176"},{"success":true,"timeout":false,"failed_images":[],"failed_audio":[],"failed_video":[],"trial_type":"preload","trial_index":2,"time_elapsed":39300,"internal_node_id":"0.0-2.0","subject_id":"5c1041a209e7c20001f1f128","study_id":"605e2a800ccfa0c8e820d869","session_id":"606220985ef4ca9f98e3a176"},{"rt":5010.104999999385,"stimulus":"img/00101.png","slider_start":4,"response":1,"trial_type":"image-slider-response","trial_index":3,"time_elapsed":44361,"internal_node_id":"0.0-3.0-0.0","subject_id":"5c1041a209e7c20001f1f128","study_id":"605e2a800ccfa0c8e820d869","session_id":"606220985ef4ca9f98e3a176"},{"rt":5886.389999999665,"stimulus":"img/00418.png","slider_start":4,"response":5,"trial_type":"image-slider-response","trial_index":4,"time_elapsed":50257,"internal_node_id":"0.0-3.0-0.1","subject_id":"5c1041a209e7c20001f1f128","study_id":"605e2a800ccfa0c8e820d869","session_id":"606220985ef4ca9f98e3a176"},{"rt":5273.714999999356,"stimulus":"img/00456.png","slider_start":4,"response":2,"trial_type":"image-slider-response","trial_index":5,"time_elapsed":55540,"internal_node_id":"0.0-3.0-0.2","subject_id":"5c1041a209e7c20001f1f128","study_id":"605e2a800ccfa0c8e820d869","session_id":"606220985ef4ca9f98e3a176"},{"rt":3375.674999999319,"stimulus":"img/00424.png","slider_start":4,"response":4,"trial_type":"image-slider-response","trial_index":6,"time_elapsed":58926,"internal_node_id":"0.0-3.0-0.3","subject_id":"5c1041a209e7c20001f1f128","study_id":"605e2a800ccfa0c8e820d869","session_id":"606220985ef4ca9f98e3a176"},{"rt":5858.1950000007055,"stimulus":"img/00549.png","slider_start":4,"response":4,"trial_type":"image-slider-response","trial_index":7,"time_elapsed":64794,"internal_node_id":"0.0-3.0-0.4","subject_id":"5c1041a209e7c20001f1f128","study_id":"605e2a800ccfa0c8e820d869","session_id":"606220985ef4ca9f98e3a176"},{"rt":3040.595000000394,"stimulus":"img/00002.png","slider_start":4,"response":3,"trial_type":"image-slider-response","trial_index":8,"time_elapsed":67847,"internal_node_id":"0.0-3.0-0.5","subject_id":"5c1041a209e7c20001f1f128","study_id":"605e2a800ccfa0c8e820d869","session_id":"606220985ef4ca9f98e3a176"},{"rt":3379.530000000159,"stimulus":"img/00045.png","slider_start":4,"response":3,"trial_type":"image-slider-response","trial_index":9,"time_elapsed":71240,"internal_node_id":"0.0-3.0-0.6","subject_id":"5c1041a209e7c20001f1f128","study_id":"605e2a800ccfa0c8e820d869","session_id":"606220985ef4ca9f98e3a176"},{"rt":4026.654999999664,"stimulus":"img/00029.png","slider_start":4,"response":1,"trial_type":"image-slider-response","trial_index":10,"time_elapsed":75278,"internal_node_id":"0.0-3.0-0.7","subject_id":"5c1041a209e7c20001f1f128","study_id":"605e2a800ccfa0c8e820d869","session_id":"606220985ef4ca9f98e3a176"},{"rt":4143.125000000509,"stimulus":"img/00708.png","slider_start":4,"response":3,"trial_type":"image-slider-response","trial_index":11,"time_elapsed":79433,"internal_node_id":"0.0-3.0-0.8","subject_id":"5c1041a209e7c20001f1f128","study_id":"605e2a800ccfa0c8e820d869","session_id":"606220985ef4ca9f98e3a176"},{"rt":2960.435000000871,"stimulus":"img/00797.png","slider_start":4,"response":2,"trial_type":"image-slider-response","trial_index":12,"time_elapsed":82405,"internal_node_id":"0.0-3.0-0.9","subject_id":"5c1041a209e7c20001f1f128","study_id":"605e2a800ccfa0c8e820d869","session_id":"606220985ef4ca9f98e3a176"},{"rt":3117.3149999995076,"stimulus":"img/00989.png","slider_start":4,"response":5,"trial_type":"image-slider-response","trial_index":13,"time_elapsed":85531,"internal_node_id":"0.0-3.0-0.10","subject_id":"5c1041a209e7c20001f1f128","study_id":"605e2a800ccfa0c8e820d869","session_id":"606220985ef4ca9f98e3a176"},{"rt":2972.9000000006636,"stimulus":"img/00478.png","slider_start":4,"response":3,"trial_type":"image-slider-response","trial_index":14,"time_elapsed":88516,"internal_node_id":"0.0-3.0-0.11","subject_id":"5c1041a209e7c20001f1f128","study_id":"605e2a800ccfa0c8e820d869","session_id":"606220985ef4ca9f98e3a176"},{"rt":3227.215000000797,"stimulus":"img/00998.png","slider_start":4,"response":2,"trial_type":"image-slider-response","trial_index":15,"time_elapsed":91751,"internal_node_id":"0.0-3.0-0.12","subject_id":"5c1041a209e7c20001f1f128","study_id":"605e2a800ccfa0c8e820d869","session_id":"606220985ef4ca9f98e3a176"},{"rt":3672.950000000128,"stimulus":"img/00689.png","slider_start":4,"response":3,"trial_type":"image-slider-response","trial_index":16,"time_elapsed":95437,"internal_node_id":"0.0-3.0-0.13","subject_id":"5c1041a209e7c20001f1f128","study_id":"605e2a800ccfa0c8e820d869","session_id":"606220985ef4ca9f98e3a176"},{"rt":5599.285000000236,"stimulus":"img/00576.png","slider_start":4,"response":6,"trial_type":"image-slider-response","trial_index":17,"time_elapsed":101049,"internal_node_id":"0.0-3.0-0.14","subject_id":"5c1041a209e7c20001f1f128","study_id":"605e2a800ccfa0c8e820d869","session_id":"606220985ef4ca9f98e3a176"},{"rt":9954.359999999724,"stimulus":"img/00973.png","slider_start":4,"response":4,"trial_type":"image-slider-response","trial_index":18,"time_elapsed":111016,"internal_node_id":"0.0-3.0-0.15","subject_id":"5c1041a209e7c20001f1f128","study_id":"605e2a800ccfa0c8e820d869","session_id":"606220985ef4ca9f98e3a176"},{"rt":8596.944999999323,"stimulus":"img/00428.png","slider_start":4,"response":3,"trial_type":"image-slider-response","trial_index":19,"time_elapsed":119625,"internal_node_id":"0.0-3.0-0.16","subject_id":"5c1041a209e7c20001f1f128","study_id":"605e2a800ccfa0c8e820d869","session_id":"606220985ef4ca9f98e3a176"},{"rt":4178.894999999102,"stimulus":"img/00779.png","slider_start":4,"response":2,"trial_type":"image-slider-response","trial_index":20,"time_elapsed":123812,"internal_node_id":"0.0-3.0-0.17","subject_id":"5c1041a209e7c20001f1f128","study_id":"605e2a800ccfa0c8e820d869","session_id":"606220985ef4ca9f98e3a176"},{"rt":3499.5450000005803,"stimulus":"img/00600.png","slider_start":4,"response":3,"trial_type":"image-slider-response","trial_index":21,"time_elapsed":127319,"internal_node_id":"0.0-3.0-0.18","subject_id":"5c1041a209e7c20001f1f128","study_id":"605e2a800ccfa0c8e820d869","session_id":"606220985ef4ca9f98e3a176"},{"rt":4696.334999998726,"stimulus":"img/00768.png","slider_start":4,"response":3,"trial_type":"image-slider-response","trial_index":22,"time_elapsed":132022,"internal_node_id":"0.0-3.0-0.19","subject_id":"5c1041a209e7c20001f1f128","study_id":"605e2a800ccfa0c8e820d869","session_id":"606220985ef4ca9f98e3a176"},{"rt":3781.899999999965,"stimulus":"img/00791.png","slider_start":4,"response":3,"trial_type":"image-slider-response","trial_index":23,"time_elapsed":135813,"internal_node_id":"0.0-3.0-0.20","subject_id":"5c1041a209e7c20001f1f128","study_id":"605e2a800ccfa0c8e820d869","session_id":"606220985ef4ca9f98e3a176"},{"rt":3319.089999999065,"stimulus":"img/00525.png","slider_start":4,"response":4,"trial_type":"image-slider-response","trial_index":24,"time_elapsed":139141,"internal_node_id":"0.0-3.0-0.21","subject_id":"5c1041a209e7c20001f1f128","study_id":"605e2a800ccfa0c8e820d869","session_id":"606220985ef4ca9f98e3a176"},{"rt":2515.7299999991665,"stimulus":"img/00543.png","slider_start":4,"response":4,"trial_type":"image-slider-response","trial_index":25,"time_elapsed":141664,"internal_node_id":"0.0-3.0-0.22","subject_id":"5c1041a209e7c20001f1f128","study_id":"605e2a800ccfa0c8e820d869","session_id":"606220985ef4ca9f98e3a176"},{"rt":3946.205000000191,"stimulus":"img/00833.png","slider_start":4,"response":5,"trial_type":"image-slider-response","trial_index":26,"time_elapsed":145617,"internal_node_id":"0.0-3.0-0.23","subject_id":"5c1041a209e7c20001f1f128","study_id":"605e2a800ccfa0c8e820d869","session_id":"606220985ef4ca9f98e3a176"},{"rt":3218.9949999992677,"stimulus":"img/00691.png","slider_start":4,"response":4,"trial_type":"image-slider-response","trial_index":27,"time_elapsed":148843,"internal_node_id":"0.0-3.0-0.24","subject_id":"5c1041a209e7c20001f1f128","study_id":"605e2a800ccfa0c8e820d869","session_id":"606220985ef4ca9f98e3a176"},{"rt":5373.864999999583,"stimulus":"img/00481.png","slider_start":4,"response":4,"trial_type":"image-slider-response","trial_index":28,"time_elapsed":154227,"internal_node_id":"0.0-3.0-0.25","subject_id":"5c1041a209e7c20001f1f128","study_id":"605e2a800ccfa0c8e820d869","session_id":"606220985ef4ca9f98e3a176"},{"rt":4145.824999999604,"stimulus":"img/00413.png","slider_start":4,"response":3,"trial_type":"image-slider-response","trial_index":29,"time_elapsed":158379,"internal_node_id":"0.0-3.0-0.26","subject_id":"5c1041a209e7c20001f1f128","study_id":"605e2a800ccfa0c8e820d869","session_id":"606220985ef4ca9f98e3a176"},{"rt":4773.025000000431,"stimulus":"img/00790.png","slider_start":4,"response":4,"trial_type":"image-slider-response","trial_index":30,"time_elapsed":163160,"internal_node_id":"0.0-3.0-0.27","subject_id":"5c1041a209e7c20001f1f128","study_id":"605e2a800ccfa0c8e820d869","session_id":"606220985ef4ca9f98e3a176"},{"rt":3013.549999999668,"stimulus":"img/00401.png","slider_start":4,"response":3,"trial_type":"image-slider-response","trial_index":31,"time_elapsed":166182,"internal_node_id":"0.0-3.0-0.28","subject_id":"5c1041a209e7c20001f1f128","study_id":"605e2a800ccfa0c8e820d869","session_id":"606220985ef4ca9f98e3a176"},{"rt":3953.6650000009104,"stimulus":"img/00967.png","slider_start":4,"response":3,"trial_type":"image-slider-response","trial_index":32,"time_elapsed":170144,"internal_node_id":"0.0-3.0-0.29","subject_id":"5c1041a209e7c20001f1f128","study_id":"605e2a800ccfa0c8e820d869","session_id":"606220985ef4ca9f98e3a176"},{"rt":6185.729999999254,"stimulus":"img/00718.png","slider_start":4,"response":3,"trial_type":"image-slider-response","trial_index":33,"time_elapsed":176338,"internal_node_id":"0.0-3.0-0.30","subject_id":"5c1041a209e7c20001f1f128","study_id":"605e2a800ccfa0c8e820d869","session_id":"606220985ef4ca9f98e3a176"},{"rt":3273.970000000205,"stimulus":"img/00748.png","slider_start":4,"response":4,"trial_type":"image-slider-response","trial_index":34,"time_elapsed":179621,"internal_node_id":"0.0-3.0-0.31","subject_id":"5c1041a209e7c20001f1f128","study_id":"605e2a800ccfa0c8e820d869","session_id":"606220985ef4ca9f98e3a176"},{"rt":2962.660000001022,"stimulus":"img/00841.png","slider_start":4,"response":5,"trial_type":"image-slider-response","trial_index":35,"time_elapsed":182591,"internal_node_id":"0.0-3.0-0.32","subject_id":"5c1041a209e7c20001f1f128","study_id":"605e2a800ccfa0c8e820d869","session_id":"606220985ef4ca9f98e3a176"},{"rt":4202.015000000771,"stimulus":"img/00559.png","slider_start":4,"response":5,"trial_type":"image-slider-response","trial_index":36,"time_elapsed":186805,"internal_node_id":"0.0-3.0-0.33","subject_id":"5c1041a209e7c20001f1f128","study_id":"605e2a800ccfa0c8e820d869","session_id":"606220985ef4ca9f98e3a176"},{"rt":3394.000000000233,"stimulus":"img/00015.png","slider_start":4,"response":4,"trial_type":"image-slider-response","trial_index":37,"time_elapsed":190206,"internal_node_id":"0.0-3.0-0.34","subject_id":"5c1041a209e7c20001f1f128","study_id":"605e2a800ccfa0c8e820d869","session_id":"606220985ef4ca9f98e3a176"},{"rt":4785.434999999765,"stimulus":"img/00631.png","slider_start":4,"response":5,"trial_type":"image-slider-response","trial_index":38,"time_elapsed":195000,"internal_node_id":"0.0-3.0-0.35","subject_id":"5c1041a209e7c20001f1f128","study_id":"605e2a800ccfa0c8e820d869","session_id":"606220985ef4ca9f98e3a176"},{"rt":3370.4299999990326,"stimulus":"img/00592.png","slider_start":4,"response":5,"trial_type":"image-slider-response","trial_index":39,"time_elapsed":198378,"internal_node_id":"0.0-3.0-0.36","subject_id":"5c1041a209e7c20001f1f128","study_id":"605e2a800ccfa0c8e820d869","session_id":"606220985ef4ca9f98e3a176"},{"rt":27814.370000000054,"stimulus":"img/00867.png","slider_start":4,"response":4,"trial_type":"image-slider-response","trial_index":40,"time_elapsed":226201,"internal_node_id":"0.0-3.0-0.37","subject_id":"5c1041a209e7c20001f1f128","study_id":"605e2a800ccfa0c8e820d869","session_id":"606220985ef4ca9f98e3a176"},{"rt":6394.420000000537,"stimulus":"img/00928.png","slider_start":4,"response":4,"trial_type":"image-slider-response","trial_index":41,"time_elapsed":232605,"internal_node_id":"0.0-3.0-0.38","subject_id":"5c1041a209e7c20001f1f128","study_id":"605e2a800ccfa0c8e820d869","session_id":"606220985ef4ca9f98e3a176"},{"rt":10294.965000000957,"stimulus":"img/00879.png","slider_start":4,"response":5,"trial_type":"image-slider-response","trial_index":42,"time_elapsed":242910,"internal_node_id":"0.0-3.0-0.39","subject_id":"5c1041a209e7c20001f1f128","study_id":"605e2a800ccfa0c8e820d869","session_id":"606220985ef4ca9f98e3a176"},{"rt":6045.904999999038,"stimulus":"img/00064.png","slider_start":4,"response":3,"trial_type":"image-slider-response","trial_index":43,"time_elapsed":248967,"internal_node_id":"0.0-3.0-0.40","subject_id":"5c1041a209e7c20001f1f128","study_id":"605e2a800ccfa0c8e820d869","session_id":"606220985ef4ca9f98e3a176"},{"rt":12666.999999999476,"stimulus":"img/00496.png","slider_start":4,"response":4,"trial_type":"image-slider-response","trial_index":44,"time_elapsed":261646,"internal_node_id":"0.0-3.0-0.41","subject_id":"5c1041a209e7c20001f1f128","study_id":"605e2a800ccfa0c8e820d869","session_id":"606220985ef4ca9f98e3a176"},{"rt":3718.925000001036,"stimulus":"img/00489.png","slider_start":4,"response":2,"trial_type":"image-slider-response","trial_index":45,"time_elapsed":265376,"internal_node_id":"0.0-3.0-0.42","subject_id":"5c1041a209e7c20001f1f128","study_id":"605e2a800ccfa0c8e820d869","session_id":"606220985ef4ca9f98e3a176"},{"rt":3658.310000000696,"stimulus":"img/00759.png","slider_start":4,"response":4,"trial_type":"image-slider-response","trial_index":46,"time_elapsed":269044,"internal_node_id":"0.0-3.0-0.43","subject_id":"5c1041a209e7c20001f1f128","study_id":"605e2a800ccfa0c8e820d869","session_id":"606220985ef4ca9f98e3a176"},{"rt":4644.360000000219,"stimulus":"img/00055.png","slider_start":4,"response":5,"trial_type":"image-slider-response","trial_index":47,"time_elapsed":273701,"internal_node_id":"0.0-3.0-0.44","subject_id":"5c1041a209e7c20001f1f128","study_id":"605e2a800ccfa0c8e820d869","session_id":"606220985ef4ca9f98e3a176"},{"rt":2822.219999999972,"stimulus":"img/00690.png","slider_start":4,"response":5,"trial_type":"image-slider-response","trial_index":48,"time_elapsed":276536,"internal_node_id":"0.0-3.0-0.45","subject_id":"5c1041a209e7c20001f1f128","study_id":"605e2a800ccfa0c8e820d869","session_id":"606220985ef4ca9f98e3a176"},{"rt":4642.390000000887,"stimulus":"img/00483.png","slider_start":4,"response":4,"trial_type":"image-slider-response","trial_index":49,"time_elapsed":281187,"internal_node_id":"0.0-3.0-0.46","subject_id":"5c1041a209e7c20001f1f128","study_id":"605e2a800ccfa0c8e820d869","session_id":"606220985ef4ca9f98e3a176"},{"rt":5707.004999998375,"stimulus":"img/00848.png","slider_start":4,"response":4,"trial_type":"image-slider-response","trial_index":50,"time_elapsed":286901,"internal_node_id":"0.0-3.0-0.47","subject_id":"5c1041a209e7c20001f1f128","study_id":"605e2a800ccfa0c8e820d869","session_id":"606220985ef4ca9f98e3a176"},{"rt":2774.7250000010827,"stimulus":"img/00742.png","slider_start":4,"response":4,"trial_type":"image-slider-response","trial_index":51,"time_elapsed":289685,"internal_node_id":"0.0-3.0-0.48","subject_id":"5c1041a209e7c20001f1f128","study_id":"605e2a800ccfa0c8e820d869","session_id":"606220985ef4ca9f98e3a176"},{"rt":4796.650000000198,"stimulus":"img/00752.png","slider_start":4,"response":2,"trial_type":"image-slider-response","trial_index":52,"time_elapsed":294489,"internal_node_id":"0.0-3.0-0.49","subject_id":"5c1041a209e7c20001f1f128","study_id":"605e2a800ccfa0c8e820d869","session_id":"606220985ef4ca9f98e3a176"},{"rt":4679.430000000109,"stimulus":"img/00464.png","slider_start":4,"response":2,"trial_type":"image-slider-response","trial_index":53,"time_elapsed":299177,"internal_node_id":"0.0-3.0-0.50","subject_id":"5c1041a209e7c20001f1f128","study_id":"605e2a800ccfa0c8e820d869","session_id":"606220985ef4ca9f98e3a176"},{"rt":4073.209999998624,"stimulus":"img/00801.png","slider_start":4,"response":4,"trial_type":"image-slider-response","trial_index":54,"time_elapsed":303258,"internal_node_id":"0.0-3.0-0.51","subject_id":"5c1041a209e7c20001f1f128","study_id":"605e2a800ccfa0c8e820d869","session_id":"606220985ef4ca9f98e3a176"},{"rt":3957.190000000992,"stimulus":"img/00499.png","slider_start":4,"response":3,"trial_type":"image-slider-response","trial_index":55,"time_elapsed":307223,"internal_node_id":"0.0-3.0-0.52","subject_id":"5c1041a209e7c20001f1f128","study_id":"605e2a800ccfa0c8e820d869","session_id":"606220985ef4ca9f98e3a176"},{"rt":5001.980000000913,"stimulus":"img/00078.png","slider_start":4,"response":3,"trial_type":"image-slider-response","trial_index":56,"time_elapsed":312232,"internal_node_id":"0.0-3.0-0.53","subject_id":"5c1041a209e7c20001f1f128","study_id":"605e2a800ccfa0c8e820d869","session_id":"606220985ef4ca9f98e3a176"},{"rt":2951.269999999553,"stimulus":"img/00644.png","slider_start":4,"response":4,"trial_type":"image-slider-response","trial_index":57,"time_elapsed":315192,"internal_node_id":"0.0-3.0-0.54","subject_id":"5c1041a209e7c20001f1f128","study_id":"605e2a800ccfa0c8e820d869","session_id":"606220985ef4ca9f98e3a176"},{"rt":7215.395000001066,"stimulus":"img/00006.png","slider_start":4,"response":3,"trial_type":"image-slider-response","trial_index":58,"time_elapsed":322415,"internal_node_id":"0.0-3.0-0.55","subject_id":"5c1041a209e7c20001f1f128","study_id":"605e2a800ccfa0c8e820d869","session_id":"606220985ef4ca9f98e3a176"},{"rt":5907.204999999492,"stimulus":"img/40.png","slider_start":4,"response":5,"trial_type":"image-slider-response","trial_index":59,"time_elapsed":328331,"internal_node_id":"0.0-3.0-0.56","subject_id":"5c1041a209e7c20001f1f128","study_id":"605e2a800ccfa0c8e820d869","session_id":"606220985ef4ca9f98e3a176"},{"rt":3715.9449999998906,"stimulus":"img/00773.png","slider_start":4,"response":5,"trial_type":"image-slider-response","trial_index":60,"time_elapsed":332054,"internal_node_id":"0.0-3.0-0.57","subject_id":"5c1041a209e7c20001f1f128","study_id":"605e2a800ccfa0c8e820d869","session_id":"606220985ef4ca9f98e3a176"},{"rt":3727.3500000010245,"stimulus":"img/00040.png","slider_start":4,"response":2,"trial_type":"image-slider-response","trial_index":61,"time_elapsed":335789,"internal_node_id":"0.0-3.0-0.58","subject_id":"5c1041a209e7c20001f1f128","study_id":"605e2a800ccfa0c8e820d869","session_id":"606220985ef4ca9f98e3a176"},{"rt":5002.904999999388,"stimulus":"img/00415.png","slider_start":4,"response":2,"trial_type":"image-slider-response","trial_index":62,"time_elapsed":340800,"internal_node_id":"0.0-3.0-0.59","subject_id":"5c1041a209e7c20001f1f128","study_id":"605e2a800ccfa0c8e820d869","session_id":"606220985ef4ca9f98e3a176"},{"rt":4124.195000000356,"stimulus":"img/00472.png","slider_start":4,"response":2,"trial_type":"image-slider-response","trial_index":63,"time_elapsed":344934,"internal_node_id":"0.0-3.0-0.60","subject_id":"5c1041a209e7c20001f1f128","study_id":"605e2a800ccfa0c8e820d869","session_id":"606220985ef4ca9f98e3a176"},{"rt":7542.9249999997555,"stimulus":"img/00082.png","slider_start":4,"response":4,"trial_type":"image-slider-response","trial_index":64,"time_elapsed":352485,"internal_node_id":"0.0-3.0-0.61","subject_id":"5c1041a209e7c20001f1f128","study_id":"605e2a800ccfa0c8e820d869","session_id":"606220985ef4ca9f98e3a176"},{"rt":6187.930000000051,"stimulus":"img/00561.png","slider_start":4,"response":4,"trial_type":"image-slider-response","trial_index":65,"time_elapsed":358681,"internal_node_id":"0.0-3.0-0.62","subject_id":"5c1041a209e7c20001f1f128","study_id":"605e2a800ccfa0c8e820d869","session_id":"606220985ef4ca9f98e3a176"},{"rt":6055.15000000014,"stimulus":"img/00122.png","slider_start":4,"response":4,"trial_type":"image-slider-response","trial_index":66,"time_elapsed":364747,"internal_node_id":"0.0-3.0-0.63","subject_id":"5c1041a209e7c20001f1f128","study_id":"605e2a800ccfa0c8e820d869","session_id":"606220985ef4ca9f98e3a176"},{"rt":4285.920000000275,"stimulus":"img/00126.png","slider_start":4,"response":2,"trial_type":"image-slider-response","trial_index":67,"time_elapsed":369044,"internal_node_id":"0.0-3.0-0.64","subject_id":"5c1041a209e7c20001f1f128","study_id":"605e2a800ccfa0c8e820d869","session_id":"606220985ef4ca9f98e3a176"},{"rt":23769.84500000073,"stimulus":"img/00780.png","slider_start":4,"response":4,"trial_type":"image-slider-response","trial_index":68,"time_elapsed":392822,"internal_node_id":"0.0-3.0-0.65","subject_id":"5c1041a209e7c20001f1f128","study_id":"605e2a800ccfa0c8e820d869","session_id":"606220985ef4ca9f98e3a176"},{"rt":9690.114999999409,"stimulus":"img/00926.png","slider_start":4,"response":4,"trial_type":"image-slider-response","trial_index":69,"time_elapsed":402522,"internal_node_id":"0.0-3.0-0.66","subject_id":"5c1041a209e7c20001f1f128","study_id":"605e2a800ccfa0c8e820d869","session_id":"606220985ef4ca9f98e3a176"},{"rt":3905.7649999995483,"stimulus":"img/00041.png","slider_start":4,"response":5,"trial_type":"image-slider-response","trial_index":70,"time_elapsed":406437,"internal_node_id":"0.0-3.0-0.67","subject_id":"5c1041a209e7c20001f1f128","study_id":"605e2a800ccfa0c8e820d869","session_id":"606220985ef4ca9f98e3a176"},{"rt":2910.5550000004005,"stimulus":"img/00554.png","slider_start":4,"response":4,"trial_type":"image-slider-response","trial_index":71,"time_elapsed":409358,"internal_node_id":"0.0-3.0-0.68","subject_id":"5c1041a209e7c20001f1f128","study_id":"605e2a800ccfa0c8e820d869","session_id":"606220985ef4ca9f98e3a176"},{"rt":4175.255000000121,"stimulus":"img/00760.png","slider_start":4,"response":4,"trial_type":"image-slider-response","trial_index":72,"time_elapsed":413541,"internal_node_id":"0.0-3.0-0.69","subject_id":"5c1041a209e7c20001f1f128","study_id":"605e2a800ccfa0c8e820d869","session_id":"606220985ef4ca9f98e3a176"},{"rt":9183.064999999246,"stimulus":"img/00755.png","slider_start":4,"response":3,"trial_type":"image-slider-response","trial_index":73,"time_elapsed":422734,"internal_node_id":"0.0-3.0-0.70","subject_id":"5c1041a209e7c20001f1f128","study_id":"605e2a800ccfa0c8e820d869","session_id":"606220985ef4ca9f98e3a176"},{"rt":5259.5799999999,"stimulus":"img/00127.png","slider_start":4,"response":2,"trial_type":"image-slider-response","trial_index":74,"time_elapsed":428000,"internal_node_id":"0.0-3.0-0.71","subject_id":"5c1041a209e7c20001f1f128","study_id":"605e2a800ccfa0c8e820d869","session_id":"606220985ef4ca9f98e3a176"},{"rt":5931.464999999618,"stimulus":"img/00878.png","slider_start":4,"response":3,"trial_type":"image-slider-response","trial_index":75,"time_elapsed":433939,"internal_node_id":"0.0-3.0-0.72","subject_id":"5c1041a209e7c20001f1f128","study_id":"605e2a800ccfa0c8e820d869","session_id":"606220985ef4ca9f98e3a176"},{"rt":4507.465000000608,"stimulus":"img/00731.png","slider_start":4,"response":3,"trial_type":"image-slider-response","trial_index":76,"time_elapsed":438454,"internal_node_id":"0.0-3.0-0.73","subject_id":"5c1041a209e7c20001f1f128","study_id":"605e2a800ccfa0c8e820d869","session_id":"606220985ef4ca9f98e3a176"},{"rt":4184.675000000396,"stimulus":"img/00037.png","slider_start":4,"response":4,"trial_type":"image-slider-response","trial_index":77,"time_elapsed":442647,"internal_node_id":"0.0-3.0-0.74","subject_id":"5c1041a209e7c20001f1f128","study_id":"605e2a800ccfa0c8e820d869","session_id":"606220985ef4ca9f98e3a176"},{"rt":7689.304999999877,"stimulus":"img/00113.png","slider_start":4,"response":1,"trial_type":"image-slider-response","trial_index":78,"time_elapsed":450346,"internal_node_id":"0.0-3.0-0.75","subject_id":"5c1041a209e7c20001f1f128","study_id":"605e2a800ccfa0c8e820d869","session_id":"606220985ef4ca9f98e3a176"},{"rt":4189.190000000992,"stimulus":"img/00688.png","slider_start":4,"response":5,"trial_type":"image-slider-response","trial_index":79,"time_elapsed":454567,"internal_node_id":"0.0-3.0-0.76","subject_id":"5c1041a209e7c20001f1f128","study_id":"605e2a800ccfa0c8e820d869","session_id":"606220985ef4ca9f98e3a176"},{"rt":4725.280000000552,"stimulus":"img/00437.png","slider_start":4,"response":3,"trial_type":"image-slider-response","trial_index":80,"time_elapsed":459302,"internal_node_id":"0.0-3.0-0.77","subject_id":"5c1041a209e7c20001f1f128","study_id":"605e2a800ccfa0c8e820d869","session_id":"606220985ef4ca9f98e3a176"},{"rt":7202.279999999504,"stimulus":"img/00913.png","slider_start":4,"response":5,"trial_type":"image-slider-response","trial_index":81,"time_elapsed":466511,"internal_node_id":"0.0-3.0-0.78","subject_id":"5c1041a209e7c20001f1f128","study_id":"605e2a800ccfa0c8e820d869","session_id":"606220985ef4ca9f98e3a176"},{"rt":14844.170000000275,"stimulus":"img/00903.png","slider_start":4,"response":4,"trial_type":"image-slider-response","trial_index":82,"time_elapsed":481366,"internal_node_id":"0.0-3.0-0.79","subject_id":"5c1041a209e7c20001f1f128","study_id":"605e2a800ccfa0c8e820d869","session_id":"606220985ef4ca9f98e3a176"},{"rt":4738.715000001306,"stimulus":"img/00949.png","slider_start":4,"response":4,"trial_type":"image-slider-response","trial_index":83,"time_elapsed":486115,"internal_node_id":"0.0-3.0-0.80","subject_id":"5c1041a209e7c20001f1f128","study_id":"605e2a800ccfa0c8e820d869","session_id":"606220985ef4ca9f98e3a176"},{"rt":3913.3249999994878,"stimulus":"img/00898.png","slider_start":4,"response":2,"trial_type":"image-slider-response","trial_index":84,"time_elapsed":490036,"internal_node_id":"0.0-3.0-0.81","subject_id":"5c1041a209e7c20001f1f128","study_id":"605e2a800ccfa0c8e820d869","session_id":"606220985ef4ca9f98e3a176"},{"rt":4282.85500000132,"stimulus":"img/00504.png","slider_start":4,"response":3,"trial_type":"image-slider-response","trial_index":85,"time_elapsed":494326,"internal_node_id":"0.0-3.0-0.82","subject_id":"5c1041a209e7c20001f1f128","study_id":"605e2a800ccfa0c8e820d869","session_id":"606220985ef4ca9f98e3a176"},{"rt":3232.2399999993504,"stimulus":"img/00503.png","slider_start":4,"response":1,"trial_type":"image-slider-response","trial_index":86,"time_elapsed":497566,"internal_node_id":"0.0-3.0-0.83","subject_id":"5c1041a209e7c20001f1f128","study_id":"605e2a800ccfa0c8e820d869","session_id":"606220985ef4ca9f98e3a176"},{"rt":3735.5999999999767,"stimulus":"img/00404.png","slider_start":4,"response":2,"trial_type":"image-slider-response","trial_index":87,"time_elapsed":501310,"internal_node_id":"0.0-3.0-0.84","subject_id":"5c1041a209e7c20001f1f128","study_id":"605e2a800ccfa0c8e820d869","session_id":"606220985ef4ca9f98e3a176"},{"rt":4266.040000000445,"stimulus":"img/00756.png","slider_start":4,"response":4,"trial_type":"image-slider-response","trial_index":88,"time_elapsed":505586,"internal_node_id":"0.0-3.0-0.85","subject_id":"5c1041a209e7c20001f1f128","study_id":"605e2a800ccfa0c8e820d869","session_id":"606220985ef4ca9f98e3a176"},{"rt":5704.725000001432,"stimulus":"img/00469.png","slider_start":4,"response":3,"trial_type":"image-slider-response","trial_index":89,"time_elapsed":511299,"internal_node_id":"0.0-3.0-0.86","subject_id":"5c1041a209e7c20001f1f128","study_id":"605e2a800ccfa0c8e820d869","session_id":"606220985ef4ca9f98e3a176"},{"rt":4767.759999998845,"stimulus":"img/00957.png","slider_start":4,"response":3,"trial_type":"image-slider-response","trial_index":90,"time_elapsed":516075,"internal_node_id":"0.0-3.0-0.87","subject_id":"5c1041a209e7c20001f1f128","study_id":"605e2a800ccfa0c8e820d869","session_id":"606220985ef4ca9f98e3a176"},{"rt":4544.624999998603,"stimulus":"img/00479.png","slider_start":4,"response":2,"trial_type":"image-slider-response","trial_index":91,"time_elapsed":520629,"internal_node_id":"0.0-3.0-0.88","subject_id":"5c1041a209e7c20001f1f128","study_id":"605e2a800ccfa0c8e820d869","session_id":"606220985ef4ca9f98e3a176"},{"rt":7730.8749999993015,"stimulus":"img/00982.png","slider_start":4,"response":3,"trial_type":"image-slider-response","trial_index":92,"time_elapsed":528369,"internal_node_id":"0.0-3.0-0.89","subject_id":"5c1041a209e7c20001f1f128","study_id":"605e2a800ccfa0c8e820d869","session_id":"606220985ef4ca9f98e3a176"},{"rt":3700.26999999932,"stimulus":"img/00902.png","slider_start":4,"response":4,"trial_type":"image-slider-response","trial_index":93,"time_elapsed":532078,"internal_node_id":"0.0-3.0-0.90","subject_id":"5c1041a209e7c20001f1f128","study_id":"605e2a800ccfa0c8e820d869","session_id":"606220985ef4ca9f98e3a176"},{"rt":4078.100000000559,"stimulus":"img/00785.png","slider_start":4,"response":4,"trial_type":"image-slider-response","trial_index":94,"time_elapsed":536166,"internal_node_id":"0.0-3.0-0.91","subject_id":"5c1041a209e7c20001f1f128","study_id":"605e2a800ccfa0c8e820d869","session_id":"606220985ef4ca9f98e3a176"},{"rt":5412.974999999278,"stimulus":"img/00570.png","slider_start":4,"response":5,"trial_type":"image-slider-response","trial_index":95,"time_elapsed":541586,"internal_node_id":"0.0-3.0-0.92","subject_id":"5c1041a209e7c20001f1f128","study_id":"605e2a800ccfa0c8e820d869","session_id":"606220985ef4ca9f98e3a176"},{"rt":4707.540000001201,"stimulus":"img/00427.png","slider_start":4,"response":6,"trial_type":"image-slider-response","trial_index":96,"time_elapsed":546302,"internal_node_id":"0.0-3.0-0.93","subject_id":"5c1041a209e7c20001f1f128","study_id":"605e2a800ccfa0c8e820d869","session_id":"606220985ef4ca9f98e3a176"},{"rt":4072.305000001448,"stimulus":"img/00810.png","slider_start":4,"response":2,"trial_type":"image-slider-response","trial_index":97,"time_elapsed":550383,"internal_node_id":"0.0-3.0-0.94","subject_id":"5c1041a209e7c20001f1f128","study_id":"605e2a800ccfa0c8e820d869","session_id":"606220985ef4ca9f98e3a176"},{"rt":3314.1150000010384,"stimulus":"img/00447.png","slider_start":4,"response":3,"trial_type":"image-slider-response","trial_index":98,"time_elapsed":553706,"internal_node_id":"0.0-3.0-0.95","subject_id":"5c1041a209e7c20001f1f128","study_id":"605e2a800ccfa0c8e820d869","session_id":"606220985ef4ca9f98e3a176"},{"rt":2722.705000000191,"stimulus":"img/00079.png","slider_start":4,"response":4,"trial_type":"image-slider-response","trial_index":99,"time_elapsed":556439,"internal_node_id":"0.0-3.0-0.96","subject_id":"5c1041a209e7c20001f1f128","study_id":"605e2a800ccfa0c8e820d869","session_id":"606220985ef4ca9f98e3a176"},{"rt":3661.044999998994,"stimulus":"img/00077.png","slider_start":4,"response":5,"trial_type":"image-slider-response","trial_index":100,"time_elapsed":560107,"internal_node_id":"0.0-3.0-0.97","subject_id":"5c1041a209e7c20001f1f128","study_id":"605e2a800ccfa0c8e820d869","session_id":"606220985ef4ca9f98e3a176"},{"rt":2555.5700000004144,"stimulus":"img/00618.png","slider_start":4,"response":4,"trial_type":"image-slider-response","trial_index":101,"time_elapsed":562671,"internal_node_id":"0.0-3.0-0.98","subject_id":"5c1041a209e7c20001f1f128","study_id":"605e2a800ccfa0c8e820d869","session_id":"606220985ef4ca9f98e3a176"},{"rt":6650.50000000163,"stimulus":"img/00438.png","slider_start":4,"response":4,"trial_type":"image-slider-response","trial_index":102,"time_elapsed":569329,"internal_node_id":"0.0-3.0-0.99","subject_id":"5c1041a209e7c20001f1f128","study_id":"605e2a800ccfa0c8e820d869","session_id":"606220985ef4ca9f98e3a176"},{"rt":2679.2999999998137,"stimulus":"img/00930.png","slider_start":4,"response":4,"trial_type":"image-slider-response","trial_index":103,"time_elapsed":572016,"internal_node_id":"0.0-3.0-0.100","subject_id":"5c1041a209e7c20001f1f128","study_id":"605e2a800ccfa0c8e820d869","session_id":"606220985ef4ca9f98e3a176"},{"rt":3301.7400000008056,"stimulus":"img/00995.png","slider_start":4,"response":4,"trial_type":"image-slider-response","trial_index":104,"time_elapsed":575325,"internal_node_id":"0.0-3.0-0.101","subject_id":"5c1041a209e7c20001f1f128","study_id":"605e2a800ccfa0c8e820d869","session_id":"606220985ef4ca9f98e3a176"},{"rt":4016.0350000004983,"stimulus":"img/00629.png","slider_start":4,"response":3,"trial_type":"image-slider-response","trial_index":105,"time_elapsed":579348,"internal_node_id":"0.0-3.0-0.102","subject_id":"5c1041a209e7c20001f1f128","study_id":"605e2a800ccfa0c8e820d869","session_id":"606220985ef4ca9f98e3a176"},{"rt":4865.42499999993,"stimulus":"img/00462.png","slider_start":4,"response":4,"trial_type":"image-slider-response","trial_index":106,"time_elapsed":584226,"internal_node_id":"0.0-3.0-0.103","subject_id":"5c1041a209e7c20001f1f128","study_id":"605e2a800ccfa0c8e820d869","session_id":"606220985ef4ca9f98e3a176"},{"rt":3188.204999998561,"stimulus":"img/00896.png","slider_start":4,"response":3,"trial_type":"image-slider-response","trial_index":107,"time_elapsed":587422,"internal_node_id":"0.0-3.0-0.104","subject_id":"5c1041a209e7c20001f1f128","study_id":"605e2a800ccfa0c8e820d869","session_id":"606220985ef4ca9f98e3a176"},{"rt":3641.0849999992643,"stimulus":"img/00100.png","slider_start":4,"response":3,"trial_type":"image-slider-response","trial_index":108,"time_elapsed":591073,"internal_node_id":"0.0-3.0-0.105","subject_id":"5c1041a209e7c20001f1f128","study_id":"605e2a800ccfa0c8e820d869","session_id":"606220985ef4ca9f98e3a176"},{"rt":5091.70499999891,"stimulus":"img/00460.png","slider_start":4,"response":2,"trial_type":"image-slider-response","trial_index":109,"time_elapsed":596171,"internal_node_id":"0.0-3.0-0.106","subject_id":"5c1041a209e7c20001f1f128","study_id":"605e2a800ccfa0c8e820d869","session_id":"606220985ef4ca9f98e3a176"},{"rt":28956.855000000447,"stimulus":"img/00612.png","slider_start":4,"response":4,"trial_type":"image-slider-response","trial_index":110,"time_elapsed":625136,"internal_node_id":"0.0-3.0-0.107","subject_id":"5c1041a209e7c20001f1f128","study_id":"605e2a800ccfa0c8e820d869","session_id":"606220985ef4ca9f98e3a176"},{"rt":3518.244999999297,"stimulus":"img/00023.png","slider_start":4,"response":4,"trial_type":"image-slider-response","trial_index":111,"time_elapsed":628663,"internal_node_id":"0.0-3.0-0.108","subject_id":"5c1041a209e7c20001f1f128","study_id":"605e2a800ccfa0c8e820d869","session_id":"606220985ef4ca9f98e3a176"},{"rt":2624.6250000003492,"stimulus":"img/00564.png","slider_start":4,"response":4,"trial_type":"image-slider-response","trial_index":112,"time_elapsed":631296,"internal_node_id":"0.0-3.0-0.109","subject_id":"5c1041a209e7c20001f1f128","study_id":"605e2a800ccfa0c8e820d869","session_id":"606220985ef4ca9f98e3a176"},{"rt":9897.39999999979,"stimulus":"img/00842.png","slider_start":4,"response":5,"trial_type":"image-slider-response","trial_index":113,"time_elapsed":641205,"internal_node_id":"0.0-3.0-0.110","subject_id":"5c1041a209e7c20001f1f128","study_id":"605e2a800ccfa0c8e820d869","session_id":"606220985ef4ca9f98e3a176"},{"rt":8671.070000000414,"stimulus":"img/00093.png","slider_start":4,"response":3,"trial_type":"image-slider-response","trial_index":114,"time_elapsed":649885,"internal_node_id":"0.0-3.0-0.111","subject_id":"5c1041a209e7c20001f1f128","study_id":"605e2a800ccfa0c8e820d869","session_id":"606220985ef4ca9f98e3a176"},{"rt":3148.595000000554,"stimulus":"img/00817.png","slider_start":4,"response":3,"trial_type":"image-slider-response","trial_index":115,"time_elapsed":653041,"internal_node_id":"0.0-3.0-0.112","subject_id":"5c1041a209e7c20001f1f128","study_id":"605e2a800ccfa0c8e820d869","session_id":"606220985ef4ca9f98e3a176"},{"rt":2821.8600000001024,"stimulus":"img/00815.png","slider_start":4,"response":4,"trial_type":"image-slider-response","trial_index":116,"time_elapsed":655870,"internal_node_id":"0.0-3.0-0.113","subject_id":"5c1041a209e7c20001f1f128","study_id":"605e2a800ccfa0c8e820d869","session_id":"606220985ef4ca9f98e3a176"},{"rt":3240.5100000014063,"stimulus":"img/00793.png","slider_start":4,"response":4,"trial_type":"image-slider-response","trial_index":117,"time_elapsed":659118,"internal_node_id":"0.0-3.0-0.114","subject_id":"5c1041a209e7c20001f1f128","study_id":"605e2a800ccfa0c8e820d869","session_id":"606220985ef4ca9f98e3a176"},{"rt":3055.4800000009127,"stimulus":"img/00747.png","slider_start":4,"response":5,"trial_type":"image-slider-response","trial_index":118,"time_elapsed":662181,"internal_node_id":"0.0-3.0-0.115","subject_id":"5c1041a209e7c20001f1f128","study_id":"605e2a800ccfa0c8e820d869","session_id":"606220985ef4ca9f98e3a176"},{"rt":11793.219999999623,"stimulus":"img/00454.png","slider_start":4,"response":3,"trial_type":"image-slider-response","trial_index":119,"time_elapsed":673983,"internal_node_id":"0.0-3.0-0.116","subject_id":"5c1041a209e7c20001f1f128","study_id":"605e2a800ccfa0c8e820d869","session_id":"606220985ef4ca9f98e3a176"},{"rt":2487.3850000003586,"stimulus":"img/00042.png","slider_start":4,"response":4,"trial_type":"image-slider-response","trial_index":120,"time_elapsed":676478,"internal_node_id":"0.0-3.0-0.117","subject_id":"5c1041a209e7c20001f1f128","study_id":"605e2a800ccfa0c8e820d869","session_id":"606220985ef4ca9f98e3a176"},{"rt":2531.544999999809,"stimulus":"img/00507.png","slider_start":4,"response":3,"trial_type":"image-slider-response","trial_index":121,"time_elapsed":679016,"internal_node_id":"0.0-3.0-0.118","subject_id":"5c1041a209e7c20001f1f128","study_id":"605e2a800ccfa0c8e820d869","session_id":"606220985ef4ca9f98e3a176"},{"rt":2953.1449999994365,"stimulus":"img/00563.png","slider_start":4,"response":2,"trial_type":"image-slider-response","trial_index":122,"time_elapsed":681976,"internal_node_id":"0.0-3.0-0.119","subject_id":"5c1041a209e7c20001f1f128","study_id":"605e2a800ccfa0c8e820d869","session_id":"606220985ef4ca9f98e3a176"},{"rt":5432.130000001052,"stimulus":"img/00508.png","slider_start":4,"response":5,"trial_type":"image-slider-response","trial_index":123,"time_elapsed":687415,"internal_node_id":"0.0-3.0-0.120","subject_id":"5c1041a209e7c20001f1f128","study_id":"605e2a800ccfa0c8e820d869","session_id":"606220985ef4ca9f98e3a176"},{"rt":5766.985000000219,"stimulus":"img/00569.png","slider_start":4,"response":3,"trial_type":"image-slider-response","trial_index":124,"time_elapsed":693191,"internal_node_id":"0.0-3.0-0.121","subject_id":"5c1041a209e7c20001f1f128","study_id":"605e2a800ccfa0c8e820d869","session_id":"606220985ef4ca9f98e3a176"},{"rt":12978.139999999315,"stimulus":"img/00854.png","slider_start":4,"response":4,"trial_type":"image-slider-response","trial_index":125,"time_elapsed":706180,"internal_node_id":"0.0-3.0-0.122","subject_id":"5c1041a209e7c20001f1f128","study_id":"605e2a800ccfa0c8e820d869","session_id":"606220985ef4ca9f98e3a176"},{"rt":7610.070000000647,"stimulus":"img/00744.png","slider_start":4,"response":3,"trial_type":"image-slider-response","trial_index":126,"time_elapsed":713797,"internal_node_id":"0.0-3.0-0.123","subject_id":"5c1041a209e7c20001f1f128","study_id":"605e2a800ccfa0c8e820d869","session_id":"606220985ef4ca9f98e3a176"},{"rt":9332.529999999679,"stimulus":"img/00811.png","slider_start":4,"response":3,"trial_type":"image-slider-response","trial_index":127,"time_elapsed":723140,"internal_node_id":"0.0-3.0-0.124","subject_id":"5c1041a209e7c20001f1f128","study_id":"605e2a800ccfa0c8e820d869","session_id":"606220985ef4ca9f98e3a176"},{"rt":5492.039999999222,"stimulus":"img/00129.png","slider_start":4,"response":6,"trial_type":"image-slider-response","trial_index":128,"time_elapsed":728643,"internal_node_id":"0.0-3.0-0.125","subject_id":"5c1041a209e7c20001f1f128","study_id":"605e2a800ccfa0c8e820d869","session_id":"606220985ef4ca9f98e3a176"},{"rt":4748.880000001052,"stimulus":"img/00991.png","slider_start":4,"response":3,"trial_type":"image-slider-response","trial_index":129,"time_elapsed":733401,"internal_node_id":"0.0-3.0-0.126","subject_id":"5c1041a209e7c20001f1f128","study_id":"605e2a800ccfa0c8e820d869","session_id":"606220985ef4ca9f98e3a176"},{"rt":4434.724999999162,"stimulus":"img/00764.png","slider_start":4,"response":1,"trial_type":"image-slider-response","trial_index":130,"time_elapsed":737845,"internal_node_id":"0.0-3.0-0.127","subject_id":"5c1041a209e7c20001f1f128","study_id":"605e2a800ccfa0c8e820d869","session_id":"606220985ef4ca9f98e3a176"},{"rt":9132.195000000182,"stimulus":"img/00545.png","slider_start":4,"response":5,"trial_type":"image-slider-response","trial_index":131,"time_elapsed":746984,"internal_node_id":"0.0-3.0-0.128","subject_id":"5c1041a209e7c20001f1f128","study_id":"605e2a800ccfa0c8e820d869","session_id":"606220985ef4ca9f98e3a176"},{"rt":4498.624999998254,"stimulus":"img/00115.png","slider_start":4,"response":3,"trial_type":"image-slider-response","trial_index":132,"time_elapsed":751492,"internal_node_id":"0.0-3.0-0.129","subject_id":"5c1041a209e7c20001f1f128","study_id":"605e2a800ccfa0c8e820d869","session_id":"606220985ef4ca9f98e3a176"},{"rt":2797.1349999989616,"stimulus":"img/00114.png","slider_start":4,"response":4,"trial_type":"image-slider-response","trial_index":133,"time_elapsed":754297,"internal_node_id":"0.0-3.0-0.130","subject_id":"5c1041a209e7c20001f1f128","study_id":"605e2a800ccfa0c8e820d869","session_id":"606220985ef4ca9f98e3a176"},{"rt":2847.0149999993155,"stimulus":"img/00653.png","slider_start":4,"response":4,"trial_type":"image-slider-response","trial_index":134,"time_elapsed":757154,"internal_node_id":"0.0-3.0-0.131","subject_id":"5c1041a209e7c20001f1f128","study_id":"605e2a800ccfa0c8e820d869","session_id":"606220985ef4ca9f98e3a176"},{"rt":3445.0550000001676,"stimulus":"img/00466.png","slider_start":4,"response":4,"trial_type":"image-slider-response","trial_index":135,"time_elapsed":760606,"internal_node_id":"0.0-3.0-0.132","subject_id":"5c1041a209e7c20001f1f128","study_id":"605e2a800ccfa0c8e820d869","session_id":"606220985ef4ca9f98e3a176"},{"rt":3204.7099999999627,"stimulus":"img/00542.png","slider_start":4,"response":2,"trial_type":"image-slider-response","trial_index":136,"time_elapsed":763820,"internal_node_id":"0.0-3.0-0.133","subject_id":"5c1041a209e7c20001f1f128","study_id":"605e2a800ccfa0c8e820d869","session_id":"606220985ef4ca9f98e3a176"},{"rt":4230.334999998449,"stimulus":"img/00761.png","slider_start":4,"response":5,"trial_type":"image-slider-response","trial_index":137,"time_elapsed":768061,"internal_node_id":"0.0-3.0-0.134","subject_id":"5c1041a209e7c20001f1f128","study_id":"605e2a800ccfa0c8e820d869","session_id":"606220985ef4ca9f98e3a176"},{"rt":3097.249999998836,"stimulus":"img/00587.png","slider_start":4,"response":6,"trial_type":"image-slider-response","trial_index":138,"time_elapsed":771169,"internal_node_id":"0.0-3.0-0.135","subject_id":"5c1041a209e7c20001f1f128","study_id":"605e2a800ccfa0c8e820d869","session_id":"606220985ef4ca9f98e3a176"},{"rt":4417.625,"stimulus":"img/00105.png","slider_start":4,"response":4,"trial_type":"image-slider-response","trial_index":139,"time_elapsed":775594,"internal_node_id":"0.0-3.0-0.136","subject_id":"5c1041a209e7c20001f1f128","study_id":"605e2a800ccfa0c8e820d869","session_id":"606220985ef4ca9f98e3a176"},{"rt":4273.979999999865,"stimulus":"img/00016.png","slider_start":4,"response":2,"trial_type":"image-slider-response","trial_index":140,"time_elapsed":779875,"internal_node_id":"0.0-3.0-0.137","subject_id":"5c1041a209e7c20001f1f128","study_id":"605e2a800ccfa0c8e820d869","session_id":"606220985ef4ca9f98e3a176"},{"rt":2925.3599999992875,"stimulus":"img/00988.png","slider_start":4,"response":2,"trial_type":"image-slider-response","trial_index":141,"time_elapsed":782808,"internal_node_id":"0.0-3.0-0.138","subject_id":"5c1041a209e7c20001f1f128","study_id":"605e2a800ccfa0c8e820d869","session_id":"606220985ef4ca9f98e3a176"},{"rt":3408.400000000256,"stimulus":"img/00693.png","slider_start":4,"response":3,"trial_type":"image-slider-response","trial_index":142,"time_elapsed":786225,"internal_node_id":"0.0-3.0-0.139","subject_id":"5c1041a209e7c20001f1f128","study_id":"605e2a800ccfa0c8e820d869","session_id":"606220985ef4ca9f98e3a176"},{"rt":2876.725000000093,"stimulus":"img/00850.png","slider_start":4,"response":3,"trial_type":"image-slider-response","trial_index":143,"time_elapsed":789112,"internal_node_id":"0.0-3.0-0.140","subject_id":"5c1041a209e7c20001f1f128","study_id":"605e2a800ccfa0c8e820d869","session_id":"606220985ef4ca9f98e3a176"},{"rt":13671.989999998827,"stimulus":"img/00439.png","slider_start":4,"response":3,"trial_type":"image-slider-response","trial_index":144,"time_elapsed":802792,"internal_node_id":"0.0-3.0-0.141","subject_id":"5c1041a209e7c20001f1f128","study_id":"605e2a800ccfa0c8e820d869","session_id":"606220985ef4ca9f98e3a176"},{"rt":9324.485000001034,"stimulus":"img/00853.png","slider_start":4,"response":4,"trial_type":"image-slider-response","trial_index":145,"time_elapsed":812125,"internal_node_id":"0.0-3.0-0.142","subject_id":"5c1041a209e7c20001f1f128","study_id":"605e2a800ccfa0c8e820d869","session_id":"606220985ef4ca9f98e3a176"},{"rt":6840.150000000023,"stimulus":"img/00405.png","slider_start":4,"response":6,"trial_type":"image-slider-response","trial_index":146,"time_elapsed":818976,"internal_node_id":"0.0-3.0-0.143","subject_id":"5c1041a209e7c20001f1f128","study_id":"605e2a800ccfa0c8e820d869","session_id":"606220985ef4ca9f98e3a176"},{"rt":19549.900000000023,"stimulus":"img/00799.png","slider_start":4,"response":3,"trial_type":"image-slider-response","trial_index":147,"time_elapsed":838532,"internal_node_id":"0.0-3.0-0.144","subject_id":"5c1041a209e7c20001f1f128","study_id":"605e2a800ccfa0c8e820d869","session_id":"606220985ef4ca9f98e3a176"},{"rt":4241.275000000256,"stimulus":"img/00432.png","slider_start":4,"response":6,"trial_type":"image-slider-response","trial_index":148,"time_elapsed":842782,"internal_node_id":"0.0-3.0-0.145","subject_id":"5c1041a209e7c20001f1f128","study_id":"605e2a800ccfa0c8e820d869","session_id":"606220985ef4ca9f98e3a176"},{"rt":3003.4300000006333,"stimulus":"img/00522.png","slider_start":4,"response":5,"trial_type":"image-slider-response","trial_index":149,"time_elapsed":845796,"internal_node_id":"0.0-3.0-0.146","subject_id":"5c1041a209e7c20001f1f128","study_id":"605e2a800ccfa0c8e820d869","session_id":"606220985ef4ca9f98e3a176"},{"rt":3676.4100000000326,"stimulus":"img/00406.png","slider_start":4,"response":3,"trial_type":"image-slider-response","trial_index":150,"time_elapsed":849481,"internal_node_id":"0.0-3.0-0.147","subject_id":"5c1041a209e7c20001f1f128","study_id":"605e2a800ccfa0c8e820d869","session_id":"606220985ef4ca9f98e3a176"},{"rt":2784.154999999446,"stimulus":"img/00581.png","slider_start":4,"response":3,"trial_type":"image-slider-response","trial_index":151,"time_elapsed":852274,"internal_node_id":"0.0-3.0-0.148","subject_id":"5c1041a209e7c20001f1f128","study_id":"605e2a800ccfa0c8e820d869","session_id":"606220985ef4ca9f98e3a176"},{"rt":7424.469999999972,"stimulus":"img/00623.png","slider_start":4,"response":4,"trial_type":"image-slider-response","trial_index":152,"time_elapsed":859708,"internal_node_id":"0.0-3.0-0.149","subject_id":"5c1041a209e7c20001f1f128","study_id":"605e2a800ccfa0c8e820d869","session_id":"606220985ef4ca9f98e3a176"},{"rt":4351.544999999576,"stimulus":"img/00011.png","slider_start":4,"response":3,"trial_type":"image-slider-response","trial_index":153,"time_elapsed":864068,"internal_node_id":"0.0-3.0-0.150","subject_id":"5c1041a209e7c20001f1f128","study_id":"605e2a800ccfa0c8e820d869","session_id":"606220985ef4ca9f98e3a176"},{"rt":3677.7700000002515,"stimulus":"img/00059.png","slider_start":4,"response":5,"trial_type":"image-slider-response","trial_index":154,"time_elapsed":867752,"internal_node_id":"0.0-3.0-0.151","subject_id":"5c1041a209e7c20001f1f128","study_id":"605e2a800ccfa0c8e820d869","session_id":"606220985ef4ca9f98e3a176"},{"rt":3514.8349999998463,"stimulus":"img/00956.png","slider_start":4,"response":3,"trial_type":"image-slider-response","trial_index":155,"time_elapsed":871273,"internal_node_id":"0.0-3.0-0.152","subject_id":"5c1041a209e7c20001f1f128","study_id":"605e2a800ccfa0c8e820d869","session_id":"606220985ef4ca9f98e3a176"},{"rt":2557.2099999990314,"stimulus":"img/00511.png","slider_start":4,"response":4,"trial_type":"image-slider-response","trial_index":156,"time_elapsed":873838,"internal_node_id":"0.0-3.0-0.153","subject_id":"5c1041a209e7c20001f1f128","study_id":"605e2a800ccfa0c8e820d869","session_id":"606220985ef4ca9f98e3a176"},{"rt":4369.324999999604,"stimulus":"img/00440.png","slider_start":4,"response":2,"trial_type":"image-slider-response","trial_index":157,"time_elapsed":878216,"internal_node_id":"0.0-3.0-0.154","subject_id":"5c1041a209e7c20001f1f128","study_id":"605e2a800ccfa0c8e820d869","session_id":"606220985ef4ca9f98e3a176"},{"rt":2885.4400000000605,"stimulus":"img/00012.png","slider_start":4,"response":3,"trial_type":"image-slider-response","trial_index":158,"time_elapsed":881110,"internal_node_id":"0.0-3.0-0.155","subject_id":"5c1041a209e7c20001f1f128","study_id":"605e2a800ccfa0c8e820d869","session_id":"606220985ef4ca9f98e3a176"},{"rt":2886.610000001383,"stimulus":"img/00052.png","slider_start":4,"response":3,"trial_type":"image-slider-response","trial_index":159,"time_elapsed":884009,"internal_node_id":"0.0-3.0-0.156","subject_id":"5c1041a209e7c20001f1f128","study_id":"605e2a800ccfa0c8e820d869","session_id":"606220985ef4ca9f98e3a176"},{"rt":3696.5750000016997,"stimulus":"img/00951.png","slider_start":4,"response":2,"trial_type":"image-slider-response","trial_index":160,"time_elapsed":887711,"internal_node_id":"0.0-3.0-0.157","subject_id":"5c1041a209e7c20001f1f128","study_id":"605e2a800ccfa0c8e820d869","session_id":"606220985ef4ca9f98e3a176"},{"rt":2514.2550000000047,"stimulus":"img/00860.png","slider_start":4,"response":4,"trial_type":"image-slider-response","trial_index":161,"time_elapsed":890232,"internal_node_id":"0.0-3.0-0.158","subject_id":"5c1041a209e7c20001f1f128","study_id":"605e2a800ccfa0c8e820d869","session_id":"606220985ef4ca9f98e3a176"},{"rt":2330.0149999995483,"stimulus":"img/00722.png","slider_start":4,"response":4,"trial_type":"image-slider-response","trial_index":162,"time_elapsed":892569,"internal_node_id":"0.0-3.0-0.159","subject_id":"5c1041a209e7c20001f1f128","study_id":"605e2a800ccfa0c8e820d869","session_id":"606220985ef4ca9f98e3a176"},{"rt":10575.075000000652,"stimulus":"img/00048.png","slider_start":4,"response":2,"trial_type":"image-slider-response","trial_index":163,"time_elapsed":903151,"internal_node_id":"0.0-3.0-0.160","subject_id":"5c1041a209e7c20001f1f128","study_id":"605e2a800ccfa0c8e820d869","session_id":"606220985ef4ca9f98e3a176"},{"rt":2793.9999999998836,"stimulus":"img/00986.png","slider_start":4,"response":3,"trial_type":"image-slider-response","trial_index":164,"time_elapsed":905957,"internal_node_id":"0.0-3.0-0.161","subject_id":"5c1041a209e7c20001f1f128","study_id":"605e2a800ccfa0c8e820d869","session_id":"606220985ef4ca9f98e3a176"},{"rt":14299.580000000773,"stimulus":"img/00603.png","slider_start":4,"response":3,"trial_type":"image-slider-response","trial_index":165,"time_elapsed":920263,"internal_node_id":"0.0-3.0-0.162","subject_id":"5c1041a209e7c20001f1f128","study_id":"605e2a800ccfa0c8e820d869","session_id":"606220985ef4ca9f98e3a176"},{"rt":3107.3799999994226,"stimulus":"img/00686.png","slider_start":4,"response":4,"trial_type":"image-slider-response","trial_index":166,"time_elapsed":923379,"internal_node_id":"0.0-3.0-0.163","subject_id":"5c1041a209e7c20001f1f128","study_id":"605e2a800ccfa0c8e820d869","session_id":"606220985ef4ca9f98e3a176"},{"rt":3089.850000000326,"stimulus":"img/00130.png","slider_start":4,"response":4,"trial_type":"image-slider-response","trial_index":167,"time_elapsed":926479,"internal_node_id":"0.0-3.0-0.164","subject_id":"5c1041a209e7c20001f1f128","study_id":"605e2a800ccfa0c8e820d869","session_id":"606220985ef4ca9f98e3a176"},{"rt":6807.695000001346,"stimulus":"img/00789.png","slider_start":4,"response":3,"trial_type":"image-slider-response","trial_index":168,"time_elapsed":933296,"internal_node_id":"0.0-3.0-0.165","subject_id":"5c1041a209e7c20001f1f128","study_id":"605e2a800ccfa0c8e820d869","session_id":"606220985ef4ca9f98e3a176"},{"rt":3408.7799999996787,"stimulus":"img/00521.png","slider_start":4,"response":2,"trial_type":"image-slider-response","trial_index":169,"time_elapsed":936714,"internal_node_id":"0.0-3.0-0.166","subject_id":"5c1041a209e7c20001f1f128","study_id":"605e2a800ccfa0c8e820d869","session_id":"606220985ef4ca9f98e3a176"},{"rt":5171.519999999902,"stimulus":"img/00809.png","slider_start":4,"response":3,"trial_type":"image-slider-response","trial_index":170,"time_elapsed":941895,"internal_node_id":"0.0-3.0-0.167","subject_id":"5c1041a209e7c20001f1f128","study_id":"605e2a800ccfa0c8e820d869","session_id":"606220985ef4ca9f98e3a176"},{"rt":2736.585000000545,"stimulus":"img/00822.png","slider_start":4,"response":4,"trial_type":"image-slider-response","trial_index":171,"time_elapsed":944640,"internal_node_id":"0.0-3.0-0.168","subject_id":"5c1041a209e7c20001f1f128","study_id":"605e2a800ccfa0c8e820d869","session_id":"606220985ef4ca9f98e3a176"},{"rt":3564.1699999996927,"stimulus":"img/00018.png","slider_start":4,"response":4,"trial_type":"image-slider-response","trial_index":172,"time_elapsed":948213,"internal_node_id":"0.0-3.0-0.169","subject_id":"5c1041a209e7c20001f1f128","study_id":"605e2a800ccfa0c8e820d869","session_id":"606220985ef4ca9f98e3a176"},{"rt":4857.530000001076,"stimulus":"img/00825.png","slider_start":4,"response":5,"trial_type":"image-slider-response","trial_index":173,"time_elapsed":953079,"internal_node_id":"0.0-3.0-0.170","subject_id":"5c1041a209e7c20001f1f128","study_id":"605e2a800ccfa0c8e820d869","session_id":"606220985ef4ca9f98e3a176"},{"rt":3969.9450000007637,"stimulus":"img/00594.png","slider_start":4,"response":5,"trial_type":"image-slider-response","trial_index":174,"time_elapsed":957057,"internal_node_id":"0.0-3.0-0.171","subject_id":"5c1041a209e7c20001f1f128","study_id":"605e2a800ccfa0c8e820d869","session_id":"606220985ef4ca9f98e3a176"}]