[{"rt":3099,"stimulus":"Welcome to the experiment. Press any key to begin.","response":" ","trial_type":"html-keyboard-response","trial_index":0,"time_elapsed":3099,"internal_node_id":"0.0-0.0","subject_id":"5f660626a9151c19b17ba3c8","study_id":"605e2a800ccfa0c8e820d869","session_id":"60623667f642b6d5cfd2ad10"},{"rt":2462,"stimulus":"\n        <p>In this experiment, a face will appear on-screen.</p><p> <strong>Rate the face on a 1 - 7 scale based on how attractive he / she is.</strong> </p>\n        </div>\n        <p>Press any key to begin.</p>\n      ","response":" ","trial_type":"html-keyboard-response","trial_index":1,"time_elapsed":5563,"internal_node_id":"0.0-1.0","subject_id":"5f660626a9151c19b17ba3c8","study_id":"605e2a800ccfa0c8e820d869","session_id":"60623667f642b6d5cfd2ad10"},{"success":true,"timeout":false,"failed_images":[],"failed_audio":[],"failed_video":[],"trial_type":"preload","trial_index":2,"time_elapsed":57356,"internal_node_id":"0.0-2.0","subject_id":"5f660626a9151c19b17ba3c8","study_id":"605e2a800ccfa0c8e820d869","session_id":"60623667f642b6d5cfd2ad10"},{"rt":7014,"stimulus":"img/00764.png","slider_start":4,"response":3,"trial_type":"image-slider-response","trial_index":3,"time_elapsed":64425,"internal_node_id":"0.0-3.0-0.0","subject_id":"5f660626a9151c19b17ba3c8","study_id":"605e2a800ccfa0c8e820d869","session_id":"60623667f642b6d5cfd2ad10"},{"rt":15424,"stimulus":"img/00554.png","slider_start":4,"response":5,"trial_type":"image-slider-response","trial_index":4,"time_elapsed":79857,"internal_node_id":"0.0-3.0-0.1","subject_id":"5f660626a9151c19b17ba3c8","study_id":"605e2a800ccfa0c8e820d869","session_id":"60623667f642b6d5cfd2ad10"},{"rt":3251,"stimulus":"img/00018.png","slider_start":4,"response":5,"trial_type":"image-slider-response","trial_index":5,"time_elapsed":83116,"internal_node_id":"0.0-3.0-0.2","subject_id":"5f660626a9151c19b17ba3c8","study_id":"605e2a800ccfa0c8e820d869","session_id":"60623667f642b6d5cfd2ad10"},{"rt":1703,"stimulus":"img/00594.png","slider_start":4,"response":4,"trial_type":"image-slider-response","trial_index":6,"time_elapsed":84827,"internal_node_id":"0.0-3.0-0.3","subject_id":"5f660626a9151c19b17ba3c8","study_id":"605e2a800ccfa0c8e820d869","session_id":"60623667f642b6d5cfd2ad10"},{"rt":1838,"stimulus":"img/00989.png","slider_start":4,"response":4,"trial_type":"image-slider-response","trial_index":7,"time_elapsed":86674,"internal_node_id":"0.0-3.0-0.4","subject_id":"5f660626a9151c19b17ba3c8","study_id":"605e2a800ccfa0c8e820d869","session_id":"60623667f642b6d5cfd2ad10"},{"rt":4685,"stimulus":"img/00618.png","slider_start":4,"response":5,"trial_type":"image-slider-response","trial_index":8,"time_elapsed":91367,"internal_node_id":"0.0-3.0-0.5","subject_id":"5f660626a9151c19b17ba3c8","study_id":"605e2a800ccfa0c8e820d869","session_id":"60623667f642b6d5cfd2ad10"},{"rt":3400,"stimulus":"img/00756.png","slider_start":4,"response":6,"trial_type":"image-slider-response","trial_index":9,"time_elapsed":94774,"internal_node_id":"0.0-3.0-0.6","subject_id":"5f660626a9151c19b17ba3c8","study_id":"605e2a800ccfa0c8e820d869","session_id":"60623667f642b6d5cfd2ad10"},{"rt":3086,"stimulus":"img/00561.png","slider_start":4,"response":3,"trial_type":"image-slider-response","trial_index":10,"time_elapsed":97870,"internal_node_id":"0.0-3.0-0.7","subject_id":"5f660626a9151c19b17ba3c8","study_id":"605e2a800ccfa0c8e820d869","session_id":"60623667f642b6d5cfd2ad10"},{"rt":7614,"stimulus":"img/00478.png","slider_start":4,"response":4,"trial_type":"image-slider-response","trial_index":11,"time_elapsed":105492,"internal_node_id":"0.0-3.0-0.8","subject_id":"5f660626a9151c19b17ba3c8","study_id":"605e2a800ccfa0c8e820d869","session_id":"60623667f642b6d5cfd2ad10"},{"rt":3999,"stimulus":"img/00644.png","slider_start":4,"response":6,"trial_type":"image-slider-response","trial_index":12,"time_elapsed":109498,"internal_node_id":"0.0-3.0-0.9","subject_id":"5f660626a9151c19b17ba3c8","study_id":"605e2a800ccfa0c8e820d869","session_id":"60623667f642b6d5cfd2ad10"},{"rt":3958,"stimulus":"img/00747.png","slider_start":4,"response":5,"trial_type":"image-slider-response","trial_index":13,"time_elapsed":113465,"internal_node_id":"0.0-3.0-0.10","subject_id":"5f660626a9151c19b17ba3c8","study_id":"605e2a800ccfa0c8e820d869","session_id":"60623667f642b6d5cfd2ad10"},{"rt":6986,"stimulus":"img/00854.png","slider_start":4,"response":4,"trial_type":"image-slider-response","trial_index":14,"time_elapsed":120459,"internal_node_id":"0.0-3.0-0.11","subject_id":"5f660626a9151c19b17ba3c8","study_id":"605e2a800ccfa0c8e820d869","session_id":"60623667f642b6d5cfd2ad10"},{"rt":3522,"stimulus":"img/00841.png","slider_start":4,"response":5,"trial_type":"image-slider-response","trial_index":15,"time_elapsed":123989,"internal_node_id":"0.0-3.0-0.12","subject_id":"5f660626a9151c19b17ba3c8","study_id":"605e2a800ccfa0c8e820d869","session_id":"60623667f642b6d5cfd2ad10"},{"rt":5734,"stimulus":"img/00982.png","slider_start":4,"response":3,"trial_type":"image-slider-response","trial_index":16,"time_elapsed":129730,"internal_node_id":"0.0-3.0-0.13","subject_id":"5f660626a9151c19b17ba3c8","study_id":"605e2a800ccfa0c8e820d869","session_id":"60623667f642b6d5cfd2ad10"},{"rt":8088,"stimulus":"img/00686.png","slider_start":4,"response":6,"trial_type":"image-slider-response","trial_index":17,"time_elapsed":137826,"internal_node_id":"0.0-3.0-0.14","subject_id":"5f660626a9151c19b17ba3c8","study_id":"605e2a800ccfa0c8e820d869","session_id":"60623667f642b6d5cfd2ad10"},{"rt":1637,"stimulus":"img/00949.png","slider_start":4,"response":4,"trial_type":"image-slider-response","trial_index":18,"time_elapsed":139471,"internal_node_id":"0.0-3.0-0.15","subject_id":"5f660626a9151c19b17ba3c8","study_id":"605e2a800ccfa0c8e820d869","session_id":"60623667f642b6d5cfd2ad10"},{"rt":3777,"stimulus":"img/00817.png","slider_start":4,"response":2,"trial_type":"image-slider-response","trial_index":19,"time_elapsed":143256,"internal_node_id":"0.0-3.0-0.16","subject_id":"5f660626a9151c19b17ba3c8","study_id":"605e2a800ccfa0c8e820d869","session_id":"60623667f642b6d5cfd2ad10"},{"rt":5651,"stimulus":"img/00130.png","slider_start":4,"response":5,"trial_type":"image-slider-response","trial_index":20,"time_elapsed":148915,"internal_node_id":"0.0-3.0-0.17","subject_id":"5f660626a9151c19b17ba3c8","study_id":"605e2a800ccfa0c8e820d869","session_id":"60623667f642b6d5cfd2ad10"},{"rt":3493,"stimulus":"img/00809.png","slider_start":4,"response":4,"trial_type":"image-slider-response","trial_index":21,"time_elapsed":152416,"internal_node_id":"0.0-3.0-0.18","subject_id":"5f660626a9151c19b17ba3c8","study_id":"605e2a800ccfa0c8e820d869","session_id":"60623667f642b6d5cfd2ad10"},{"rt":1480,"stimulus":"img/00956.png","slider_start":4,"response":4,"trial_type":"image-slider-response","trial_index":22,"time_elapsed":153904,"internal_node_id":"0.0-3.0-0.19","subject_id":"5f660626a9151c19b17ba3c8","study_id":"605e2a800ccfa0c8e820d869","session_id":"60623667f642b6d5cfd2ad10"},{"rt":2751,"stimulus":"img/00424.png","slider_start":4,"response":5,"trial_type":"image-slider-response","trial_index":23,"time_elapsed":156661,"internal_node_id":"0.0-3.0-0.20","subject_id":"5f660626a9151c19b17ba3c8","study_id":"605e2a800ccfa0c8e820d869","session_id":"60623667f642b6d5cfd2ad10"},{"rt":2488,"stimulus":"img/00951.png","slider_start":4,"response":3,"trial_type":"image-slider-response","trial_index":24,"time_elapsed":159157,"internal_node_id":"0.0-3.0-0.21","subject_id":"5f660626a9151c19b17ba3c8","study_id":"605e2a800ccfa0c8e820d869","session_id":"60623667f642b6d5cfd2ad10"},{"rt":4424,"stimulus":"img/00481.png","slider_start":4,"response":2,"trial_type":"image-slider-response","trial_index":25,"time_elapsed":163588,"internal_node_id":"0.0-3.0-0.22","subject_id":"5f660626a9151c19b17ba3c8","study_id":"605e2a800ccfa0c8e820d869","session_id":"60623667f642b6d5cfd2ad10"},{"rt":3023,"stimulus":"img/00998.png","slider_start":4,"response":4,"trial_type":"image-slider-response","trial_index":26,"time_elapsed":166618,"internal_node_id":"0.0-3.0-0.23","subject_id":"5f660626a9151c19b17ba3c8","study_id":"605e2a800ccfa0c8e820d869","session_id":"60623667f642b6d5cfd2ad10"},{"rt":1562,"stimulus":"img/00708.png","slider_start":4,"response":4,"trial_type":"image-slider-response","trial_index":27,"time_elapsed":168187,"internal_node_id":"0.0-3.0-0.24","subject_id":"5f660626a9151c19b17ba3c8","study_id":"605e2a800ccfa0c8e820d869","session_id":"60623667f642b6d5cfd2ad10"},{"rt":4458,"stimulus":"img/00759.png","slider_start":4,"response":4,"trial_type":"image-slider-response","trial_index":28,"time_elapsed":172653,"internal_node_id":"0.0-3.0-0.25","subject_id":"5f660626a9151c19b17ba3c8","study_id":"605e2a800ccfa0c8e820d869","session_id":"60623667f642b6d5cfd2ad10"},{"rt":9025,"stimulus":"img/00542.png","slider_start":4,"response":4,"trial_type":"image-slider-response","trial_index":29,"time_elapsed":181685,"internal_node_id":"0.0-3.0-0.26","subject_id":"5f660626a9151c19b17ba3c8","study_id":"605e2a800ccfa0c8e820d869","session_id":"60623667f642b6d5cfd2ad10"},{"rt":10362,"stimulus":"img/00898.png","slider_start":4,"response":2,"trial_type":"image-slider-response","trial_index":30,"time_elapsed":192053,"internal_node_id":"0.0-3.0-0.27","subject_id":"5f660626a9151c19b17ba3c8","study_id":"605e2a800ccfa0c8e820d869","session_id":"60623667f642b6d5cfd2ad10"},{"rt":2457,"stimulus":"img/00105.png","slider_start":4,"response":5,"trial_type":"image-slider-response","trial_index":31,"time_elapsed":194517,"internal_node_id":"0.0-3.0-0.28","subject_id":"5f660626a9151c19b17ba3c8","study_id":"605e2a800ccfa0c8e820d869","session_id":"60623667f642b6d5cfd2ad10"},{"rt":4557,"stimulus":"img/00879.png","slider_start":4,"response":5,"trial_type":"image-slider-response","trial_index":32,"time_elapsed":199084,"internal_node_id":"0.0-3.0-0.29","subject_id":"5f660626a9151c19b17ba3c8","study_id":"605e2a800ccfa0c8e820d869","session_id":"60623667f642b6d5cfd2ad10"},{"rt":3121,"stimulus":"img/00815.png","slider_start":4,"response":5,"trial_type":"image-slider-response","trial_index":33,"time_elapsed":202212,"internal_node_id":"0.0-3.0-0.30","subject_id":"5f660626a9151c19b17ba3c8","study_id":"605e2a800ccfa0c8e820d869","session_id":"60623667f642b6d5cfd2ad10"},{"rt":2264,"stimulus":"img/00789.png","slider_start":4,"response":4,"trial_type":"image-slider-response","trial_index":34,"time_elapsed":204483,"internal_node_id":"0.0-3.0-0.31","subject_id":"5f660626a9151c19b17ba3c8","study_id":"605e2a800ccfa0c8e820d869","session_id":"60623667f642b6d5cfd2ad10"},{"rt":3678,"stimulus":"img/00113.png","slider_start":4,"response":4,"trial_type":"image-slider-response","trial_index":35,"time_elapsed":208169,"internal_node_id":"0.0-3.0-0.32","subject_id":"5f660626a9151c19b17ba3c8","study_id":"605e2a800ccfa0c8e820d869","session_id":"60623667f642b6d5cfd2ad10"},{"rt":6897,"stimulus":"img/00801.png","slider_start":4,"response":4,"trial_type":"image-slider-response","trial_index":36,"time_elapsed":215073,"internal_node_id":"0.0-3.0-0.33","subject_id":"5f660626a9151c19b17ba3c8","study_id":"605e2a800ccfa0c8e820d869","session_id":"60623667f642b6d5cfd2ad10"},{"rt":3148,"stimulus":"img/00428.png","slider_start":4,"response":5,"trial_type":"image-slider-response","trial_index":37,"time_elapsed":218229,"internal_node_id":"0.0-3.0-0.34","subject_id":"5f660626a9151c19b17ba3c8","study_id":"605e2a800ccfa0c8e820d869","session_id":"60623667f642b6d5cfd2ad10"},{"rt":4315,"stimulus":"img/00460.png","slider_start":4,"response":3,"trial_type":"image-slider-response","trial_index":38,"time_elapsed":222551,"internal_node_id":"0.0-3.0-0.35","subject_id":"5f660626a9151c19b17ba3c8","study_id":"605e2a800ccfa0c8e820d869","session_id":"60623667f642b6d5cfd2ad10"},{"rt":3388,"stimulus":"img/00059.png","slider_start":4,"response":3,"trial_type":"image-slider-response","trial_index":39,"time_elapsed":225947,"internal_node_id":"0.0-3.0-0.36","subject_id":"5f660626a9151c19b17ba3c8","study_id":"605e2a800ccfa0c8e820d869","session_id":"60623667f642b6d5cfd2ad10"},{"rt":3684,"stimulus":"img/00041.png","slider_start":4,"response":6,"trial_type":"image-slider-response","trial_index":40,"time_elapsed":229640,"internal_node_id":"0.0-3.0-0.37","subject_id":"5f660626a9151c19b17ba3c8","study_id":"605e2a800ccfa0c8e820d869","session_id":"60623667f642b6d5cfd2ad10"},{"rt":3573,"stimulus":"img/00404.png","slider_start":4,"response":3,"trial_type":"image-slider-response","trial_index":41,"time_elapsed":233220,"internal_node_id":"0.0-3.0-0.38","subject_id":"5f660626a9151c19b17ba3c8","study_id":"605e2a800ccfa0c8e820d869","session_id":"60623667f642b6d5cfd2ad10"},{"rt":2554,"stimulus":"img/00631.png","slider_start":4,"response":4,"trial_type":"image-slider-response","trial_index":42,"time_elapsed":235780,"internal_node_id":"0.0-3.0-0.39","subject_id":"5f660626a9151c19b17ba3c8","study_id":"605e2a800ccfa0c8e820d869","session_id":"60623667f642b6d5cfd2ad10"},{"rt":5257,"stimulus":"img/00489.png","slider_start":4,"response":3,"trial_type":"image-slider-response","trial_index":43,"time_elapsed":241047,"internal_node_id":"0.0-3.0-0.40","subject_id":"5f660626a9151c19b17ba3c8","study_id":"605e2a800ccfa0c8e820d869","session_id":"60623667f642b6d5cfd2ad10"},{"rt":3264,"stimulus":"img/00427.png","slider_start":4,"response":7,"trial_type":"image-slider-response","trial_index":44,"time_elapsed":244317,"internal_node_id":"0.0-3.0-0.41","subject_id":"5f660626a9151c19b17ba3c8","study_id":"605e2a800ccfa0c8e820d869","session_id":"60623667f642b6d5cfd2ad10"},{"rt":2135,"stimulus":"img/00522.png","slider_start":4,"response":4,"trial_type":"image-slider-response","trial_index":45,"time_elapsed":246460,"internal_node_id":"0.0-3.0-0.42","subject_id":"5f660626a9151c19b17ba3c8","study_id":"605e2a800ccfa0c8e820d869","session_id":"60623667f642b6d5cfd2ad10"},{"rt":3934,"stimulus":"img/00799.png","slider_start":4,"response":3,"trial_type":"image-slider-response","trial_index":46,"time_elapsed":250402,"internal_node_id":"0.0-3.0-0.43","subject_id":"5f660626a9151c19b17ba3c8","study_id":"605e2a800ccfa0c8e820d869","session_id":"60623667f642b6d5cfd2ad10"},{"rt":2875,"stimulus":"img/00006.png","slider_start":4,"response":3,"trial_type":"image-slider-response","trial_index":47,"time_elapsed":253285,"internal_node_id":"0.0-3.0-0.44","subject_id":"5f660626a9151c19b17ba3c8","study_id":"605e2a800ccfa0c8e820d869","session_id":"60623667f642b6d5cfd2ad10"},{"rt":1598,"stimulus":"img/00810.png","slider_start":4,"response":4,"trial_type":"image-slider-response","trial_index":48,"time_elapsed":254891,"internal_node_id":"0.0-3.0-0.45","subject_id":"5f660626a9151c19b17ba3c8","study_id":"605e2a800ccfa0c8e820d869","session_id":"60623667f642b6d5cfd2ad10"},{"rt":2689,"stimulus":"img/00748.png","slider_start":4,"response":4,"trial_type":"image-slider-response","trial_index":49,"time_elapsed":257586,"internal_node_id":"0.0-3.0-0.46","subject_id":"5f660626a9151c19b17ba3c8","study_id":"605e2a800ccfa0c8e820d869","session_id":"60623667f642b6d5cfd2ad10"},{"rt":2583,"stimulus":"img/00415.png","slider_start":4,"response":5,"trial_type":"image-slider-response","trial_index":50,"time_elapsed":260178,"internal_node_id":"0.0-3.0-0.47","subject_id":"5f660626a9151c19b17ba3c8","study_id":"605e2a800ccfa0c8e820d869","session_id":"60623667f642b6d5cfd2ad10"},{"rt":6121,"stimulus":"img/00785.png","slider_start":4,"response":4,"trial_type":"image-slider-response","trial_index":51,"time_elapsed":266307,"internal_node_id":"0.0-3.0-0.48","subject_id":"5f660626a9151c19b17ba3c8","study_id":"605e2a800ccfa0c8e820d869","session_id":"60623667f642b6d5cfd2ad10"},{"rt":7677,"stimulus":"img/00012.png","slider_start":4,"response":4,"trial_type":"image-slider-response","trial_index":52,"time_elapsed":273990,"internal_node_id":"0.0-3.0-0.49","subject_id":"5f660626a9151c19b17ba3c8","study_id":"605e2a800ccfa0c8e820d869","session_id":"60623667f642b6d5cfd2ad10"},{"rt":3718,"stimulus":"img/00779.png","slider_start":4,"response":6,"trial_type":"image-slider-response","trial_index":53,"time_elapsed":277715,"internal_node_id":"0.0-3.0-0.50","subject_id":"5f660626a9151c19b17ba3c8","study_id":"605e2a800ccfa0c8e820d869","session_id":"60623667f642b6d5cfd2ad10"},{"rt":5538,"stimulus":"img/00559.png","slider_start":4,"response":3,"trial_type":"image-slider-response","trial_index":54,"time_elapsed":283260,"internal_node_id":"0.0-3.0-0.51","subject_id":"5f660626a9151c19b17ba3c8","study_id":"605e2a800ccfa0c8e820d869","session_id":"60623667f642b6d5cfd2ad10"},{"rt":4844,"stimulus":"img/00115.png","slider_start":4,"response":2,"trial_type":"image-slider-response","trial_index":55,"time_elapsed":288112,"internal_node_id":"0.0-3.0-0.52","subject_id":"5f660626a9151c19b17ba3c8","study_id":"605e2a800ccfa0c8e820d869","session_id":"60623667f642b6d5cfd2ad10"},{"rt":4148,"stimulus":"img/00629.png","slider_start":4,"response":4,"trial_type":"image-slider-response","trial_index":56,"time_elapsed":292268,"internal_node_id":"0.0-3.0-0.53","subject_id":"5f660626a9151c19b17ba3c8","study_id":"605e2a800ccfa0c8e820d869","session_id":"60623667f642b6d5cfd2ad10"},{"rt":4735,"stimulus":"img/00503.png","slider_start":4,"response":4,"trial_type":"image-slider-response","trial_index":57,"time_elapsed":297011,"internal_node_id":"0.0-3.0-0.54","subject_id":"5f660626a9151c19b17ba3c8","study_id":"605e2a800ccfa0c8e820d869","session_id":"60623667f642b6d5cfd2ad10"},{"rt":2089,"stimulus":"img/00689.png","slider_start":4,"response":5,"trial_type":"image-slider-response","trial_index":58,"time_elapsed":299108,"internal_node_id":"0.0-3.0-0.55","subject_id":"5f660626a9151c19b17ba3c8","study_id":"605e2a800ccfa0c8e820d869","session_id":"60623667f642b6d5cfd2ad10"},{"rt":4996,"stimulus":"img/00126.png","slider_start":4,"response":2,"trial_type":"image-slider-response","trial_index":59,"time_elapsed":304111,"internal_node_id":"0.0-3.0-0.56","subject_id":"5f660626a9151c19b17ba3c8","study_id":"605e2a800ccfa0c8e820d869","session_id":"60623667f642b6d5cfd2ad10"},{"rt":3329,"stimulus":"img/00653.png","slider_start":4,"response":6,"trial_type":"image-slider-response","trial_index":60,"time_elapsed":307447,"internal_node_id":"0.0-3.0-0.57","subject_id":"5f660626a9151c19b17ba3c8","study_id":"605e2a800ccfa0c8e820d869","session_id":"60623667f642b6d5cfd2ad10"},{"rt":4552,"stimulus":"img/00464.png","slider_start":4,"response":1,"trial_type":"image-slider-response","trial_index":61,"time_elapsed":312008,"internal_node_id":"0.0-3.0-0.58","subject_id":"5f660626a9151c19b17ba3c8","study_id":"605e2a800ccfa0c8e820d869","session_id":"60623667f642b6d5cfd2ad10"},{"rt":3081,"stimulus":"img/00479.png","slider_start":4,"response":7,"trial_type":"image-slider-response","trial_index":62,"time_elapsed":315095,"internal_node_id":"0.0-3.0-0.59","subject_id":"5f660626a9151c19b17ba3c8","study_id":"605e2a800ccfa0c8e820d869","session_id":"60623667f642b6d5cfd2ad10"},{"rt":4740,"stimulus":"img/00521.png","slider_start":4,"response":2,"trial_type":"image-slider-response","trial_index":63,"time_elapsed":319843,"internal_node_id":"0.0-3.0-0.60","subject_id":"5f660626a9151c19b17ba3c8","study_id":"605e2a800ccfa0c8e820d869","session_id":"60623667f642b6d5cfd2ad10"},{"rt":3497,"stimulus":"img/00405.png","slider_start":4,"response":2,"trial_type":"image-slider-response","trial_index":64,"time_elapsed":323347,"internal_node_id":"0.0-3.0-0.61","subject_id":"5f660626a9151c19b17ba3c8","study_id":"605e2a800ccfa0c8e820d869","session_id":"60623667f642b6d5cfd2ad10"},{"rt":6034,"stimulus":"img/00100.png","slider_start":4,"response":5,"trial_type":"image-slider-response","trial_index":65,"time_elapsed":329389,"internal_node_id":"0.0-3.0-0.62","subject_id":"5f660626a9151c19b17ba3c8","study_id":"605e2a800ccfa0c8e820d869","session_id":"60623667f642b6d5cfd2ad10"},{"rt":3378,"stimulus":"img/00472.png","slider_start":4,"response":4,"trial_type":"image-slider-response","trial_index":66,"time_elapsed":332773,"internal_node_id":"0.0-3.0-0.63","subject_id":"5f660626a9151c19b17ba3c8","study_id":"605e2a800ccfa0c8e820d869","session_id":"60623667f642b6d5cfd2ad10"},{"rt":6593,"stimulus":"img/00406.png","slider_start":4,"response":4,"trial_type":"image-slider-response","trial_index":67,"time_elapsed":339374,"internal_node_id":"0.0-3.0-0.64","subject_id":"5f660626a9151c19b17ba3c8","study_id":"605e2a800ccfa0c8e820d869","session_id":"60623667f642b6d5cfd2ad10"},{"rt":3699,"stimulus":"img/00722.png","slider_start":4,"response":4,"trial_type":"image-slider-response","trial_index":68,"time_elapsed":343080,"internal_node_id":"0.0-3.0-0.65","subject_id":"5f660626a9151c19b17ba3c8","study_id":"605e2a800ccfa0c8e820d869","session_id":"60623667f642b6d5cfd2ad10"},{"rt":4695,"stimulus":"img/00040.png","slider_start":4,"response":5,"trial_type":"image-slider-response","trial_index":69,"time_elapsed":347783,"internal_node_id":"0.0-3.0-0.66","subject_id":"5f660626a9151c19b17ba3c8","study_id":"605e2a800ccfa0c8e820d869","session_id":"60623667f642b6d5cfd2ad10"},{"rt":6158,"stimulus":"img/00755.png","slider_start":4,"response":5,"trial_type":"image-slider-response","trial_index":70,"time_elapsed":353949,"internal_node_id":"0.0-3.0-0.67","subject_id":"5f660626a9151c19b17ba3c8","study_id":"605e2a800ccfa0c8e820d869","session_id":"60623667f642b6d5cfd2ad10"},{"rt":2068,"stimulus":"img/00793.png","slider_start":4,"response":4,"trial_type":"image-slider-response","trial_index":71,"time_elapsed":356024,"internal_node_id":"0.0-3.0-0.68","subject_id":"5f660626a9151c19b17ba3c8","study_id":"605e2a800ccfa0c8e820d869","session_id":"60623667f642b6d5cfd2ad10"},{"rt":5059,"stimulus":"img/00581.png","slider_start":4,"response":3,"trial_type":"image-slider-response","trial_index":72,"time_elapsed":361091,"internal_node_id":"0.0-3.0-0.69","subject_id":"5f660626a9151c19b17ba3c8","study_id":"605e2a800ccfa0c8e820d869","session_id":"60623667f642b6d5cfd2ad10"},{"rt":3701,"stimulus":"img/00973.png","slider_start":4,"response":5,"trial_type":"image-slider-response","trial_index":73,"time_elapsed":364801,"internal_node_id":"0.0-3.0-0.70","subject_id":"5f660626a9151c19b17ba3c8","study_id":"605e2a800ccfa0c8e820d869","session_id":"60623667f642b6d5cfd2ad10"},{"rt":2883,"stimulus":"img/00842.png","slider_start":4,"response":7,"trial_type":"image-slider-response","trial_index":74,"time_elapsed":367692,"internal_node_id":"0.0-3.0-0.71","subject_id":"5f660626a9151c19b17ba3c8","study_id":"605e2a800ccfa0c8e820d869","session_id":"60623667f642b6d5cfd2ad10"},{"rt":4466,"stimulus":"img/00045.png","slider_start":4,"response":4,"trial_type":"image-slider-response","trial_index":75,"time_elapsed":372167,"internal_node_id":"0.0-3.0-0.72","subject_id":"5f660626a9151c19b17ba3c8","study_id":"605e2a800ccfa0c8e820d869","session_id":"60623667f642b6d5cfd2ad10"},{"rt":2126,"stimulus":"img/00790.png","slider_start":4,"response":5,"trial_type":"image-slider-response","trial_index":76,"time_elapsed":374299,"internal_node_id":"0.0-3.0-0.73","subject_id":"5f660626a9151c19b17ba3c8","study_id":"605e2a800ccfa0c8e820d869","session_id":"60623667f642b6d5cfd2ad10"},{"rt":2798,"stimulus":"img/00791.png","slider_start":4,"response":4,"trial_type":"image-slider-response","trial_index":77,"time_elapsed":377106,"internal_node_id":"0.0-3.0-0.74","subject_id":"5f660626a9151c19b17ba3c8","study_id":"605e2a800ccfa0c8e820d869","session_id":"60623667f642b6d5cfd2ad10"},{"rt":3750,"stimulus":"img/00569.png","slider_start":4,"response":3,"trial_type":"image-slider-response","trial_index":78,"time_elapsed":380863,"internal_node_id":"0.0-3.0-0.75","subject_id":"5f660626a9151c19b17ba3c8","study_id":"605e2a800ccfa0c8e820d869","session_id":"60623667f642b6d5cfd2ad10"},{"rt":3308,"stimulus":"img/00988.png","slider_start":4,"response":5,"trial_type":"image-slider-response","trial_index":79,"time_elapsed":384179,"internal_node_id":"0.0-3.0-0.76","subject_id":"5f660626a9151c19b17ba3c8","study_id":"605e2a800ccfa0c8e820d869","session_id":"60623667f642b6d5cfd2ad10"},{"rt":2754,"stimulus":"img/00742.png","slider_start":4,"response":5,"trial_type":"image-slider-response","trial_index":80,"time_elapsed":386941,"internal_node_id":"0.0-3.0-0.77","subject_id":"5f660626a9151c19b17ba3c8","study_id":"605e2a800ccfa0c8e820d869","session_id":"60623667f642b6d5cfd2ad10"},{"rt":3578,"stimulus":"img/00401.png","slider_start":4,"response":5,"trial_type":"image-slider-response","trial_index":81,"time_elapsed":390526,"internal_node_id":"0.0-3.0-0.78","subject_id":"5f660626a9151c19b17ba3c8","study_id":"605e2a800ccfa0c8e820d869","session_id":"60623667f642b6d5cfd2ad10"},{"rt":2681,"stimulus":"img/00437.png","slider_start":4,"response":6,"trial_type":"image-slider-response","trial_index":82,"time_elapsed":393213,"internal_node_id":"0.0-3.0-0.79","subject_id":"5f660626a9151c19b17ba3c8","study_id":"605e2a800ccfa0c8e820d869","session_id":"60623667f642b6d5cfd2ad10"},{"rt":5000,"stimulus":"img/00780.png","slider_start":4,"response":4,"trial_type":"image-slider-response","trial_index":83,"time_elapsed":398221,"internal_node_id":"0.0-3.0-0.80","subject_id":"5f660626a9151c19b17ba3c8","study_id":"605e2a800ccfa0c8e820d869","session_id":"60623667f642b6d5cfd2ad10"},{"rt":2474,"stimulus":"img/00462.png","slider_start":4,"response":5,"trial_type":"image-slider-response","trial_index":84,"time_elapsed":400702,"internal_node_id":"0.0-3.0-0.81","subject_id":"5f660626a9151c19b17ba3c8","study_id":"605e2a800ccfa0c8e820d869","session_id":"60623667f642b6d5cfd2ad10"},{"rt":3599,"stimulus":"img/00926.png","slider_start":4,"response":5,"trial_type":"image-slider-response","trial_index":85,"time_elapsed":404308,"internal_node_id":"0.0-3.0-0.82","subject_id":"5f660626a9151c19b17ba3c8","study_id":"605e2a800ccfa0c8e820d869","session_id":"60623667f642b6d5cfd2ad10"},{"rt":2007,"stimulus":"img/00930.png","slider_start":4,"response":5,"trial_type":"image-slider-response","trial_index":86,"time_elapsed":406320,"internal_node_id":"0.0-3.0-0.83","subject_id":"5f660626a9151c19b17ba3c8","study_id":"605e2a800ccfa0c8e820d869","session_id":"60623667f642b6d5cfd2ad10"},{"rt":3861,"stimulus":"img/00744.png","slider_start":4,"response":3,"trial_type":"image-slider-response","trial_index":87,"time_elapsed":410188,"internal_node_id":"0.0-3.0-0.84","subject_id":"5f660626a9151c19b17ba3c8","study_id":"605e2a800ccfa0c8e820d869","session_id":"60623667f642b6d5cfd2ad10"},{"rt":5402,"stimulus":"img/00896.png","slider_start":4,"response":3,"trial_type":"image-slider-response","trial_index":88,"time_elapsed":415598,"internal_node_id":"0.0-3.0-0.85","subject_id":"5f660626a9151c19b17ba3c8","study_id":"605e2a800ccfa0c8e820d869","session_id":"60623667f642b6d5cfd2ad10"},{"rt":2743,"stimulus":"img/00129.png","slider_start":4,"response":6,"trial_type":"image-slider-response","trial_index":89,"time_elapsed":418347,"internal_node_id":"0.0-3.0-0.86","subject_id":"5f660626a9151c19b17ba3c8","study_id":"605e2a800ccfa0c8e820d869","session_id":"60623667f642b6d5cfd2ad10"},{"rt":3077,"stimulus":"img/00122.png","slider_start":4,"response":7,"trial_type":"image-slider-response","trial_index":90,"time_elapsed":421433,"internal_node_id":"0.0-3.0-0.87","subject_id":"5f660626a9151c19b17ba3c8","study_id":"605e2a800ccfa0c8e820d869","session_id":"60623667f642b6d5cfd2ad10"},{"rt":1917,"stimulus":"img/00079.png","slider_start":4,"response":3,"trial_type":"image-slider-response","trial_index":91,"time_elapsed":423356,"internal_node_id":"0.0-3.0-0.88","subject_id":"5f660626a9151c19b17ba3c8","study_id":"605e2a800ccfa0c8e820d869","session_id":"60623667f642b6d5cfd2ad10"},{"rt":1587,"stimulus":"img/00016.png","slider_start":4,"response":4,"trial_type":"image-slider-response","trial_index":92,"time_elapsed":424952,"internal_node_id":"0.0-3.0-0.89","subject_id":"5f660626a9151c19b17ba3c8","study_id":"605e2a800ccfa0c8e820d869","session_id":"60623667f642b6d5cfd2ad10"},{"rt":2053,"stimulus":"img/00438.png","slider_start":4,"response":5,"trial_type":"image-slider-response","trial_index":93,"time_elapsed":427012,"internal_node_id":"0.0-3.0-0.90","subject_id":"5f660626a9151c19b17ba3c8","study_id":"605e2a800ccfa0c8e820d869","session_id":"60623667f642b6d5cfd2ad10"},{"rt":2209,"stimulus":"img/00011.png","slider_start":4,"response":4,"trial_type":"image-slider-response","trial_index":94,"time_elapsed":429227,"internal_node_id":"0.0-3.0-0.91","subject_id":"5f660626a9151c19b17ba3c8","study_id":"605e2a800ccfa0c8e820d869","session_id":"60623667f642b6d5cfd2ad10"},{"rt":2896,"stimulus":"img/00042.png","slider_start":4,"response":5,"trial_type":"image-slider-response","trial_index":95,"time_elapsed":432131,"internal_node_id":"0.0-3.0-0.92","subject_id":"5f660626a9151c19b17ba3c8","study_id":"605e2a800ccfa0c8e820d869","session_id":"60623667f642b6d5cfd2ad10"},{"rt":5768,"stimulus":"img/00029.png","slider_start":4,"response":4,"trial_type":"image-slider-response","trial_index":96,"time_elapsed":437907,"internal_node_id":"0.0-3.0-0.93","subject_id":"5f660626a9151c19b17ba3c8","study_id":"605e2a800ccfa0c8e820d869","session_id":"60623667f642b6d5cfd2ad10"},{"rt":2237,"stimulus":"img/00691.png","slider_start":4,"response":5,"trial_type":"image-slider-response","trial_index":97,"time_elapsed":440151,"internal_node_id":"0.0-3.0-0.94","subject_id":"5f660626a9151c19b17ba3c8","study_id":"605e2a800ccfa0c8e820d869","session_id":"60623667f642b6d5cfd2ad10"},{"rt":3747,"stimulus":"img/00693.png","slider_start":4,"response":4,"trial_type":"image-slider-response","trial_index":98,"time_elapsed":443904,"internal_node_id":"0.0-3.0-0.95","subject_id":"5f660626a9151c19b17ba3c8","study_id":"605e2a800ccfa0c8e820d869","session_id":"60623667f642b6d5cfd2ad10"},{"rt":2615,"stimulus":"img/00469.png","slider_start":4,"response":5,"trial_type":"image-slider-response","trial_index":99,"time_elapsed":446527,"internal_node_id":"0.0-3.0-0.96","subject_id":"5f660626a9151c19b17ba3c8","study_id":"605e2a800ccfa0c8e820d869","session_id":"60623667f642b6d5cfd2ad10"},{"rt":3218,"stimulus":"img/00995.png","slider_start":4,"response":5,"trial_type":"image-slider-response","trial_index":100,"time_elapsed":449753,"internal_node_id":"0.0-3.0-0.97","subject_id":"5f660626a9151c19b17ba3c8","study_id":"605e2a800ccfa0c8e820d869","session_id":"60623667f642b6d5cfd2ad10"},{"rt":2160,"stimulus":"img/00101.png","slider_start":4,"response":2,"trial_type":"image-slider-response","trial_index":101,"time_elapsed":451921,"internal_node_id":"0.0-3.0-0.98","subject_id":"5f660626a9151c19b17ba3c8","study_id":"605e2a800ccfa0c8e820d869","session_id":"60623667f642b6d5cfd2ad10"},{"rt":3471,"stimulus":"img/00833.png","slider_start":4,"response":4,"trial_type":"image-slider-response","trial_index":102,"time_elapsed":455399,"internal_node_id":"0.0-3.0-0.99","subject_id":"5f660626a9151c19b17ba3c8","study_id":"605e2a800ccfa0c8e820d869","session_id":"60623667f642b6d5cfd2ad10"},{"rt":1475,"stimulus":"img/00867.png","slider_start":4,"response":4,"trial_type":"image-slider-response","trial_index":103,"time_elapsed":456882,"internal_node_id":"0.0-3.0-0.100","subject_id":"5f660626a9151c19b17ba3c8","study_id":"605e2a800ccfa0c8e820d869","session_id":"60623667f642b6d5cfd2ad10"},{"rt":2595,"stimulus":"img/00797.png","slider_start":4,"response":3,"trial_type":"image-slider-response","trial_index":104,"time_elapsed":459486,"internal_node_id":"0.0-3.0-0.101","subject_id":"5f660626a9151c19b17ba3c8","study_id":"605e2a800ccfa0c8e820d869","session_id":"60623667f642b6d5cfd2ad10"},{"rt":3023,"stimulus":"img/00055.png","slider_start":4,"response":4,"trial_type":"image-slider-response","trial_index":105,"time_elapsed":462514,"internal_node_id":"0.0-3.0-0.102","subject_id":"5f660626a9151c19b17ba3c8","study_id":"605e2a800ccfa0c8e820d869","session_id":"60623667f642b6d5cfd2ad10"},{"rt":2579,"stimulus":"img/40.png","slider_start":4,"response":4,"trial_type":"image-slider-response","trial_index":106,"time_elapsed":465101,"internal_node_id":"0.0-3.0-0.103","subject_id":"5f660626a9151c19b17ba3c8","study_id":"605e2a800ccfa0c8e820d869","session_id":"60623667f642b6d5cfd2ad10"},{"rt":6049,"stimulus":"img/00511.png","slider_start":4,"response":4,"trial_type":"image-slider-response","trial_index":107,"time_elapsed":471157,"internal_node_id":"0.0-3.0-0.104","subject_id":"5f660626a9151c19b17ba3c8","study_id":"605e2a800ccfa0c8e820d869","session_id":"60623667f642b6d5cfd2ad10"},{"rt":6746,"stimulus":"img/00048.png","slider_start":4,"response":3,"trial_type":"image-slider-response","trial_index":108,"time_elapsed":477910,"internal_node_id":"0.0-3.0-0.105","subject_id":"5f660626a9151c19b17ba3c8","study_id":"605e2a800ccfa0c8e820d869","session_id":"60623667f642b6d5cfd2ad10"},{"rt":2512,"stimulus":"img/00913.png","slider_start":4,"response":4,"trial_type":"image-slider-response","trial_index":109,"time_elapsed":480428,"internal_node_id":"0.0-3.0-0.106","subject_id":"5f660626a9151c19b17ba3c8","study_id":"605e2a800ccfa0c8e820d869","session_id":"60623667f642b6d5cfd2ad10"},{"rt":5106,"stimulus":"img/00440.png","slider_start":4,"response":4,"trial_type":"image-slider-response","trial_index":110,"time_elapsed":485541,"internal_node_id":"0.0-3.0-0.107","subject_id":"5f660626a9151c19b17ba3c8","study_id":"605e2a800ccfa0c8e820d869","session_id":"60623667f642b6d5cfd2ad10"},{"rt":3569,"stimulus":"img/00483.png","slider_start":4,"response":4,"trial_type":"image-slider-response","trial_index":111,"time_elapsed":489118,"internal_node_id":"0.0-3.0-0.108","subject_id":"5f660626a9151c19b17ba3c8","study_id":"605e2a800ccfa0c8e820d869","session_id":"60623667f642b6d5cfd2ad10"},{"rt":6165,"stimulus":"img/00543.png","slider_start":4,"response":3,"trial_type":"image-slider-response","trial_index":112,"time_elapsed":495291,"internal_node_id":"0.0-3.0-0.109","subject_id":"5f660626a9151c19b17ba3c8","study_id":"605e2a800ccfa0c8e820d869","session_id":"60623667f642b6d5cfd2ad10"},{"rt":5983,"stimulus":"img/00761.png","slider_start":4,"response":4,"trial_type":"image-slider-response","trial_index":113,"time_elapsed":501282,"internal_node_id":"0.0-3.0-0.110","subject_id":"5f660626a9151c19b17ba3c8","study_id":"605e2a800ccfa0c8e820d869","session_id":"60623667f642b6d5cfd2ad10"},{"rt":2153,"stimulus":"img/00499.png","slider_start":4,"response":2,"trial_type":"image-slider-response","trial_index":114,"time_elapsed":503442,"internal_node_id":"0.0-3.0-0.111","subject_id":"5f660626a9151c19b17ba3c8","study_id":"605e2a800ccfa0c8e820d869","session_id":"60623667f642b6d5cfd2ad10"},{"rt":2249,"stimulus":"img/00466.png","slider_start":4,"response":3,"trial_type":"image-slider-response","trial_index":115,"time_elapsed":505698,"internal_node_id":"0.0-3.0-0.112","subject_id":"5f660626a9151c19b17ba3c8","study_id":"605e2a800ccfa0c8e820d869","session_id":"60623667f642b6d5cfd2ad10"},{"rt":1266,"stimulus":"img/00114.png","slider_start":4,"response":4,"trial_type":"image-slider-response","trial_index":116,"time_elapsed":506971,"internal_node_id":"0.0-3.0-0.113","subject_id":"5f660626a9151c19b17ba3c8","study_id":"605e2a800ccfa0c8e820d869","session_id":"60623667f642b6d5cfd2ad10"},{"rt":2840,"stimulus":"img/00507.png","slider_start":4,"response":5,"trial_type":"image-slider-response","trial_index":117,"time_elapsed":509818,"internal_node_id":"0.0-3.0-0.114","subject_id":"5f660626a9151c19b17ba3c8","study_id":"605e2a800ccfa0c8e820d869","session_id":"60623667f642b6d5cfd2ad10"},{"rt":2469,"stimulus":"img/00508.png","slider_start":4,"response":5,"trial_type":"image-slider-response","trial_index":118,"time_elapsed":512295,"internal_node_id":"0.0-3.0-0.115","subject_id":"5f660626a9151c19b17ba3c8","study_id":"605e2a800ccfa0c8e820d869","session_id":"60623667f642b6d5cfd2ad10"},{"rt":2490,"stimulus":"img/00037.png","slider_start":4,"response":5,"trial_type":"image-slider-response","trial_index":119,"time_elapsed":514792,"internal_node_id":"0.0-3.0-0.116","subject_id":"5f660626a9151c19b17ba3c8","study_id":"605e2a800ccfa0c8e820d869","session_id":"60623667f642b6d5cfd2ad10"},{"rt":1475,"stimulus":"img/00603.png","slider_start":4,"response":4,"trial_type":"image-slider-response","trial_index":120,"time_elapsed":516275,"internal_node_id":"0.0-3.0-0.117","subject_id":"5f660626a9151c19b17ba3c8","study_id":"605e2a800ccfa0c8e820d869","session_id":"60623667f642b6d5cfd2ad10"},{"rt":1297,"stimulus":"img/00504.png","slider_start":4,"response":4,"trial_type":"image-slider-response","trial_index":121,"time_elapsed":517579,"internal_node_id":"0.0-3.0-0.118","subject_id":"5f660626a9151c19b17ba3c8","study_id":"605e2a800ccfa0c8e820d869","session_id":"60623667f642b6d5cfd2ad10"},{"rt":2135,"stimulus":"img/00825.png","slider_start":4,"response":6,"trial_type":"image-slider-response","trial_index":122,"time_elapsed":519725,"internal_node_id":"0.0-3.0-0.119","subject_id":"5f660626a9151c19b17ba3c8","study_id":"605e2a800ccfa0c8e820d869","session_id":"60623667f642b6d5cfd2ad10"},{"rt":7776,"stimulus":"img/00064.png","slider_start":4,"response":5,"trial_type":"image-slider-response","trial_index":123,"time_elapsed":527506,"internal_node_id":"0.0-3.0-0.120","subject_id":"5f660626a9151c19b17ba3c8","study_id":"605e2a800ccfa0c8e820d869","session_id":"60623667f642b6d5cfd2ad10"},{"rt":3891,"stimulus":"img/00439.png","slider_start":4,"response":3,"trial_type":"image-slider-response","trial_index":124,"time_elapsed":531404,"internal_node_id":"0.0-3.0-0.121","subject_id":"5f660626a9151c19b17ba3c8","study_id":"605e2a800ccfa0c8e820d869","session_id":"60623667f642b6d5cfd2ad10"},{"rt":2957,"stimulus":"img/00878.png","slider_start":4,"response":4,"trial_type":"image-slider-response","trial_index":125,"time_elapsed":534369,"internal_node_id":"0.0-3.0-0.122","subject_id":"5f660626a9151c19b17ba3c8","study_id":"605e2a800ccfa0c8e820d869","session_id":"60623667f642b6d5cfd2ad10"},{"rt":3106,"stimulus":"img/00525.png","slider_start":4,"response":4,"trial_type":"image-slider-response","trial_index":126,"time_elapsed":537481,"internal_node_id":"0.0-3.0-0.123","subject_id":"5f660626a9151c19b17ba3c8","study_id":"605e2a800ccfa0c8e820d869","session_id":"60623667f642b6d5cfd2ad10"},{"rt":4707,"stimulus":"img/00002.png","slider_start":4,"response":4,"trial_type":"image-slider-response","trial_index":127,"time_elapsed":542195,"internal_node_id":"0.0-3.0-0.124","subject_id":"5f660626a9151c19b17ba3c8","study_id":"605e2a800ccfa0c8e820d869","session_id":"60623667f642b6d5cfd2ad10"},{"rt":2862,"stimulus":"img/00418.png","slider_start":4,"response":5,"trial_type":"image-slider-response","trial_index":128,"time_elapsed":545066,"internal_node_id":"0.0-3.0-0.125","subject_id":"5f660626a9151c19b17ba3c8","study_id":"605e2a800ccfa0c8e820d869","session_id":"60623667f642b6d5cfd2ad10"},{"rt":6098,"stimulus":"img/00454.png","slider_start":4,"response":3,"trial_type":"image-slider-response","trial_index":129,"time_elapsed":551172,"internal_node_id":"0.0-3.0-0.126","subject_id":"5f660626a9151c19b17ba3c8","study_id":"605e2a800ccfa0c8e820d869","session_id":"60623667f642b6d5cfd2ad10"},{"rt":3071,"stimulus":"img/00576.png","slider_start":4,"response":6,"trial_type":"image-slider-response","trial_index":130,"time_elapsed":554251,"internal_node_id":"0.0-3.0-0.127","subject_id":"5f660626a9151c19b17ba3c8","study_id":"605e2a800ccfa0c8e820d869","session_id":"60623667f642b6d5cfd2ad10"},{"rt":2340,"stimulus":"img/00903.png","slider_start":4,"response":5,"trial_type":"image-slider-response","trial_index":131,"time_elapsed":556597,"internal_node_id":"0.0-3.0-0.128","subject_id":"5f660626a9151c19b17ba3c8","study_id":"605e2a800ccfa0c8e820d869","session_id":"60623667f642b6d5cfd2ad10"},{"rt":5679,"stimulus":"img/00690.png","slider_start":4,"response":4,"trial_type":"image-slider-response","trial_index":132,"time_elapsed":562284,"internal_node_id":"0.0-3.0-0.129","subject_id":"5f660626a9151c19b17ba3c8","study_id":"605e2a800ccfa0c8e820d869","session_id":"60623667f642b6d5cfd2ad10"},{"rt":1491,"stimulus":"img/00093.png","slider_start":4,"response":4,"trial_type":"image-slider-response","trial_index":133,"time_elapsed":563781,"internal_node_id":"0.0-3.0-0.130","subject_id":"5f660626a9151c19b17ba3c8","study_id":"605e2a800ccfa0c8e820d869","session_id":"60623667f642b6d5cfd2ad10"},{"rt":2484,"stimulus":"img/00957.png","slider_start":4,"response":4,"trial_type":"image-slider-response","trial_index":134,"time_elapsed":566272,"internal_node_id":"0.0-3.0-0.131","subject_id":"5f660626a9151c19b17ba3c8","study_id":"605e2a800ccfa0c8e820d869","session_id":"60623667f642b6d5cfd2ad10"},{"rt":2185,"stimulus":"img/00773.png","slider_start":4,"response":5,"trial_type":"image-slider-response","trial_index":135,"time_elapsed":568465,"internal_node_id":"0.0-3.0-0.132","subject_id":"5f660626a9151c19b17ba3c8","study_id":"605e2a800ccfa0c8e820d869","session_id":"60623667f642b6d5cfd2ad10"},{"rt":2234,"stimulus":"img/00587.png","slider_start":4,"response":5,"trial_type":"image-slider-response","trial_index":136,"time_elapsed":570708,"internal_node_id":"0.0-3.0-0.133","subject_id":"5f660626a9151c19b17ba3c8","study_id":"605e2a800ccfa0c8e820d869","session_id":"60623667f642b6d5cfd2ad10"},{"rt":4333,"stimulus":"img/00853.png","slider_start":4,"response":4,"trial_type":"image-slider-response","trial_index":137,"time_elapsed":575049,"internal_node_id":"0.0-3.0-0.134","subject_id":"5f660626a9151c19b17ba3c8","study_id":"605e2a800ccfa0c8e820d869","session_id":"60623667f642b6d5cfd2ad10"},{"rt":4714,"stimulus":"img/00850.png","slider_start":4,"response":3,"trial_type":"image-slider-response","trial_index":138,"time_elapsed":579769,"internal_node_id":"0.0-3.0-0.135","subject_id":"5f660626a9151c19b17ba3c8","study_id":"605e2a800ccfa0c8e820d869","session_id":"60623667f642b6d5cfd2ad10"},{"rt":2251,"stimulus":"img/00078.png","slider_start":4,"response":3,"trial_type":"image-slider-response","trial_index":139,"time_elapsed":582027,"internal_node_id":"0.0-3.0-0.136","subject_id":"5f660626a9151c19b17ba3c8","study_id":"605e2a800ccfa0c8e820d869","session_id":"60623667f642b6d5cfd2ad10"},{"rt":3319,"stimulus":"img/00413.png","slider_start":4,"response":5,"trial_type":"image-slider-response","trial_index":140,"time_elapsed":585354,"internal_node_id":"0.0-3.0-0.137","subject_id":"5f660626a9151c19b17ba3c8","study_id":"605e2a800ccfa0c8e820d869","session_id":"60623667f642b6d5cfd2ad10"},{"rt":1246,"stimulus":"img/00052.png","slider_start":4,"response":4,"trial_type":"image-slider-response","trial_index":141,"time_elapsed":586607,"internal_node_id":"0.0-3.0-0.138","subject_id":"5f660626a9151c19b17ba3c8","study_id":"605e2a800ccfa0c8e820d869","session_id":"60623667f642b6d5cfd2ad10"},{"rt":7866,"stimulus":"img/00600.png","slider_start":4,"response":3,"trial_type":"image-slider-response","trial_index":142,"time_elapsed":594479,"internal_node_id":"0.0-3.0-0.139","subject_id":"5f660626a9151c19b17ba3c8","study_id":"605e2a800ccfa0c8e820d869","session_id":"60623667f642b6d5cfd2ad10"},{"rt":3713,"stimulus":"img/00760.png","slider_start":4,"response":4,"trial_type":"image-slider-response","trial_index":143,"time_elapsed":598199,"internal_node_id":"0.0-3.0-0.140","subject_id":"5f660626a9151c19b17ba3c8","study_id":"605e2a800ccfa0c8e820d869","session_id":"60623667f642b6d5cfd2ad10"},{"rt":4473,"stimulus":"img/00077.png","slider_start":4,"response":6,"trial_type":"image-slider-response","trial_index":144,"time_elapsed":602680,"internal_node_id":"0.0-3.0-0.141","subject_id":"5f660626a9151c19b17ba3c8","study_id":"605e2a800ccfa0c8e820d869","session_id":"60623667f642b6d5cfd2ad10"},{"rt":2279,"stimulus":"img/00986.png","slider_start":4,"response":4,"trial_type":"image-slider-response","trial_index":145,"time_elapsed":604967,"internal_node_id":"0.0-3.0-0.142","subject_id":"5f660626a9151c19b17ba3c8","study_id":"605e2a800ccfa0c8e820d869","session_id":"60623667f642b6d5cfd2ad10"},{"rt":2584,"stimulus":"img/00564.png","slider_start":4,"response":5,"trial_type":"image-slider-response","trial_index":146,"time_elapsed":607561,"internal_node_id":"0.0-3.0-0.143","subject_id":"5f660626a9151c19b17ba3c8","study_id":"605e2a800ccfa0c8e820d869","session_id":"60623667f642b6d5cfd2ad10"},{"rt":1289,"stimulus":"img/00023.png","slider_start":4,"response":4,"trial_type":"image-slider-response","trial_index":147,"time_elapsed":608858,"internal_node_id":"0.0-3.0-0.144","subject_id":"5f660626a9151c19b17ba3c8","study_id":"605e2a800ccfa0c8e820d869","session_id":"60623667f642b6d5cfd2ad10"},{"rt":5323,"stimulus":"img/00752.png","slider_start":4,"response":3,"trial_type":"image-slider-response","trial_index":148,"time_elapsed":614190,"internal_node_id":"0.0-3.0-0.145","subject_id":"5f660626a9151c19b17ba3c8","study_id":"605e2a800ccfa0c8e820d869","session_id":"60623667f642b6d5cfd2ad10"},{"rt":2229,"stimulus":"img/00731.png","slider_start":4,"response":4,"trial_type":"image-slider-response","trial_index":149,"time_elapsed":616427,"internal_node_id":"0.0-3.0-0.146","subject_id":"5f660626a9151c19b17ba3c8","study_id":"605e2a800ccfa0c8e820d869","session_id":"60623667f642b6d5cfd2ad10"},{"rt":1783,"stimulus":"img/00563.png","slider_start":4,"response":4,"trial_type":"image-slider-response","trial_index":150,"time_elapsed":618219,"internal_node_id":"0.0-3.0-0.147","subject_id":"5f660626a9151c19b17ba3c8","study_id":"605e2a800ccfa0c8e820d869","session_id":"60623667f642b6d5cfd2ad10"},{"rt":8394,"stimulus":"img/00432.png","slider_start":4,"response":5,"trial_type":"image-slider-response","trial_index":151,"time_elapsed":626621,"internal_node_id":"0.0-3.0-0.148","subject_id":"5f660626a9151c19b17ba3c8","study_id":"605e2a800ccfa0c8e820d869","session_id":"60623667f642b6d5cfd2ad10"},{"rt":11743,"stimulus":"img/00549.png","slider_start":4,"response":4,"trial_type":"image-slider-response","trial_index":152,"time_elapsed":638371,"internal_node_id":"0.0-3.0-0.149","subject_id":"5f660626a9151c19b17ba3c8","study_id":"605e2a800ccfa0c8e820d869","session_id":"60623667f642b6d5cfd2ad10"},{"rt":5231,"stimulus":"img/00902.png","slider_start":4,"response":5,"trial_type":"image-slider-response","trial_index":153,"time_elapsed":643609,"internal_node_id":"0.0-3.0-0.150","subject_id":"5f660626a9151c19b17ba3c8","study_id":"605e2a800ccfa0c8e820d869","session_id":"60623667f642b6d5cfd2ad10"},{"rt":1475,"stimulus":"img/00015.png","slider_start":4,"response":4,"trial_type":"image-slider-response","trial_index":154,"time_elapsed":645091,"internal_node_id":"0.0-3.0-0.151","subject_id":"5f660626a9151c19b17ba3c8","study_id":"605e2a800ccfa0c8e820d869","session_id":"60623667f642b6d5cfd2ad10"},{"rt":2275,"stimulus":"img/00127.png","slider_start":4,"response":3,"trial_type":"image-slider-response","trial_index":155,"time_elapsed":647374,"internal_node_id":"0.0-3.0-0.152","subject_id":"5f660626a9151c19b17ba3c8","study_id":"605e2a800ccfa0c8e820d869","session_id":"60623667f642b6d5cfd2ad10"},{"rt":3075,"stimulus":"img/00082.png","slider_start":4,"response":5,"trial_type":"image-slider-response","trial_index":156,"time_elapsed":650457,"internal_node_id":"0.0-3.0-0.153","subject_id":"5f660626a9151c19b17ba3c8","study_id":"605e2a800ccfa0c8e820d869","session_id":"60623667f642b6d5cfd2ad10"},{"rt":2139,"stimulus":"img/00822.png","slider_start":4,"response":5,"trial_type":"image-slider-response","trial_index":157,"time_elapsed":652604,"internal_node_id":"0.0-3.0-0.154","subject_id":"5f660626a9151c19b17ba3c8","study_id":"605e2a800ccfa0c8e820d869","session_id":"60623667f642b6d5cfd2ad10"},{"rt":2870,"stimulus":"img/00570.png","slider_start":4,"response":6,"trial_type":"image-slider-response","trial_index":158,"time_elapsed":655482,"internal_node_id":"0.0-3.0-0.155","subject_id":"5f660626a9151c19b17ba3c8","study_id":"605e2a800ccfa0c8e820d869","session_id":"60623667f642b6d5cfd2ad10"},{"rt":2739,"stimulus":"img/00928.png","slider_start":4,"response":5,"trial_type":"image-slider-response","trial_index":159,"time_elapsed":658230,"internal_node_id":"0.0-3.0-0.156","subject_id":"5f660626a9151c19b17ba3c8","study_id":"605e2a800ccfa0c8e820d869","session_id":"60623667f642b6d5cfd2ad10"},{"rt":2487,"stimulus":"img/00456.png","slider_start":4,"response":3,"trial_type":"image-slider-response","trial_index":160,"time_elapsed":660723,"internal_node_id":"0.0-3.0-0.157","subject_id":"5f660626a9151c19b17ba3c8","study_id":"605e2a800ccfa0c8e820d869","session_id":"60623667f642b6d5cfd2ad10"},{"rt":1330,"stimulus":"img/00496.png","slider_start":4,"response":4,"trial_type":"image-slider-response","trial_index":161,"time_elapsed":662062,"internal_node_id":"0.0-3.0-0.158","subject_id":"5f660626a9151c19b17ba3c8","study_id":"605e2a800ccfa0c8e820d869","session_id":"60623667f642b6d5cfd2ad10"},{"rt":2714,"stimulus":"img/00768.png","slider_start":4,"response":5,"trial_type":"image-slider-response","trial_index":162,"time_elapsed":664782,"internal_node_id":"0.0-3.0-0.159","subject_id":"5f660626a9151c19b17ba3c8","study_id":"605e2a800ccfa0c8e820d869","session_id":"60623667f642b6d5cfd2ad10"},{"rt":3835,"stimulus":"img/00860.png","slider_start":4,"response":4,"trial_type":"image-slider-response","trial_index":163,"time_elapsed":668625,"internal_node_id":"0.0-3.0-0.160","subject_id":"5f660626a9151c19b17ba3c8","study_id":"605e2a800ccfa0c8e820d869","session_id":"60623667f642b6d5cfd2ad10"},{"rt":1048,"stimulus":"img/00991.png","slider_start":4,"response":4,"trial_type":"image-slider-response","trial_index":164,"time_elapsed":669683,"internal_node_id":"0.0-3.0-0.161","subject_id":"5f660626a9151c19b17ba3c8","study_id":"605e2a800ccfa0c8e820d869","session_id":"60623667f642b6d5cfd2ad10"},{"rt":7250,"stimulus":"img/00718.png","slider_start":4,"response":3,"trial_type":"image-slider-response","trial_index":165,"time_elapsed":676943,"internal_node_id":"0.0-3.0-0.162","subject_id":"5f660626a9151c19b17ba3c8","study_id":"605e2a800ccfa0c8e820d869","session_id":"60623667f642b6d5cfd2ad10"},{"rt":732,"stimulus":"img/00811.png","slider_start":4,"response":4,"trial_type":"image-slider-response","trial_index":166,"time_elapsed":677683,"internal_node_id":"0.0-3.0-0.163","subject_id":"5f660626a9151c19b17ba3c8","study_id":"605e2a800ccfa0c8e820d869","session_id":"60623667f642b6d5cfd2ad10"},{"rt":3363,"stimulus":"img/00612.png","slider_start":4,"response":3,"trial_type":"image-slider-response","trial_index":167,"time_elapsed":681054,"internal_node_id":"0.0-3.0-0.164","subject_id":"5f660626a9151c19b17ba3c8","study_id":"605e2a800ccfa0c8e820d869","session_id":"60623667f642b6d5cfd2ad10"},{"rt":3484,"stimulus":"img/00623.png","slider_start":4,"response":5,"trial_type":"image-slider-response","trial_index":168,"time_elapsed":684545,"internal_node_id":"0.0-3.0-0.165","subject_id":"5f660626a9151c19b17ba3c8","study_id":"605e2a800ccfa0c8e820d869","session_id":"60623667f642b6d5cfd2ad10"},{"rt":4236,"stimulus":"img/00545.png","slider_start":4,"response":3,"trial_type":"image-slider-response","trial_index":169,"time_elapsed":688789,"internal_node_id":"0.0-3.0-0.166","subject_id":"5f660626a9151c19b17ba3c8","study_id":"605e2a800ccfa0c8e820d869","session_id":"60623667f642b6d5cfd2ad10"},{"rt":3276,"stimulus":"img/00688.png","slider_start":4,"response":5,"trial_type":"image-slider-response","trial_index":170,"time_elapsed":692073,"internal_node_id":"0.0-3.0-0.167","subject_id":"5f660626a9151c19b17ba3c8","study_id":"605e2a800ccfa0c8e820d869","session_id":"60623667f642b6d5cfd2ad10"},{"rt":5106,"stimulus":"img/00967.png","slider_start":4,"response":3,"trial_type":"image-slider-response","trial_index":171,"time_elapsed":697188,"internal_node_id":"0.0-3.0-0.168","subject_id":"5f660626a9151c19b17ba3c8","study_id":"605e2a800ccfa0c8e820d869","session_id":"60623667f642b6d5cfd2ad10"},{"rt":2759,"stimulus":"img/00592.png","slider_start":4,"response":4,"trial_type":"image-slider-response","trial_index":172,"time_elapsed":699955,"internal_node_id":"0.0-3.0-0.169","subject_id":"5f660626a9151c19b17ba3c8","study_id":"605e2a800ccfa0c8e820d869","session_id":"60623667f642b6d5cfd2ad10"},{"rt":4079,"stimulus":"img/00447.png","slider_start":4,"response":5,"trial_type":"image-slider-response","trial_index":173,"time_elapsed":704041,"internal_node_id":"0.0-3.0-0.170","subject_id":"5f660626a9151c19b17ba3c8","study_id":"605e2a800ccfa0c8e820d869","session_id":"60623667f642b6d5cfd2ad10"},{"rt":6763,"stimulus":"img/00848.png","slider_start":4,"response":4,"trial_type":"image-slider-response","trial_index":174,"time_elapsed":710812,"internal_node_id":"0.0-3.0-0.171","subject_id":"5f660626a9151c19b17ba3c8","study_id":"605e2a800ccfa0c8e820d869","session_id":"60623667f642b6d5cfd2ad10"}]