[{"rt":2347.109999973327,"stimulus":"Welcome to the experiment. Press any key to begin.","response":"enter","trial_type":"html-keyboard-response","trial_index":0,"time_elapsed":2349,"internal_node_id":"0.0-0.0","subject_id":"5f2089b7d71bef17cd2d0509","study_id":"605e2a800ccfa0c8e820d869","session_id":"606220990a72bc545f0dde16"},{"rt":6430.530000012368,"stimulus":"\n        <p>In this experiment, a face will appear on-screen.</p><p> <strong>Rate the face on a 1 - 7 scale based on how attractive he / she is.</strong> </p>\n        </div>\n        <p>Press any key to begin.</p>\n      ","response":"1","trial_type":"html-keyboard-response","trial_index":1,"time_elapsed":8780,"internal_node_id":"0.0-1.0","subject_id":"5f2089b7d71bef17cd2d0509","study_id":"605e2a800ccfa0c8e820d869","session_id":"606220990a72bc545f0dde16"},{"success":true,"timeout":false,"failed_images":[],"failed_audio":[],"failed_video":[],"trial_type":"preload","trial_index":2,"time_elapsed":58875,"internal_node_id":"0.0-2.0","subject_id":"5f2089b7d71bef17cd2d0509","study_id":"605e2a800ccfa0c8e820d869","session_id":"606220990a72bc545f0dde16"},{"rt":9558.62500006333,"stimulus":"img/00130.png","slider_start":4,"response":5,"trial_type":"image-slider-response","trial_index":3,"time_elapsed":68441,"internal_node_id":"0.0-3.0-0.0","subject_id":"5f2089b7d71bef17cd2d0509","study_id":"605e2a800ccfa0c8e820d869","session_id":"606220990a72bc545f0dde16"},{"rt":2685.040000011213,"stimulus":"img/40.png","slider_start":4,"response":1,"trial_type":"image-slider-response","trial_index":4,"time_elapsed":71129,"internal_node_id":"0.0-3.0-0.1","subject_id":"5f2089b7d71bef17cd2d0509","study_id":"605e2a800ccfa0c8e820d869","session_id":"606220990a72bc545f0dde16"},{"rt":1821.9099999405444,"stimulus":"img/00768.png","slider_start":4,"response":4,"trial_type":"image-slider-response","trial_index":5,"time_elapsed":72953,"internal_node_id":"0.0-3.0-0.2","subject_id":"5f2089b7d71bef17cd2d0509","study_id":"605e2a800ccfa0c8e820d869","session_id":"606220990a72bc545f0dde16"},{"rt":2566.1950000794604,"stimulus":"img/00478.png","slider_start":4,"response":3,"trial_type":"image-slider-response","trial_index":6,"time_elapsed":75520,"internal_node_id":"0.0-3.0-0.3","subject_id":"5f2089b7d71bef17cd2d0509","study_id":"605e2a800ccfa0c8e820d869","session_id":"606220990a72bc545f0dde16"},{"rt":1998.1550000375137,"stimulus":"img/00525.png","slider_start":4,"response":3,"trial_type":"image-slider-response","trial_index":7,"time_elapsed":77520,"internal_node_id":"0.0-3.0-0.4","subject_id":"5f2089b7d71bef17cd2d0509","study_id":"605e2a800ccfa0c8e820d869","session_id":"606220990a72bc545f0dde16"},{"rt":1774.2650000145659,"stimulus":"img/00688.png","slider_start":4,"response":4,"trial_type":"image-slider-response","trial_index":8,"time_elapsed":79296,"internal_node_id":"0.0-3.0-0.5","subject_id":"5f2089b7d71bef17cd2d0509","study_id":"605e2a800ccfa0c8e820d869","session_id":"606220990a72bc545f0dde16"},{"rt":1934.1099999146536,"stimulus":"img/00428.png","slider_start":4,"response":4,"trial_type":"image-slider-response","trial_index":9,"time_elapsed":81232,"internal_node_id":"0.0-3.0-0.6","subject_id":"5f2089b7d71bef17cd2d0509","study_id":"605e2a800ccfa0c8e820d869","session_id":"606220990a72bc545f0dde16"},{"rt":2646.1750000016764,"stimulus":"img/00018.png","slider_start":4,"response":2,"trial_type":"image-slider-response","trial_index":10,"time_elapsed":83880,"internal_node_id":"0.0-3.0-0.7","subject_id":"5f2089b7d71bef17cd2d0509","study_id":"605e2a800ccfa0c8e820d869","session_id":"606220990a72bc545f0dde16"},{"rt":2342.060000053607,"stimulus":"img/00731.png","slider_start":4,"response":2,"trial_type":"image-slider-response","trial_index":11,"time_elapsed":86224,"internal_node_id":"0.0-3.0-0.8","subject_id":"5f2089b7d71bef17cd2d0509","study_id":"605e2a800ccfa0c8e820d869","session_id":"606220990a72bc545f0dde16"},{"rt":3214.200000045821,"stimulus":"img/00079.png","slider_start":4,"response":3,"trial_type":"image-slider-response","trial_index":12,"time_elapsed":89440,"internal_node_id":"0.0-3.0-0.9","subject_id":"5f2089b7d71bef17cd2d0509","study_id":"605e2a800ccfa0c8e820d869","session_id":"606220990a72bc545f0dde16"},{"rt":2357.7100000111386,"stimulus":"img/00464.png","slider_start":4,"response":1,"trial_type":"image-slider-response","trial_index":13,"time_elapsed":91800,"internal_node_id":"0.0-3.0-0.10","subject_id":"5f2089b7d71bef17cd2d0509","study_id":"605e2a800ccfa0c8e820d869","session_id":"606220990a72bc545f0dde16"},{"rt":2638.2849999936298,"stimulus":"img/00542.png","slider_start":4,"response":3,"trial_type":"image-slider-response","trial_index":14,"time_elapsed":94440,"internal_node_id":"0.0-3.0-0.11","subject_id":"5f2089b7d71bef17cd2d0509","study_id":"605e2a800ccfa0c8e820d869","session_id":"606220990a72bc545f0dde16"},{"rt":1598.8600000273436,"stimulus":"img/00902.png","slider_start":4,"response":4,"trial_type":"image-slider-response","trial_index":15,"time_elapsed":96041,"internal_node_id":"0.0-3.0-0.12","subject_id":"5f2089b7d71bef17cd2d0509","study_id":"605e2a800ccfa0c8e820d869","session_id":"606220990a72bc545f0dde16"},{"rt":1885.454999981448,"stimulus":"img/00048.png","slider_start":4,"response":2,"trial_type":"image-slider-response","trial_index":16,"time_elapsed":97928,"internal_node_id":"0.0-3.0-0.13","subject_id":"5f2089b7d71bef17cd2d0509","study_id":"605e2a800ccfa0c8e820d869","session_id":"606220990a72bc545f0dde16"},{"rt":1614.1549999592826,"stimulus":"img/00867.png","slider_start":4,"response":4,"trial_type":"image-slider-response","trial_index":17,"time_elapsed":99544,"internal_node_id":"0.0-3.0-0.14","subject_id":"5f2089b7d71bef17cd2d0509","study_id":"605e2a800ccfa0c8e820d869","session_id":"606220990a72bc545f0dde16"},{"rt":2878.359999973327,"stimulus":"img/00082.png","slider_start":4,"response":3,"trial_type":"image-slider-response","trial_index":18,"time_elapsed":102424,"internal_node_id":"0.0-3.0-0.15","subject_id":"5f2089b7d71bef17cd2d0509","study_id":"605e2a800ccfa0c8e820d869","session_id":"606220990a72bc545f0dde16"},{"rt":2453.9499999955297,"stimulus":"img/00029.png","slider_start":4,"response":2,"trial_type":"image-slider-response","trial_index":19,"time_elapsed":104880,"internal_node_id":"0.0-3.0-0.16","subject_id":"5f2089b7d71bef17cd2d0509","study_id":"605e2a800ccfa0c8e820d869","session_id":"606220990a72bc545f0dde16"},{"rt":2102.180000045337,"stimulus":"img/00801.png","slider_start":4,"response":1,"trial_type":"image-slider-response","trial_index":20,"time_elapsed":106984,"internal_node_id":"0.0-3.0-0.17","subject_id":"5f2089b7d71bef17cd2d0509","study_id":"605e2a800ccfa0c8e820d869","session_id":"606220990a72bc545f0dde16"},{"rt":2054.0299999993294,"stimulus":"img/00406.png","slider_start":4,"response":2,"trial_type":"image-slider-response","trial_index":21,"time_elapsed":109040,"internal_node_id":"0.0-3.0-0.18","subject_id":"5f2089b7d71bef17cd2d0509","study_id":"605e2a800ccfa0c8e820d869","session_id":"606220990a72bc545f0dde16"},{"rt":1622.150000068359,"stimulus":"img/00418.png","slider_start":4,"response":4,"trial_type":"image-slider-response","trial_index":22,"time_elapsed":110664,"internal_node_id":"0.0-3.0-0.19","subject_id":"5f2089b7d71bef17cd2d0509","study_id":"605e2a800ccfa0c8e820d869","session_id":"606220990a72bc545f0dde16"},{"rt":1782.0649999193847,"stimulus":"img/00755.png","slider_start":4,"response":2,"trial_type":"image-slider-response","trial_index":23,"time_elapsed":112448,"internal_node_id":"0.0-3.0-0.20","subject_id":"5f2089b7d71bef17cd2d0509","study_id":"605e2a800ccfa0c8e820d869","session_id":"606220990a72bc545f0dde16"},{"rt":2118.2750000152737,"stimulus":"img/00860.png","slider_start":4,"response":3,"trial_type":"image-slider-response","trial_index":24,"time_elapsed":114568,"internal_node_id":"0.0-3.0-0.21","subject_id":"5f2089b7d71bef17cd2d0509","study_id":"605e2a800ccfa0c8e820d869","session_id":"606220990a72bc545f0dde16"},{"rt":2654.160000034608,"stimulus":"img/00982.png","slider_start":4,"response":2,"trial_type":"image-slider-response","trial_index":25,"time_elapsed":117224,"internal_node_id":"0.0-3.0-0.22","subject_id":"5f2089b7d71bef17cd2d0509","study_id":"605e2a800ccfa0c8e820d869","session_id":"606220990a72bc545f0dde16"},{"rt":2405.7150000007823,"stimulus":"img/00811.png","slider_start":4,"response":2,"trial_type":"image-slider-response","trial_index":26,"time_elapsed":119632,"internal_node_id":"0.0-3.0-0.23","subject_id":"5f2089b7d71bef17cd2d0509","study_id":"605e2a800ccfa0c8e820d869","session_id":"606220990a72bc545f0dde16"},{"rt":2278.290000045672,"stimulus":"img/00708.png","slider_start":4,"response":3,"trial_type":"image-slider-response","trial_index":27,"time_elapsed":121912,"internal_node_id":"0.0-3.0-0.24","subject_id":"5f2089b7d71bef17cd2d0509","study_id":"605e2a800ccfa0c8e820d869","session_id":"606220990a72bc545f0dde16"},{"rt":1814.2350000562146,"stimulus":"img/00483.png","slider_start":4,"response":2,"trial_type":"image-slider-response","trial_index":28,"time_elapsed":123728,"internal_node_id":"0.0-3.0-0.25","subject_id":"5f2089b7d71bef17cd2d0509","study_id":"605e2a800ccfa0c8e820d869","session_id":"606220990a72bc545f0dde16"},{"rt":2222.2850000252947,"stimulus":"img/00413.png","slider_start":4,"response":3,"trial_type":"image-slider-response","trial_index":29,"time_elapsed":125952,"internal_node_id":"0.0-3.0-0.26","subject_id":"5f2089b7d71bef17cd2d0509","study_id":"605e2a800ccfa0c8e820d869","session_id":"606220990a72bc545f0dde16"},{"rt":2214.259999920614,"stimulus":"img/00790.png","slider_start":4,"response":2,"trial_type":"image-slider-response","trial_index":30,"time_elapsed":128168,"internal_node_id":"0.0-3.0-0.27","subject_id":"5f2089b7d71bef17cd2d0509","study_id":"605e2a800ccfa0c8e820d869","session_id":"606220990a72bc545f0dde16"},{"rt":1630.0500000361353,"stimulus":"img/00415.png","slider_start":4,"response":4,"trial_type":"image-slider-response","trial_index":31,"time_elapsed":129800,"internal_node_id":"0.0-3.0-0.28","subject_id":"5f2089b7d71bef17cd2d0509","study_id":"605e2a800ccfa0c8e820d869","session_id":"606220990a72bc545f0dde16"},{"rt":2150.3400000510737,"stimulus":"img/00825.png","slider_start":4,"response":3,"trial_type":"image-slider-response","trial_index":32,"time_elapsed":131952,"internal_node_id":"0.0-3.0-0.29","subject_id":"5f2089b7d71bef17cd2d0509","study_id":"605e2a800ccfa0c8e820d869","session_id":"606220990a72bc545f0dde16"},{"rt":2574.2199999513105,"stimulus":"img/00998.png","slider_start":4,"response":1,"trial_type":"image-slider-response","trial_index":33,"time_elapsed":134528,"internal_node_id":"0.0-3.0-0.30","subject_id":"5f2089b7d71bef17cd2d0509","study_id":"605e2a800ccfa0c8e820d869","session_id":"606220990a72bc545f0dde16"},{"rt":1526.160000008531,"stimulus":"img/00785.png","slider_start":4,"response":4,"trial_type":"image-slider-response","trial_index":34,"time_elapsed":136056,"internal_node_id":"0.0-3.0-0.31","subject_id":"5f2089b7d71bef17cd2d0509","study_id":"605e2a800ccfa0c8e820d869","session_id":"606220990a72bc545f0dde16"},{"rt":2254.1049999417737,"stimulus":"img/00817.png","slider_start":4,"response":1,"trial_type":"image-slider-response","trial_index":35,"time_elapsed":138312,"internal_node_id":"0.0-3.0-0.32","subject_id":"5f2089b7d71bef17cd2d0509","study_id":"605e2a800ccfa0c8e820d869","session_id":"606220990a72bc545f0dde16"},{"rt":1886.185000068508,"stimulus":"img/00603.png","slider_start":4,"response":1,"trial_type":"image-slider-response","trial_index":36,"time_elapsed":140200,"internal_node_id":"0.0-3.0-0.33","subject_id":"5f2089b7d71bef17cd2d0509","study_id":"605e2a800ccfa0c8e820d869","session_id":"606220990a72bc545f0dde16"},{"rt":2454.174999962561,"stimulus":"img/00653.png","slider_start":4,"response":1,"trial_type":"image-slider-response","trial_index":37,"time_elapsed":142656,"internal_node_id":"0.0-3.0-0.34","subject_id":"5f2089b7d71bef17cd2d0509","study_id":"605e2a800ccfa0c8e820d869","session_id":"606220990a72bc545f0dde16"},{"rt":2078.1349999597296,"stimulus":"img/00822.png","slider_start":4,"response":2,"trial_type":"image-slider-response","trial_index":38,"time_elapsed":144736,"internal_node_id":"0.0-3.0-0.35","subject_id":"5f2089b7d71bef17cd2d0509","study_id":"605e2a800ccfa0c8e820d869","session_id":"606220990a72bc545f0dde16"},{"rt":1630.1400000229478,"stimulus":"img/00773.png","slider_start":4,"response":4,"trial_type":"image-slider-response","trial_index":39,"time_elapsed":146368,"internal_node_id":"0.0-3.0-0.36","subject_id":"5f2089b7d71bef17cd2d0509","study_id":"605e2a800ccfa0c8e820d869","session_id":"606220990a72bc545f0dde16"},{"rt":2046.239999937825,"stimulus":"img/00438.png","slider_start":4,"response":3,"trial_type":"image-slider-response","trial_index":40,"time_elapsed":148416,"internal_node_id":"0.0-3.0-0.37","subject_id":"5f2089b7d71bef17cd2d0509","study_id":"605e2a800ccfa0c8e820d869","session_id":"606220990a72bc545f0dde16"},{"rt":1750.1400000182912,"stimulus":"img/00689.png","slider_start":4,"response":4,"trial_type":"image-slider-response","trial_index":41,"time_elapsed":150168,"internal_node_id":"0.0-3.0-0.38","subject_id":"5f2089b7d71bef17cd2d0509","study_id":"605e2a800ccfa0c8e820d869","session_id":"606220990a72bc545f0dde16"},{"rt":2198.149999952875,"stimulus":"img/00122.png","slider_start":4,"response":5,"trial_type":"image-slider-response","trial_index":42,"time_elapsed":152367,"internal_node_id":"0.0-3.0-0.39","subject_id":"5f2089b7d71bef17cd2d0509","study_id":"605e2a800ccfa0c8e820d869","session_id":"606220990a72bc545f0dde16"},{"rt":2830.294999992475,"stimulus":"img/00761.png","slider_start":4,"response":5,"trial_type":"image-slider-response","trial_index":43,"time_elapsed":155200,"internal_node_id":"0.0-3.0-0.40","subject_id":"5f2089b7d71bef17cd2d0509","study_id":"605e2a800ccfa0c8e820d869","session_id":"606220990a72bc545f0dde16"},{"rt":3397.8099999949336,"stimulus":"img/00559.png","slider_start":4,"response":3,"trial_type":"image-slider-response","trial_index":44,"time_elapsed":158599,"internal_node_id":"0.0-3.0-0.41","subject_id":"5f2089b7d71bef17cd2d0509","study_id":"605e2a800ccfa0c8e820d869","session_id":"606220990a72bc545f0dde16"},{"rt":2382.259999983944,"stimulus":"img/00549.png","slider_start":4,"response":2,"trial_type":"image-slider-response","trial_index":45,"time_elapsed":160983,"internal_node_id":"0.0-3.0-0.42","subject_id":"5f2089b7d71bef17cd2d0509","study_id":"605e2a800ccfa0c8e820d869","session_id":"606220990a72bc545f0dde16"},{"rt":2685.719999950379,"stimulus":"img/00930.png","slider_start":4,"response":5,"trial_type":"image-slider-response","trial_index":46,"time_elapsed":163671,"internal_node_id":"0.0-3.0-0.43","subject_id":"5f2089b7d71bef17cd2d0509","study_id":"605e2a800ccfa0c8e820d869","session_id":"606220990a72bc545f0dde16"},{"rt":1894.4349999073893,"stimulus":"img/00489.png","slider_start":4,"response":3,"trial_type":"image-slider-response","trial_index":47,"time_elapsed":165568,"internal_node_id":"0.0-3.0-0.44","subject_id":"5f2089b7d71bef17cd2d0509","study_id":"605e2a800ccfa0c8e820d869","session_id":"606220990a72bc545f0dde16"},{"rt":2302.259999909438,"stimulus":"img/00995.png","slider_start":4,"response":3,"trial_type":"image-slider-response","trial_index":48,"time_elapsed":167872,"internal_node_id":"0.0-3.0-0.45","subject_id":"5f2089b7d71bef17cd2d0509","study_id":"605e2a800ccfa0c8e820d869","session_id":"606220990a72bc545f0dde16"},{"rt":2078.1699999934062,"stimulus":"img/00563.png","slider_start":4,"response":1,"trial_type":"image-slider-response","trial_index":49,"time_elapsed":169952,"internal_node_id":"0.0-3.0-0.46","subject_id":"5f2089b7d71bef17cd2d0509","study_id":"605e2a800ccfa0c8e820d869","session_id":"606220990a72bc545f0dde16"},{"rt":1854.2149999411777,"stimulus":"img/00841.png","slider_start":4,"response":2,"trial_type":"image-slider-response","trial_index":50,"time_elapsed":171808,"internal_node_id":"0.0-3.0-0.47","subject_id":"5f2089b7d71bef17cd2d0509","study_id":"605e2a800ccfa0c8e820d869","session_id":"606220990a72bc545f0dde16"},{"rt":1814.185000024736,"stimulus":"img/00879.png","slider_start":4,"response":4,"trial_type":"image-slider-response","trial_index":51,"time_elapsed":173624,"internal_node_id":"0.0-3.0-0.48","subject_id":"5f2089b7d71bef17cd2d0509","study_id":"605e2a800ccfa0c8e820d869","session_id":"606220990a72bc545f0dde16"},{"rt":1958.130000042729,"stimulus":"img/00989.png","slider_start":4,"response":5,"trial_type":"image-slider-response","trial_index":52,"time_elapsed":175584,"internal_node_id":"0.0-3.0-0.49","subject_id":"5f2089b7d71bef17cd2d0509","study_id":"605e2a800ccfa0c8e820d869","session_id":"606220990a72bc545f0dde16"},{"rt":2030.1650000037625,"stimulus":"img/00469.png","slider_start":4,"response":3,"trial_type":"image-slider-response","trial_index":53,"time_elapsed":177616,"internal_node_id":"0.0-3.0-0.50","subject_id":"5f2089b7d71bef17cd2d0509","study_id":"605e2a800ccfa0c8e820d869","session_id":"606220990a72bc545f0dde16"},{"rt":2678.1000000191852,"stimulus":"img/00956.png","slider_start":4,"response":2,"trial_type":"image-slider-response","trial_index":54,"time_elapsed":180296,"internal_node_id":"0.0-3.0-0.51","subject_id":"5f2089b7d71bef17cd2d0509","study_id":"605e2a800ccfa0c8e820d869","session_id":"606220990a72bc545f0dde16"},{"rt":2438.3600000292063,"stimulus":"img/00951.png","slider_start":4,"response":1,"trial_type":"image-slider-response","trial_index":55,"time_elapsed":182736,"internal_node_id":"0.0-3.0-0.52","subject_id":"5f2089b7d71bef17cd2d0509","study_id":"605e2a800ccfa0c8e820d869","session_id":"606220990a72bc545f0dde16"},{"rt":2374.36500005424,"stimulus":"img/00759.png","slider_start":4,"response":3,"trial_type":"image-slider-response","trial_index":56,"time_elapsed":185112,"internal_node_id":"0.0-3.0-0.53","subject_id":"5f2089b7d71bef17cd2d0509","study_id":"605e2a800ccfa0c8e820d869","session_id":"606220990a72bc545f0dde16"},{"rt":2381.3150000059977,"stimulus":"img/00545.png","slider_start":4,"response":1,"trial_type":"image-slider-response","trial_index":57,"time_elapsed":187495,"internal_node_id":"0.0-3.0-0.54","subject_id":"5f2089b7d71bef17cd2d0509","study_id":"605e2a800ccfa0c8e820d869","session_id":"606220990a72bc545f0dde16"},{"rt":2446.209999965504,"stimulus":"img/00437.png","slider_start":4,"response":1,"trial_type":"image-slider-response","trial_index":58,"time_elapsed":189943,"internal_node_id":"0.0-3.0-0.55","subject_id":"5f2089b7d71bef17cd2d0509","study_id":"605e2a800ccfa0c8e820d869","session_id":"606220990a72bc545f0dde16"},{"rt":1806.209999951534,"stimulus":"img/00810.png","slider_start":4,"response":2,"trial_type":"image-slider-response","trial_index":59,"time_elapsed":191751,"internal_node_id":"0.0-3.0-0.56","subject_id":"5f2089b7d71bef17cd2d0509","study_id":"605e2a800ccfa0c8e820d869","session_id":"606220990a72bc545f0dde16"},{"rt":2150.245000026189,"stimulus":"img/00504.png","slider_start":4,"response":3,"trial_type":"image-slider-response","trial_index":60,"time_elapsed":193903,"internal_node_id":"0.0-3.0-0.57","subject_id":"5f2089b7d71bef17cd2d0509","study_id":"605e2a800ccfa0c8e820d869","session_id":"606220990a72bc545f0dde16"},{"rt":1710.205000010319,"stimulus":"img/00581.png","slider_start":4,"response":2,"trial_type":"image-slider-response","trial_index":61,"time_elapsed":195615,"internal_node_id":"0.0-3.0-0.58","subject_id":"5f2089b7d71bef17cd2d0509","study_id":"605e2a800ccfa0c8e820d869","session_id":"606220990a72bc545f0dde16"},{"rt":1614.3699999665841,"stimulus":"img/00686.png","slider_start":4,"response":4,"trial_type":"image-slider-response","trial_index":62,"time_elapsed":197232,"internal_node_id":"0.0-3.0-0.59","subject_id":"5f2089b7d71bef17cd2d0509","study_id":"605e2a800ccfa0c8e820d869","session_id":"606220990a72bc545f0dde16"},{"rt":2749.9949999619275,"stimulus":"img/00926.png","slider_start":4,"response":4,"trial_type":"image-slider-response","trial_index":63,"time_elapsed":199983,"internal_node_id":"0.0-3.0-0.60","subject_id":"5f2089b7d71bef17cd2d0509","study_id":"605e2a800ccfa0c8e820d869","session_id":"606220990a72bc545f0dde16"},{"rt":3510.039999964647,"stimulus":"img/00793.png","slider_start":4,"response":3,"trial_type":"image-slider-response","trial_index":64,"time_elapsed":203495,"internal_node_id":"0.0-3.0-0.61","subject_id":"5f2089b7d71bef17cd2d0509","study_id":"605e2a800ccfa0c8e820d869","session_id":"606220990a72bc545f0dde16"},{"rt":1877.7600000612438,"stimulus":"img/00508.png","slider_start":4,"response":2,"trial_type":"image-slider-response","trial_index":65,"time_elapsed":205375,"internal_node_id":"0.0-3.0-0.62","subject_id":"5f2089b7d71bef17cd2d0509","study_id":"605e2a800ccfa0c8e820d869","session_id":"606220990a72bc545f0dde16"},{"rt":2030.2500000689179,"stimulus":"img/00105.png","slider_start":4,"response":2,"trial_type":"image-slider-response","trial_index":66,"time_elapsed":207407,"internal_node_id":"0.0-3.0-0.63","subject_id":"5f2089b7d71bef17cd2d0509","study_id":"605e2a800ccfa0c8e820d869","session_id":"606220990a72bc545f0dde16"},{"rt":2525.9450000012293,"stimulus":"img/00447.png","slider_start":4,"response":1,"trial_type":"image-slider-response","trial_index":67,"time_elapsed":209935,"internal_node_id":"0.0-3.0-0.64","subject_id":"5f2089b7d71bef17cd2d0509","study_id":"605e2a800ccfa0c8e820d869","session_id":"606220990a72bc545f0dde16"},{"rt":1918.5500000603497,"stimulus":"img/00799.png","slider_start":4,"response":3,"trial_type":"image-slider-response","trial_index":68,"time_elapsed":211856,"internal_node_id":"0.0-3.0-0.65","subject_id":"5f2089b7d71bef17cd2d0509","study_id":"605e2a800ccfa0c8e820d869","session_id":"606220990a72bc545f0dde16"},{"rt":2645.9100000793114,"stimulus":"img/00127.png","slider_start":4,"response":2,"trial_type":"image-slider-response","trial_index":69,"time_elapsed":214503,"internal_node_id":"0.0-3.0-0.66","subject_id":"5f2089b7d71bef17cd2d0509","study_id":"605e2a800ccfa0c8e820d869","session_id":"606220990a72bc545f0dde16"},{"rt":1869.914999930188,"stimulus":"img/00100.png","slider_start":4,"response":2,"trial_type":"image-slider-response","trial_index":70,"time_elapsed":216375,"internal_node_id":"0.0-3.0-0.67","subject_id":"5f2089b7d71bef17cd2d0509","study_id":"605e2a800ccfa0c8e820d869","session_id":"606220990a72bc545f0dde16"},{"rt":1758.380000013858,"stimulus":"img/00747.png","slider_start":4,"response":5,"trial_type":"image-slider-response","trial_index":71,"time_elapsed":218135,"internal_node_id":"0.0-3.0-0.68","subject_id":"5f2089b7d71bef17cd2d0509","study_id":"605e2a800ccfa0c8e820d869","session_id":"606220990a72bc545f0dde16"},{"rt":2646.115000010468,"stimulus":"img/00913.png","slider_start":4,"response":2,"trial_type":"image-slider-response","trial_index":72,"time_elapsed":220783,"internal_node_id":"0.0-3.0-0.69","subject_id":"5f2089b7d71bef17cd2d0509","study_id":"605e2a800ccfa0c8e820d869","session_id":"606220990a72bc545f0dde16"},{"rt":2718.1249998975545,"stimulus":"img/00780.png","slider_start":4,"response":2,"trial_type":"image-slider-response","trial_index":73,"time_elapsed":223503,"internal_node_id":"0.0-3.0-0.70","subject_id":"5f2089b7d71bef17cd2d0509","study_id":"605e2a800ccfa0c8e820d869","session_id":"606220990a72bc545f0dde16"},{"rt":2525.8499999763444,"stimulus":"img/00928.png","slider_start":4,"response":1,"trial_type":"image-slider-response","trial_index":74,"time_elapsed":226031,"internal_node_id":"0.0-3.0-0.71","subject_id":"5f2089b7d71bef17cd2d0509","study_id":"605e2a800ccfa0c8e820d869","session_id":"606220990a72bc545f0dde16"},{"rt":3270.134999998845,"stimulus":"img/00078.png","slider_start":4,"response":3,"trial_type":"image-slider-response","trial_index":75,"time_elapsed":229303,"internal_node_id":"0.0-3.0-0.72","subject_id":"5f2089b7d71bef17cd2d0509","study_id":"605e2a800ccfa0c8e820d869","session_id":"606220990a72bc545f0dde16"},{"rt":2685.9049999620765,"stimulus":"img/00742.png","slider_start":4,"response":5,"trial_type":"image-slider-response","trial_index":76,"time_elapsed":231991,"internal_node_id":"0.0-3.0-0.73","subject_id":"5f2089b7d71bef17cd2d0509","study_id":"605e2a800ccfa0c8e820d869","session_id":"606220990a72bc545f0dde16"},{"rt":6006.170000066049,"stimulus":"img/00404.png","slider_start":4,"response":2,"trial_type":"image-slider-response","trial_index":77,"time_elapsed":237999,"internal_node_id":"0.0-3.0-0.74","subject_id":"5f2089b7d71bef17cd2d0509","study_id":"605e2a800ccfa0c8e820d869","session_id":"606220990a72bc545f0dde16"},{"rt":1981.8349999841303,"stimulus":"img/00454.png","slider_start":4,"response":1,"trial_type":"image-slider-response","trial_index":78,"time_elapsed":239983,"internal_node_id":"0.0-3.0-0.75","subject_id":"5f2089b7d71bef17cd2d0509","study_id":"605e2a800ccfa0c8e820d869","session_id":"606220990a72bc545f0dde16"},{"rt":2245.990000083111,"stimulus":"img/00045.png","slider_start":4,"response":2,"trial_type":"image-slider-response","trial_index":79,"time_elapsed":242231,"internal_node_id":"0.0-3.0-0.76","subject_id":"5f2089b7d71bef17cd2d0509","study_id":"605e2a800ccfa0c8e820d869","session_id":"606220990a72bc545f0dde16"},{"rt":2437.9799999296665,"stimulus":"img/00631.png","slider_start":4,"response":5,"trial_type":"image-slider-response","trial_index":80,"time_elapsed":244671,"internal_node_id":"0.0-3.0-0.77","subject_id":"5f2089b7d71bef17cd2d0509","study_id":"605e2a800ccfa0c8e820d869","session_id":"606220990a72bc545f0dde16"},{"rt":1718.3049999875948,"stimulus":"img/00898.png","slider_start":4,"response":1,"trial_type":"image-slider-response","trial_index":81,"time_elapsed":246391,"internal_node_id":"0.0-3.0-0.78","subject_id":"5f2089b7d71bef17cd2d0509","study_id":"605e2a800ccfa0c8e820d869","session_id":"606220990a72bc545f0dde16"},{"rt":2182.215000037104,"stimulus":"img/00401.png","slider_start":4,"response":3,"trial_type":"image-slider-response","trial_index":82,"time_elapsed":248575,"internal_node_id":"0.0-3.0-0.79","subject_id":"5f2089b7d71bef17cd2d0509","study_id":"605e2a800ccfa0c8e820d869","session_id":"606220990a72bc545f0dde16"},{"rt":1934.1750000603497,"stimulus":"img/00093.png","slider_start":4,"response":1,"trial_type":"image-slider-response","trial_index":83,"time_elapsed":250511,"internal_node_id":"0.0-3.0-0.80","subject_id":"5f2089b7d71bef17cd2d0509","study_id":"605e2a800ccfa0c8e820d869","session_id":"606220990a72bc545f0dde16"},{"rt":1878.275000024587,"stimulus":"img/00543.png","slider_start":4,"response":2,"trial_type":"image-slider-response","trial_index":84,"time_elapsed":252391,"internal_node_id":"0.0-3.0-0.81","subject_id":"5f2089b7d71bef17cd2d0509","study_id":"605e2a800ccfa0c8e820d869","session_id":"606220990a72bc545f0dde16"},{"rt":2910.079999943264,"stimulus":"img/00460.png","slider_start":4,"response":3,"trial_type":"image-slider-response","trial_index":85,"time_elapsed":255303,"internal_node_id":"0.0-3.0-0.82","subject_id":"5f2089b7d71bef17cd2d0509","study_id":"605e2a800ccfa0c8e820d869","session_id":"606220990a72bc545f0dde16"},{"rt":1861.8449999485165,"stimulus":"img/00587.png","slider_start":4,"response":5,"trial_type":"image-slider-response","trial_index":86,"time_elapsed":257167,"internal_node_id":"0.0-3.0-0.83","subject_id":"5f2089b7d71bef17cd2d0509","study_id":"605e2a800ccfa0c8e820d869","session_id":"606220990a72bc545f0dde16"},{"rt":2230.154999997467,"stimulus":"img/00797.png","slider_start":4,"response":2,"trial_type":"image-slider-response","trial_index":87,"time_elapsed":259399,"internal_node_id":"0.0-3.0-0.84","subject_id":"5f2089b7d71bef17cd2d0509","study_id":"605e2a800ccfa0c8e820d869","session_id":"606220990a72bc545f0dde16"},{"rt":1902.1649999776855,"stimulus":"img/00511.png","slider_start":4,"response":1,"trial_type":"image-slider-response","trial_index":88,"time_elapsed":261303,"internal_node_id":"0.0-3.0-0.85","subject_id":"5f2089b7d71bef17cd2d0509","study_id":"605e2a800ccfa0c8e820d869","session_id":"606220990a72bc545f0dde16"},{"rt":1902.1900000516325,"stimulus":"img/00833.png","slider_start":4,"response":1,"trial_type":"image-slider-response","trial_index":89,"time_elapsed":263207,"internal_node_id":"0.0-3.0-0.86","subject_id":"5f2089b7d71bef17cd2d0509","study_id":"605e2a800ccfa0c8e820d869","session_id":"606220990a72bc545f0dde16"},{"rt":2014.1800000565127,"stimulus":"img/00129.png","slider_start":4,"response":3,"trial_type":"image-slider-response","trial_index":90,"time_elapsed":265223,"internal_node_id":"0.0-3.0-0.87","subject_id":"5f2089b7d71bef17cd2d0509","study_id":"605e2a800ccfa0c8e820d869","session_id":"606220990a72bc545f0dde16"},{"rt":3509.9600000539795,"stimulus":"img/00016.png","slider_start":4,"response":2,"trial_type":"image-slider-response","trial_index":91,"time_elapsed":268734,"internal_node_id":"0.0-3.0-0.88","subject_id":"5f2089b7d71bef17cd2d0509","study_id":"605e2a800ccfa0c8e820d869","session_id":"606220990a72bc545f0dde16"},{"rt":1742.2100000549108,"stimulus":"img/00809.png","slider_start":4,"response":1,"trial_type":"image-slider-response","trial_index":92,"time_elapsed":270479,"internal_node_id":"0.0-3.0-0.89","subject_id":"5f2089b7d71bef17cd2d0509","study_id":"605e2a800ccfa0c8e820d869","session_id":"606220990a72bc545f0dde16"},{"rt":2262.11000001058,"stimulus":"img/00570.png","slider_start":4,"response":5,"trial_type":"image-slider-response","trial_index":93,"time_elapsed":272742,"internal_node_id":"0.0-3.0-0.90","subject_id":"5f2089b7d71bef17cd2d0509","study_id":"605e2a800ccfa0c8e820d869","session_id":"606220990a72bc545f0dde16"},{"rt":1590.1500000618398,"stimulus":"img/00023.png","slider_start":4,"response":4,"trial_type":"image-slider-response","trial_index":94,"time_elapsed":274334,"internal_node_id":"0.0-3.0-0.91","subject_id":"5f2089b7d71bef17cd2d0509","study_id":"605e2a800ccfa0c8e820d869","session_id":"606220990a72bc545f0dde16"},{"rt":1910.12499993667,"stimulus":"img/00126.png","slider_start":4,"response":1,"trial_type":"image-slider-response","trial_index":95,"time_elapsed":276246,"internal_node_id":"0.0-3.0-0.92","subject_id":"5f2089b7d71bef17cd2d0509","study_id":"605e2a800ccfa0c8e820d869","session_id":"606220990a72bc545f0dde16"},{"rt":2646.4949999935925,"stimulus":"img/00432.png","slider_start":4,"response":5,"trial_type":"image-slider-response","trial_index":96,"time_elapsed":278895,"internal_node_id":"0.0-3.0-0.93","subject_id":"5f2089b7d71bef17cd2d0509","study_id":"605e2a800ccfa0c8e820d869","session_id":"606220990a72bc545f0dde16"},{"rt":1549.8099999967963,"stimulus":"img/00101.png","slider_start":4,"response":2,"trial_type":"image-slider-response","trial_index":97,"time_elapsed":280446,"internal_node_id":"0.0-3.0-0.94","subject_id":"5f2089b7d71bef17cd2d0509","study_id":"605e2a800ccfa0c8e820d869","session_id":"606220990a72bc545f0dde16"},{"rt":1358.2150000147521,"stimulus":"img/00521.png","slider_start":4,"response":2,"trial_type":"image-slider-response","trial_index":98,"time_elapsed":281806,"internal_node_id":"0.0-3.0-0.95","subject_id":"5f2089b7d71bef17cd2d0509","study_id":"605e2a800ccfa0c8e820d869","session_id":"606220990a72bc545f0dde16"},{"rt":1662.140000029467,"stimulus":"img/00564.png","slider_start":4,"response":2,"trial_type":"image-slider-response","trial_index":99,"time_elapsed":283471,"internal_node_id":"0.0-3.0-0.96","subject_id":"5f2089b7d71bef17cd2d0509","study_id":"605e2a800ccfa0c8e820d869","session_id":"606220990a72bc545f0dde16"},{"rt":1429.8999999882653,"stimulus":"img/00896.png","slider_start":4,"response":3,"trial_type":"image-slider-response","trial_index":100,"time_elapsed":284902,"internal_node_id":"0.0-3.0-0.97","subject_id":"5f2089b7d71bef17cd2d0509","study_id":"605e2a800ccfa0c8e820d869","session_id":"606220990a72bc545f0dde16"},{"rt":2438.205000013113,"stimulus":"img/00481.png","slider_start":4,"response":1,"trial_type":"image-slider-response","trial_index":101,"time_elapsed":287343,"internal_node_id":"0.0-3.0-0.98","subject_id":"5f2089b7d71bef17cd2d0509","study_id":"605e2a800ccfa0c8e820d869","session_id":"606220990a72bc545f0dde16"},{"rt":5541.869999957271,"stimulus":"img/00405.png","slider_start":4,"response":1,"trial_type":"image-slider-response","trial_index":102,"time_elapsed":292887,"internal_node_id":"0.0-3.0-0.99","subject_id":"5f2089b7d71bef17cd2d0509","study_id":"605e2a800ccfa0c8e820d869","session_id":"606220990a72bc545f0dde16"},{"rt":3237.9199999850243,"stimulus":"img/00718.png","slider_start":4,"response":2,"trial_type":"image-slider-response","trial_index":103,"time_elapsed":296127,"internal_node_id":"0.0-3.0-0.100","subject_id":"5f2089b7d71bef17cd2d0509","study_id":"605e2a800ccfa0c8e820d869","session_id":"606220990a72bc545f0dde16"},{"rt":1589.8400000296533,"stimulus":"img/00002.png","slider_start":4,"response":4,"trial_type":"image-slider-response","trial_index":104,"time_elapsed":297719,"internal_node_id":"0.0-3.0-0.101","subject_id":"5f2089b7d71bef17cd2d0509","study_id":"605e2a800ccfa0c8e820d869","session_id":"606220990a72bc545f0dde16"},{"rt":1798.2600000686944,"stimulus":"img/00764.png","slider_start":4,"response":3,"trial_type":"image-slider-response","trial_index":105,"time_elapsed":299519,"internal_node_id":"0.0-3.0-0.102","subject_id":"5f2089b7d71bef17cd2d0509","study_id":"605e2a800ccfa0c8e820d869","session_id":"606220990a72bc545f0dde16"},{"rt":1526.164999930188,"stimulus":"img/00722.png","slider_start":4,"response":2,"trial_type":"image-slider-response","trial_index":106,"time_elapsed":301047,"internal_node_id":"0.0-3.0-0.103","subject_id":"5f2089b7d71bef17cd2d0509","study_id":"605e2a800ccfa0c8e820d869","session_id":"606220990a72bc545f0dde16"},{"rt":2814.200000022538,"stimulus":"img/00594.png","slider_start":4,"response":2,"trial_type":"image-slider-response","trial_index":107,"time_elapsed":303863,"internal_node_id":"0.0-3.0-0.104","subject_id":"5f2089b7d71bef17cd2d0509","study_id":"605e2a800ccfa0c8e820d869","session_id":"606220990a72bc545f0dde16"},{"rt":1742.14500002563,"stimulus":"img/00439.png","slider_start":4,"response":1,"trial_type":"image-slider-response","trial_index":108,"time_elapsed":305607,"internal_node_id":"0.0-3.0-0.105","subject_id":"5f2089b7d71bef17cd2d0509","study_id":"605e2a800ccfa0c8e820d869","session_id":"606220990a72bc545f0dde16"},{"rt":1510.0600000005215,"stimulus":"img/00592.png","slider_start":4,"response":4,"trial_type":"image-slider-response","trial_index":109,"time_elapsed":307119,"internal_node_id":"0.0-3.0-0.106","subject_id":"5f2089b7d71bef17cd2d0509","study_id":"605e2a800ccfa0c8e820d869","session_id":"606220990a72bc545f0dde16"},{"rt":2774.169999989681,"stimulus":"img/00015.png","slider_start":4,"response":5,"trial_type":"image-slider-response","trial_index":110,"time_elapsed":309895,"internal_node_id":"0.0-3.0-0.107","subject_id":"5f2089b7d71bef17cd2d0509","study_id":"605e2a800ccfa0c8e820d869","session_id":"606220990a72bc545f0dde16"},{"rt":1414.2200000351295,"stimulus":"img/00691.png","slider_start":4,"response":4,"trial_type":"image-slider-response","trial_index":111,"time_elapsed":311311,"internal_node_id":"0.0-3.0-0.108","subject_id":"5f2089b7d71bef17cd2d0509","study_id":"605e2a800ccfa0c8e820d869","session_id":"606220990a72bc545f0dde16"},{"rt":2278.0750000383705,"stimulus":"img/00779.png","slider_start":4,"response":1,"trial_type":"image-slider-response","trial_index":112,"time_elapsed":313591,"internal_node_id":"0.0-3.0-0.109","subject_id":"5f2089b7d71bef17cd2d0509","study_id":"605e2a800ccfa0c8e820d869","session_id":"606220990a72bc545f0dde16"},{"rt":1958.3400000119582,"stimulus":"img/00064.png","slider_start":4,"response":4,"trial_type":"image-slider-response","trial_index":113,"time_elapsed":315551,"internal_node_id":"0.0-3.0-0.110","subject_id":"5f2089b7d71bef17cd2d0509","study_id":"605e2a800ccfa0c8e820d869","session_id":"606220990a72bc545f0dde16"},{"rt":1894.1999999806285,"stimulus":"img/00114.png","slider_start":4,"response":2,"trial_type":"image-slider-response","trial_index":114,"time_elapsed":317447,"internal_node_id":"0.0-3.0-0.111","subject_id":"5f2089b7d71bef17cd2d0509","study_id":"605e2a800ccfa0c8e820d869","session_id":"606220990a72bc545f0dde16"},{"rt":1622.2449999768287,"stimulus":"img/00854.png","slider_start":4,"response":4,"trial_type":"image-slider-response","trial_index":115,"time_elapsed":319071,"internal_node_id":"0.0-3.0-0.112","subject_id":"5f2089b7d71bef17cd2d0509","study_id":"605e2a800ccfa0c8e820d869","session_id":"606220990a72bc545f0dde16"},{"rt":2646.1649999255314,"stimulus":"img/00853.png","slider_start":4,"response":3,"trial_type":"image-slider-response","trial_index":116,"time_elapsed":321719,"internal_node_id":"0.0-3.0-0.113","subject_id":"5f2089b7d71bef17cd2d0509","study_id":"605e2a800ccfa0c8e820d869","session_id":"606220990a72bc545f0dde16"},{"rt":1670.2149999327958,"stimulus":"img/00424.png","slider_start":4,"response":2,"trial_type":"image-slider-response","trial_index":117,"time_elapsed":323391,"internal_node_id":"0.0-3.0-0.114","subject_id":"5f2089b7d71bef17cd2d0509","study_id":"605e2a800ccfa0c8e820d869","session_id":"606220990a72bc545f0dde16"},{"rt":2454.0199999464676,"stimulus":"img/00561.png","slider_start":4,"response":1,"trial_type":"image-slider-response","trial_index":118,"time_elapsed":325847,"internal_node_id":"0.0-3.0-0.115","subject_id":"5f2089b7d71bef17cd2d0509","study_id":"605e2a800ccfa0c8e820d869","session_id":"606220990a72bc545f0dde16"},{"rt":2358.1499999854714,"stimulus":"img/00850.png","slider_start":4,"response":1,"trial_type":"image-slider-response","trial_index":119,"time_elapsed":328207,"internal_node_id":"0.0-3.0-0.116","subject_id":"5f2089b7d71bef17cd2d0509","study_id":"605e2a800ccfa0c8e820d869","session_id":"606220990a72bc545f0dde16"},{"rt":1838.1899999221787,"stimulus":"img/00077.png","slider_start":4,"response":1,"trial_type":"image-slider-response","trial_index":120,"time_elapsed":330047,"internal_node_id":"0.0-3.0-0.117","subject_id":"5f2089b7d71bef17cd2d0509","study_id":"605e2a800ccfa0c8e820d869","session_id":"606220990a72bc545f0dde16"},{"rt":2038.0550000118092,"stimulus":"img/00957.png","slider_start":4,"response":2,"trial_type":"image-slider-response","trial_index":121,"time_elapsed":332087,"internal_node_id":"0.0-3.0-0.118","subject_id":"5f2089b7d71bef17cd2d0509","study_id":"605e2a800ccfa0c8e820d869","session_id":"606220990a72bc545f0dde16"},{"rt":3070.9049999713898,"stimulus":"img/00903.png","slider_start":4,"response":5,"trial_type":"image-slider-response","trial_index":122,"time_elapsed":335159,"internal_node_id":"0.0-3.0-0.119","subject_id":"5f2089b7d71bef17cd2d0509","study_id":"605e2a800ccfa0c8e820d869","session_id":"606220990a72bc545f0dde16"},{"rt":1893.845000071451,"stimulus":"img/00040.png","slider_start":4,"response":2,"trial_type":"image-slider-response","trial_index":123,"time_elapsed":337064,"internal_node_id":"0.0-3.0-0.120","subject_id":"5f2089b7d71bef17cd2d0509","study_id":"605e2a800ccfa0c8e820d869","session_id":"606220990a72bc545f0dde16"},{"rt":1668.2550000259653,"stimulus":"img/00848.png","slider_start":4,"response":4,"trial_type":"image-slider-response","trial_index":124,"time_elapsed":338735,"internal_node_id":"0.0-3.0-0.121","subject_id":"5f2089b7d71bef17cd2d0509","study_id":"605e2a800ccfa0c8e820d869","session_id":"606220990a72bc545f0dde16"},{"rt":2094.110000063665,"stimulus":"img/00479.png","slider_start":4,"response":5,"trial_type":"image-slider-response","trial_index":125,"time_elapsed":340831,"internal_node_id":"0.0-3.0-0.122","subject_id":"5f2089b7d71bef17cd2d0509","study_id":"605e2a800ccfa0c8e820d869","session_id":"606220990a72bc545f0dde16"},{"rt":2670.185000053607,"stimulus":"img/00690.png","slider_start":4,"response":7,"trial_type":"image-slider-response","trial_index":126,"time_elapsed":343503,"internal_node_id":"0.0-3.0-0.123","subject_id":"5f2089b7d71bef17cd2d0509","study_id":"605e2a800ccfa0c8e820d869","session_id":"606220990a72bc545f0dde16"},{"rt":1757.949999999255,"stimulus":"img/00012.png","slider_start":4,"response":2,"trial_type":"image-slider-response","trial_index":127,"time_elapsed":345262,"internal_node_id":"0.0-3.0-0.124","subject_id":"5f2089b7d71bef17cd2d0509","study_id":"605e2a800ccfa0c8e820d869","session_id":"606220990a72bc545f0dde16"},{"rt":2270.2499999431893,"stimulus":"img/00576.png","slider_start":4,"response":6,"trial_type":"image-slider-response","trial_index":128,"time_elapsed":347534,"internal_node_id":"0.0-3.0-0.125","subject_id":"5f2089b7d71bef17cd2d0509","study_id":"605e2a800ccfa0c8e820d869","session_id":"606220990a72bc545f0dde16"},{"rt":1877.9699999140576,"stimulus":"img/00988.png","slider_start":4,"response":2,"trial_type":"image-slider-response","trial_index":129,"time_elapsed":349414,"internal_node_id":"0.0-3.0-0.126","subject_id":"5f2089b7d71bef17cd2d0509","study_id":"605e2a800ccfa0c8e820d869","session_id":"606220990a72bc545f0dde16"},{"rt":1686.045000096783,"stimulus":"img/00815.png","slider_start":4,"response":4,"trial_type":"image-slider-response","trial_index":130,"time_elapsed":351102,"internal_node_id":"0.0-3.0-0.127","subject_id":"5f2089b7d71bef17cd2d0509","study_id":"605e2a800ccfa0c8e820d869","session_id":"606220990a72bc545f0dde16"},{"rt":2742.1000000322238,"stimulus":"img/00052.png","slider_start":4,"response":1,"trial_type":"image-slider-response","trial_index":131,"time_elapsed":353846,"internal_node_id":"0.0-3.0-0.128","subject_id":"5f2089b7d71bef17cd2d0509","study_id":"605e2a800ccfa0c8e820d869","session_id":"606220990a72bc545f0dde16"},{"rt":2654.3349999701604,"stimulus":"img/00499.png","slider_start":4,"response":1,"trial_type":"image-slider-response","trial_index":132,"time_elapsed":356502,"internal_node_id":"0.0-3.0-0.129","subject_id":"5f2089b7d71bef17cd2d0509","study_id":"605e2a800ccfa0c8e820d869","session_id":"606220990a72bc545f0dde16"},{"rt":3030.24499991443,"stimulus":"img/00600.png","slider_start":4,"response":2,"trial_type":"image-slider-response","trial_index":133,"time_elapsed":359534,"internal_node_id":"0.0-3.0-0.130","subject_id":"5f2089b7d71bef17cd2d0509","study_id":"605e2a800ccfa0c8e820d869","session_id":"606220990a72bc545f0dde16"},{"rt":1877.72000010591,"stimulus":"img/00693.png","slider_start":4,"response":1,"trial_type":"image-slider-response","trial_index":134,"time_elapsed":361414,"internal_node_id":"0.0-3.0-0.131","subject_id":"5f2089b7d71bef17cd2d0509","study_id":"605e2a800ccfa0c8e820d869","session_id":"606220990a72bc545f0dde16"},{"rt":1446.2850000709295,"stimulus":"img/00623.png","slider_start":4,"response":4,"trial_type":"image-slider-response","trial_index":135,"time_elapsed":362862,"internal_node_id":"0.0-3.0-0.132","subject_id":"5f2089b7d71bef17cd2d0509","study_id":"605e2a800ccfa0c8e820d869","session_id":"606220990a72bc545f0dde16"},{"rt":2158.129999996163,"stimulus":"img/00991.png","slider_start":4,"response":2,"trial_type":"image-slider-response","trial_index":136,"time_elapsed":365022,"internal_node_id":"0.0-3.0-0.133","subject_id":"5f2089b7d71bef17cd2d0509","study_id":"605e2a800ccfa0c8e820d869","session_id":"606220990a72bc545f0dde16"},{"rt":2445.9150000475347,"stimulus":"img/00006.png","slider_start":4,"response":1,"trial_type":"image-slider-response","trial_index":137,"time_elapsed":367470,"internal_node_id":"0.0-3.0-0.134","subject_id":"5f2089b7d71bef17cd2d0509","study_id":"605e2a800ccfa0c8e820d869","session_id":"606220990a72bc545f0dde16"},{"rt":2886.0700000077486,"stimulus":"img/00115.png","slider_start":4,"response":1,"trial_type":"image-slider-response","trial_index":138,"time_elapsed":370358,"internal_node_id":"0.0-3.0-0.135","subject_id":"5f2089b7d71bef17cd2d0509","study_id":"605e2a800ccfa0c8e820d869","session_id":"606220990a72bc545f0dde16"},{"rt":1710.1150000235066,"stimulus":"img/00791.png","slider_start":4,"response":2,"trial_type":"image-slider-response","trial_index":139,"time_elapsed":372070,"internal_node_id":"0.0-3.0-0.136","subject_id":"5f2089b7d71bef17cd2d0509","study_id":"605e2a800ccfa0c8e820d869","session_id":"606220990a72bc545f0dde16"},{"rt":1374.3399999802932,"stimulus":"img/00456.png","slider_start":4,"response":2,"trial_type":"image-slider-response","trial_index":140,"time_elapsed":373446,"internal_node_id":"0.0-3.0-0.137","subject_id":"5f2089b7d71bef17cd2d0509","study_id":"605e2a800ccfa0c8e820d869","session_id":"606220990a72bc545f0dde16"},{"rt":1717.9550000000745,"stimulus":"img/00618.png","slider_start":4,"response":4,"trial_type":"image-slider-response","trial_index":141,"time_elapsed":375166,"internal_node_id":"0.0-3.0-0.138","subject_id":"5f2089b7d71bef17cd2d0509","study_id":"605e2a800ccfa0c8e820d869","session_id":"606220990a72bc545f0dde16"},{"rt":2021.7150000389665,"stimulus":"img/00041.png","slider_start":4,"response":5,"trial_type":"image-slider-response","trial_index":142,"time_elapsed":377190,"internal_node_id":"0.0-3.0-0.139","subject_id":"5f2089b7d71bef17cd2d0509","study_id":"605e2a800ccfa0c8e820d869","session_id":"606220990a72bc545f0dde16"},{"rt":2286.1299999058247,"stimulus":"img/00569.png","slider_start":4,"response":1,"trial_type":"image-slider-response","trial_index":143,"time_elapsed":379478,"internal_node_id":"0.0-3.0-0.140","subject_id":"5f2089b7d71bef17cd2d0509","study_id":"605e2a800ccfa0c8e820d869","session_id":"606220990a72bc545f0dde16"},{"rt":2798.1000000145286,"stimulus":"img/00760.png","slider_start":4,"response":1,"trial_type":"image-slider-response","trial_index":144,"time_elapsed":382278,"internal_node_id":"0.0-3.0-0.141","subject_id":"5f2089b7d71bef17cd2d0509","study_id":"605e2a800ccfa0c8e820d869","session_id":"606220990a72bc545f0dde16"},{"rt":2158.060000045225,"stimulus":"img/00752.png","slider_start":4,"response":2,"trial_type":"image-slider-response","trial_index":145,"time_elapsed":384438,"internal_node_id":"0.0-3.0-0.142","subject_id":"5f2089b7d71bef17cd2d0509","study_id":"605e2a800ccfa0c8e820d869","session_id":"606220990a72bc545f0dde16"},{"rt":1646.279999986291,"stimulus":"img/00466.png","slider_start":4,"response":1,"trial_type":"image-slider-response","trial_index":146,"time_elapsed":386086,"internal_node_id":"0.0-3.0-0.143","subject_id":"5f2089b7d71bef17cd2d0509","study_id":"605e2a800ccfa0c8e820d869","session_id":"606220990a72bc545f0dde16"},{"rt":2870.130000053905,"stimulus":"img/00973.png","slider_start":4,"response":2,"trial_type":"image-slider-response","trial_index":147,"time_elapsed":388958,"internal_node_id":"0.0-3.0-0.144","subject_id":"5f2089b7d71bef17cd2d0509","study_id":"605e2a800ccfa0c8e820d869","session_id":"606220990a72bc545f0dde16"},{"rt":1950.0499999849126,"stimulus":"img/00842.png","slider_start":4,"response":5,"trial_type":"image-slider-response","trial_index":148,"time_elapsed":390910,"internal_node_id":"0.0-3.0-0.145","subject_id":"5f2089b7d71bef17cd2d0509","study_id":"605e2a800ccfa0c8e820d869","session_id":"606220990a72bc545f0dde16"},{"rt":2398.090000031516,"stimulus":"img/00507.png","slider_start":4,"response":2,"trial_type":"image-slider-response","trial_index":149,"time_elapsed":393310,"internal_node_id":"0.0-3.0-0.146","subject_id":"5f2089b7d71bef17cd2d0509","study_id":"605e2a800ccfa0c8e820d869","session_id":"606220990a72bc545f0dde16"},{"rt":3173.880000016652,"stimulus":"img/00629.png","slider_start":4,"response":1,"trial_type":"image-slider-response","trial_index":150,"time_elapsed":396486,"internal_node_id":"0.0-3.0-0.147","subject_id":"5f2089b7d71bef17cd2d0509","study_id":"605e2a800ccfa0c8e820d869","session_id":"606220990a72bc545f0dde16"},{"rt":1974.1500000236556,"stimulus":"img/00503.png","slider_start":4,"response":3,"trial_type":"image-slider-response","trial_index":151,"time_elapsed":398462,"internal_node_id":"0.0-3.0-0.148","subject_id":"5f2089b7d71bef17cd2d0509","study_id":"605e2a800ccfa0c8e820d869","session_id":"606220990a72bc545f0dde16"},{"rt":2022.1299999393523,"stimulus":"img/00986.png","slider_start":4,"response":1,"trial_type":"image-slider-response","trial_index":152,"time_elapsed":400486,"internal_node_id":"0.0-3.0-0.149","subject_id":"5f2089b7d71bef17cd2d0509","study_id":"605e2a800ccfa0c8e820d869","session_id":"606220990a72bc545f0dde16"},{"rt":2766.230000066571,"stimulus":"img/00756.png","slider_start":4,"response":2,"trial_type":"image-slider-response","trial_index":153,"time_elapsed":403254,"internal_node_id":"0.0-3.0-0.150","subject_id":"5f2089b7d71bef17cd2d0509","study_id":"605e2a800ccfa0c8e820d869","session_id":"606220990a72bc545f0dde16"},{"rt":1693.7149999430403,"stimulus":"img/00789.png","slider_start":4,"response":1,"trial_type":"image-slider-response","trial_index":154,"time_elapsed":404950,"internal_node_id":"0.0-3.0-0.151","subject_id":"5f2089b7d71bef17cd2d0509","study_id":"605e2a800ccfa0c8e820d869","session_id":"606220990a72bc545f0dde16"},{"rt":3374.070000019856,"stimulus":"img/00042.png","slider_start":4,"response":2,"trial_type":"image-slider-response","trial_index":155,"time_elapsed":408326,"internal_node_id":"0.0-3.0-0.152","subject_id":"5f2089b7d71bef17cd2d0509","study_id":"605e2a800ccfa0c8e820d869","session_id":"606220990a72bc545f0dde16"},{"rt":1902.0699999528006,"stimulus":"img/00059.png","slider_start":4,"response":2,"trial_type":"image-slider-response","trial_index":156,"time_elapsed":410230,"internal_node_id":"0.0-3.0-0.153","subject_id":"5f2089b7d71bef17cd2d0509","study_id":"605e2a800ccfa0c8e820d869","session_id":"606220990a72bc545f0dde16"},{"rt":1574.350000009872,"stimulus":"img/00748.png","slider_start":4,"response":1,"trial_type":"image-slider-response","trial_index":157,"time_elapsed":411806,"internal_node_id":"0.0-3.0-0.154","subject_id":"5f2089b7d71bef17cd2d0509","study_id":"605e2a800ccfa0c8e820d869","session_id":"606220990a72bc545f0dde16"},{"rt":2197.9750000173226,"stimulus":"img/00522.png","slider_start":4,"response":5,"trial_type":"image-slider-response","trial_index":158,"time_elapsed":414006,"internal_node_id":"0.0-3.0-0.155","subject_id":"5f2089b7d71bef17cd2d0509","study_id":"605e2a800ccfa0c8e820d869","session_id":"606220990a72bc545f0dde16"},{"rt":1974.2750000441447,"stimulus":"img/00949.png","slider_start":4,"response":1,"trial_type":"image-slider-response","trial_index":159,"time_elapsed":415982,"internal_node_id":"0.0-3.0-0.156","subject_id":"5f2089b7d71bef17cd2d0509","study_id":"605e2a800ccfa0c8e820d869","session_id":"606220990a72bc545f0dde16"},{"rt":1774.2599999764934,"stimulus":"img/00878.png","slider_start":4,"response":1,"trial_type":"image-slider-response","trial_index":160,"time_elapsed":417758,"internal_node_id":"0.0-3.0-0.157","subject_id":"5f2089b7d71bef17cd2d0509","study_id":"605e2a800ccfa0c8e820d869","session_id":"606220990a72bc545f0dde16"},{"rt":1573.9250000333413,"stimulus":"img/00496.png","slider_start":4,"response":2,"trial_type":"image-slider-response","trial_index":161,"time_elapsed":419334,"internal_node_id":"0.0-3.0-0.158","subject_id":"5f2089b7d71bef17cd2d0509","study_id":"605e2a800ccfa0c8e820d869","session_id":"606220990a72bc545f0dde16"},{"rt":1726.2350000673905,"stimulus":"img/00744.png","slider_start":4,"response":2,"trial_type":"image-slider-response","trial_index":162,"time_elapsed":421062,"internal_node_id":"0.0-3.0-0.159","subject_id":"5f2089b7d71bef17cd2d0509","study_id":"605e2a800ccfa0c8e820d869","session_id":"606220990a72bc545f0dde16"},{"rt":1942.1199999051169,"stimulus":"img/00037.png","slider_start":4,"response":5,"trial_type":"image-slider-response","trial_index":163,"time_elapsed":423006,"internal_node_id":"0.0-3.0-0.160","subject_id":"5f2089b7d71bef17cd2d0509","study_id":"605e2a800ccfa0c8e820d869","session_id":"606220990a72bc545f0dde16"},{"rt":1854.0999999968335,"stimulus":"img/00427.png","slider_start":4,"response":6,"trial_type":"image-slider-response","trial_index":164,"time_elapsed":424862,"internal_node_id":"0.0-3.0-0.161","subject_id":"5f2089b7d71bef17cd2d0509","study_id":"605e2a800ccfa0c8e820d869","session_id":"606220990a72bc545f0dde16"},{"rt":1622.099999920465,"stimulus":"img/00554.png","slider_start":4,"response":1,"trial_type":"image-slider-response","trial_index":165,"time_elapsed":426486,"internal_node_id":"0.0-3.0-0.162","subject_id":"5f2089b7d71bef17cd2d0509","study_id":"605e2a800ccfa0c8e820d869","session_id":"606220990a72bc545f0dde16"},{"rt":2158.2600000547245,"stimulus":"img/00113.png","slider_start":4,"response":1,"trial_type":"image-slider-response","trial_index":166,"time_elapsed":428646,"internal_node_id":"0.0-3.0-0.163","subject_id":"5f2089b7d71bef17cd2d0509","study_id":"605e2a800ccfa0c8e820d869","session_id":"606220990a72bc545f0dde16"},{"rt":1814.6650000708178,"stimulus":"img/00967.png","slider_start":4,"response":2,"trial_type":"image-slider-response","trial_index":167,"time_elapsed":430463,"internal_node_id":"0.0-3.0-0.164","subject_id":"5f2089b7d71bef17cd2d0509","study_id":"605e2a800ccfa0c8e820d869","session_id":"606220990a72bc545f0dde16"},{"rt":4421.3699999963865,"stimulus":"img/00644.png","slider_start":4,"response":4,"trial_type":"image-slider-response","trial_index":168,"time_elapsed":434886,"internal_node_id":"0.0-3.0-0.165","subject_id":"5f2089b7d71bef17cd2d0509","study_id":"605e2a800ccfa0c8e820d869","session_id":"606220990a72bc545f0dde16"},{"rt":1614.2150000669062,"stimulus":"img/00055.png","slider_start":4,"response":5,"trial_type":"image-slider-response","trial_index":169,"time_elapsed":436502,"internal_node_id":"0.0-3.0-0.166","subject_id":"5f2089b7d71bef17cd2d0509","study_id":"605e2a800ccfa0c8e820d869","session_id":"606220990a72bc545f0dde16"},{"rt":2206.140000023879,"stimulus":"img/00612.png","slider_start":4,"response":2,"trial_type":"image-slider-response","trial_index":170,"time_elapsed":438710,"internal_node_id":"0.0-3.0-0.167","subject_id":"5f2089b7d71bef17cd2d0509","study_id":"605e2a800ccfa0c8e820d869","session_id":"606220990a72bc545f0dde16"},{"rt":1838.2200000341982,"stimulus":"img/00011.png","slider_start":4,"response":1,"trial_type":"image-slider-response","trial_index":171,"time_elapsed":440550,"internal_node_id":"0.0-3.0-0.168","subject_id":"5f2089b7d71bef17cd2d0509","study_id":"605e2a800ccfa0c8e820d869","session_id":"606220990a72bc545f0dde16"},{"rt":1382.075000088662,"stimulus":"img/00472.png","slider_start":4,"response":4,"trial_type":"image-slider-response","trial_index":172,"time_elapsed":441934,"internal_node_id":"0.0-3.0-0.169","subject_id":"5f2089b7d71bef17cd2d0509","study_id":"605e2a800ccfa0c8e820d869","session_id":"606220990a72bc545f0dde16"},{"rt":1854.3050000444055,"stimulus":"img/00462.png","slider_start":4,"response":2,"trial_type":"image-slider-response","trial_index":173,"time_elapsed":443790,"internal_node_id":"0.0-3.0-0.170","subject_id":"5f2089b7d71bef17cd2d0509","study_id":"605e2a800ccfa0c8e820d869","session_id":"606220990a72bc545f0dde16"},{"rt":2381.830000085756,"stimulus":"img/00440.png","slider_start":4,"response":1,"trial_type":"image-slider-response","trial_index":174,"time_elapsed":446174,"internal_node_id":"0.0-3.0-0.171","subject_id":"5f2089b7d71bef17cd2d0509","study_id":"605e2a800ccfa0c8e820d869","session_id":"606220990a72bc545f0dde16"}]