[{"rt":2924.7050000121817,"stimulus":"Welcome to the experiment. Press any key to begin.","response":" ","trial_type":"html-keyboard-response","trial_index":0,"time_elapsed":2928,"internal_node_id":"0.0-0.0","subject_id":"5ea689cf355ce20009d97c70","study_id":"605e2a800ccfa0c8e820d869","session_id":"60622095c339a1c518d4b93e"},{"rt":7298.59999998007,"stimulus":"\n        <p>In this experiment, a face will appear on-screen.</p><p> <strong>Rate the face on a 1 - 7 scale based on how attractive he / she is.</strong> </p>\n        </div>\n        <p>Press any key to begin.</p>\n      ","response":" ","trial_type":"html-keyboard-response","trial_index":1,"time_elapsed":10228,"internal_node_id":"0.0-1.0","subject_id":"5ea689cf355ce20009d97c70","study_id":"605e2a800ccfa0c8e820d869","session_id":"60622095c339a1c518d4b93e"},{"success":true,"timeout":false,"failed_images":[],"failed_audio":[],"failed_video":[],"trial_type":"preload","trial_index":2,"time_elapsed":64912,"internal_node_id":"0.0-2.0","subject_id":"5ea689cf355ce20009d97c70","study_id":"605e2a800ccfa0c8e820d869","session_id":"60622095c339a1c518d4b93e"},{"rt":21376.29000004381,"stimulus":"img/00879.png","slider_start":4,"response":5,"trial_type":"image-slider-response","trial_index":3,"time_elapsed":86305,"internal_node_id":"0.0-3.0-0.0","subject_id":"5ea689cf355ce20009d97c70","study_id":"605e2a800ccfa0c8e820d869","session_id":"60622095c339a1c518d4b93e"},{"rt":5643.569999956526,"stimulus":"img/00437.png","slider_start":4,"response":3,"trial_type":"image-slider-response","trial_index":4,"time_elapsed":91952,"internal_node_id":"0.0-3.0-0.1","subject_id":"5ea689cf355ce20009d97c70","study_id":"605e2a800ccfa0c8e820d869","session_id":"60622095c339a1c518d4b93e"},{"rt":13902.190000051633,"stimulus":"img/00122.png","slider_start":4,"response":6,"trial_type":"image-slider-response","trial_index":5,"time_elapsed":105856,"internal_node_id":"0.0-3.0-0.2","subject_id":"5ea689cf355ce20009d97c70","study_id":"605e2a800ccfa0c8e820d869","session_id":"60622095c339a1c518d4b93e"},{"rt":14794.104999979027,"stimulus":"img/00418.png","slider_start":4,"response":5,"trial_type":"image-slider-response","trial_index":6,"time_elapsed":120653,"internal_node_id":"0.0-3.0-0.3","subject_id":"5ea689cf355ce20009d97c70","study_id":"605e2a800ccfa0c8e820d869","session_id":"60622095c339a1c518d4b93e"},{"rt":10098.720000009052,"stimulus":"img/00481.png","slider_start":4,"response":2,"trial_type":"image-slider-response","trial_index":7,"time_elapsed":130754,"internal_node_id":"0.0-3.0-0.4","subject_id":"5ea689cf355ce20009d97c70","study_id":"605e2a800ccfa0c8e820d869","session_id":"60622095c339a1c518d4b93e"},{"rt":7880.000000004657,"stimulus":"img/00048.png","slider_start":4,"response":5,"trial_type":"image-slider-response","trial_index":8,"time_elapsed":138637,"internal_node_id":"0.0-3.0-0.5","subject_id":"5ea689cf355ce20009d97c70","study_id":"605e2a800ccfa0c8e820d869","session_id":"60622095c339a1c518d4b93e"},{"rt":5581.28000004217,"stimulus":"img/00018.png","slider_start":4,"response":7,"trial_type":"image-slider-response","trial_index":9,"time_elapsed":144220,"internal_node_id":"0.0-3.0-0.6","subject_id":"5ea689cf355ce20009d97c70","study_id":"605e2a800ccfa0c8e820d869","session_id":"60622095c339a1c518d4b93e"},{"rt":4304.879999952391,"stimulus":"img/00082.png","slider_start":4,"response":3,"trial_type":"image-slider-response","trial_index":10,"time_elapsed":148527,"internal_node_id":"0.0-3.0-0.7","subject_id":"5ea689cf355ce20009d97c70","study_id":"605e2a800ccfa0c8e820d869","session_id":"60622095c339a1c518d4b93e"},{"rt":11793.934999965131,"stimulus":"img/00545.png","slider_start":4,"response":5,"trial_type":"image-slider-response","trial_index":11,"time_elapsed":160324,"internal_node_id":"0.0-3.0-0.8","subject_id":"5ea689cf355ce20009d97c70","study_id":"605e2a800ccfa0c8e820d869","session_id":"60622095c339a1c518d4b93e"},{"rt":7132.744999951683,"stimulus":"img/00130.png","slider_start":4,"response":6,"trial_type":"image-slider-response","trial_index":12,"time_elapsed":167459,"internal_node_id":"0.0-3.0-0.9","subject_id":"5ea689cf355ce20009d97c70","study_id":"605e2a800ccfa0c8e820d869","session_id":"60622095c339a1c518d4b93e"},{"rt":6877.195000066422,"stimulus":"img/00653.png","slider_start":4,"response":4,"trial_type":"image-slider-response","trial_index":13,"time_elapsed":174339,"internal_node_id":"0.0-3.0-0.10","subject_id":"5ea689cf355ce20009d97c70","study_id":"605e2a800ccfa0c8e820d869","session_id":"60622095c339a1c518d4b93e"},{"rt":2686.280000023544,"stimulus":"img/00797.png","slider_start":4,"response":4,"trial_type":"image-slider-response","trial_index":14,"time_elapsed":177028,"internal_node_id":"0.0-3.0-0.11","subject_id":"5ea689cf355ce20009d97c70","study_id":"605e2a800ccfa0c8e820d869","session_id":"60622095c339a1c518d4b93e"},{"rt":2928.9199999766424,"stimulus":"img/00559.png","slider_start":4,"response":4,"trial_type":"image-slider-response","trial_index":15,"time_elapsed":179959,"internal_node_id":"0.0-3.0-0.12","subject_id":"5ea689cf355ce20009d97c70","study_id":"605e2a800ccfa0c8e820d869","session_id":"60622095c339a1c518d4b93e"},{"rt":4607.360000023618,"stimulus":"img/00988.png","slider_start":4,"response":3,"trial_type":"image-slider-response","trial_index":16,"time_elapsed":184569,"internal_node_id":"0.0-3.0-0.13","subject_id":"5ea689cf355ce20009d97c70","study_id":"605e2a800ccfa0c8e820d869","session_id":"60622095c339a1c518d4b93e"},{"rt":6215.334999957122,"stimulus":"img/00761.png","slider_start":4,"response":2,"trial_type":"image-slider-response","trial_index":17,"time_elapsed":190787,"internal_node_id":"0.0-3.0-0.14","subject_id":"5ea689cf355ce20009d97c70","study_id":"605e2a800ccfa0c8e820d869","session_id":"60622095c339a1c518d4b93e"},{"rt":13058.164999936707,"stimulus":"img/00077.png","slider_start":4,"response":4,"trial_type":"image-slider-response","trial_index":18,"time_elapsed":203848,"internal_node_id":"0.0-3.0-0.15","subject_id":"5ea689cf355ce20009d97c70","study_id":"605e2a800ccfa0c8e820d869","session_id":"60622095c339a1c518d4b93e"},{"rt":4789.199999999255,"stimulus":"img/00860.png","slider_start":4,"response":5,"trial_type":"image-slider-response","trial_index":19,"time_elapsed":208639,"internal_node_id":"0.0-3.0-0.16","subject_id":"5ea689cf355ce20009d97c70","study_id":"605e2a800ccfa0c8e820d869","session_id":"60622095c339a1c518d4b93e"},{"rt":4824.200000031851,"stimulus":"img/00045.png","slider_start":4,"response":5,"trial_type":"image-slider-response","trial_index":20,"time_elapsed":213466,"internal_node_id":"0.0-3.0-0.17","subject_id":"5ea689cf355ce20009d97c70","study_id":"605e2a800ccfa0c8e820d869","session_id":"60622095c339a1c518d4b93e"},{"rt":5401.745000039227,"stimulus":"img/00127.png","slider_start":4,"response":4,"trial_type":"image-slider-response","trial_index":21,"time_elapsed":218871,"internal_node_id":"0.0-3.0-0.18","subject_id":"5ea689cf355ce20009d97c70","study_id":"605e2a800ccfa0c8e820d869","session_id":"60622095c339a1c518d4b93e"},{"rt":5452.655000030063,"stimulus":"img/00507.png","slider_start":4,"response":4,"trial_type":"image-slider-response","trial_index":22,"time_elapsed":224327,"internal_node_id":"0.0-3.0-0.19","subject_id":"5ea689cf355ce20009d97c70","study_id":"605e2a800ccfa0c8e820d869","session_id":"60622095c339a1c518d4b93e"},{"rt":2247.5099998991936,"stimulus":"img/00105.png","slider_start":4,"response":4,"trial_type":"image-slider-response","trial_index":23,"time_elapsed":226577,"internal_node_id":"0.0-3.0-0.20","subject_id":"5ea689cf355ce20009d97c70","study_id":"605e2a800ccfa0c8e820d869","session_id":"60622095c339a1c518d4b93e"},{"rt":1331.969999941066,"stimulus":"img/00466.png","slider_start":4,"response":4,"trial_type":"image-slider-response","trial_index":24,"time_elapsed":227911,"internal_node_id":"0.0-3.0-0.21","subject_id":"5ea689cf355ce20009d97c70","study_id":"605e2a800ccfa0c8e820d869","session_id":"60622095c339a1c518d4b93e"},{"rt":3484.8650000058115,"stimulus":"img/00570.png","slider_start":4,"response":5,"trial_type":"image-slider-response","trial_index":25,"time_elapsed":231398,"internal_node_id":"0.0-3.0-0.22","subject_id":"5ea689cf355ce20009d97c70","study_id":"605e2a800ccfa0c8e820d869","session_id":"60622095c339a1c518d4b93e"},{"rt":4944.840000011027,"stimulus":"img/00801.png","slider_start":4,"response":2,"trial_type":"image-slider-response","trial_index":26,"time_elapsed":236345,"internal_node_id":"0.0-3.0-0.23","subject_id":"5ea689cf355ce20009d97c70","study_id":"605e2a800ccfa0c8e820d869","session_id":"60622095c339a1c518d4b93e"},{"rt":5827.365000033751,"stimulus":"img/00718.png","slider_start":4,"response":5,"trial_type":"image-slider-response","trial_index":27,"time_elapsed":242176,"internal_node_id":"0.0-3.0-0.24","subject_id":"5ea689cf355ce20009d97c70","study_id":"605e2a800ccfa0c8e820d869","session_id":"60622095c339a1c518d4b93e"},{"rt":7575.4099999321625,"stimulus":"img/00789.png","slider_start":4,"response":5,"trial_type":"image-slider-response","trial_index":28,"time_elapsed":249754,"internal_node_id":"0.0-3.0-0.25","subject_id":"5ea689cf355ce20009d97c70","study_id":"605e2a800ccfa0c8e820d869","session_id":"60622095c339a1c518d4b93e"},{"rt":6043.145000003278,"stimulus":"img/00612.png","slider_start":4,"response":1,"trial_type":"image-slider-response","trial_index":29,"time_elapsed":255800,"internal_node_id":"0.0-3.0-0.26","subject_id":"5ea689cf355ce20009d97c70","study_id":"605e2a800ccfa0c8e820d869","session_id":"60622095c339a1c518d4b93e"},{"rt":5392.360000056215,"stimulus":"img/00496.png","slider_start":4,"response":5,"trial_type":"image-slider-response","trial_index":30,"time_elapsed":261194,"internal_node_id":"0.0-3.0-0.27","subject_id":"5ea689cf355ce20009d97c70","study_id":"605e2a800ccfa0c8e820d869","session_id":"60622095c339a1c518d4b93e"},{"rt":8045.230000047013,"stimulus":"img/00817.png","slider_start":4,"response":3,"trial_type":"image-slider-response","trial_index":31,"time_elapsed":269245,"internal_node_id":"0.0-3.0-0.28","subject_id":"5ea689cf355ce20009d97c70","study_id":"605e2a800ccfa0c8e820d869","session_id":"60622095c339a1c518d4b93e"},{"rt":5075.395000050776,"stimulus":"img/00747.png","slider_start":4,"response":3,"trial_type":"image-slider-response","trial_index":32,"time_elapsed":274324,"internal_node_id":"0.0-3.0-0.29","subject_id":"5ea689cf355ce20009d97c70","study_id":"605e2a800ccfa0c8e820d869","session_id":"60622095c339a1c518d4b93e"},{"rt":6773.864999995567,"stimulus":"img/00693.png","slider_start":4,"response":5,"trial_type":"image-slider-response","trial_index":33,"time_elapsed":281100,"internal_node_id":"0.0-3.0-0.30","subject_id":"5ea689cf355ce20009d97c70","study_id":"605e2a800ccfa0c8e820d869","session_id":"60622095c339a1c518d4b93e"},{"rt":5415.7999999588355,"stimulus":"img/00759.png","slider_start":4,"response":3,"trial_type":"image-slider-response","trial_index":34,"time_elapsed":286518,"internal_node_id":"0.0-3.0-0.31","subject_id":"5ea689cf355ce20009d97c70","study_id":"605e2a800ccfa0c8e820d869","session_id":"60622095c339a1c518d4b93e"},{"rt":3791.069999919273,"stimulus":"img/00748.png","slider_start":4,"response":3,"trial_type":"image-slider-response","trial_index":35,"time_elapsed":290312,"internal_node_id":"0.0-3.0-0.32","subject_id":"5ea689cf355ce20009d97c70","study_id":"605e2a800ccfa0c8e820d869","session_id":"60622095c339a1c518d4b93e"},{"rt":9444.780000019819,"stimulus":"img/00752.png","slider_start":4,"response":3,"trial_type":"image-slider-response","trial_index":36,"time_elapsed":299760,"internal_node_id":"0.0-3.0-0.33","subject_id":"5ea689cf355ce20009d97c70","study_id":"605e2a800ccfa0c8e820d869","session_id":"60622095c339a1c518d4b93e"},{"rt":5072.364999912679,"stimulus":"img/00853.png","slider_start":4,"response":5,"trial_type":"image-slider-response","trial_index":37,"time_elapsed":304835,"internal_node_id":"0.0-3.0-0.34","subject_id":"5ea689cf355ce20009d97c70","study_id":"605e2a800ccfa0c8e820d869","session_id":"60622095c339a1c518d4b93e"},{"rt":8756.21499994304,"stimulus":"img/00854.png","slider_start":4,"response":5,"trial_type":"image-slider-response","trial_index":38,"time_elapsed":313594,"internal_node_id":"0.0-3.0-0.35","subject_id":"5ea689cf355ce20009d97c70","study_id":"605e2a800ccfa0c8e820d869","session_id":"60622095c339a1c518d4b93e"},{"rt":7418.24499994982,"stimulus":"img/00428.png","slider_start":4,"response":2,"trial_type":"image-slider-response","trial_index":39,"time_elapsed":321014,"internal_node_id":"0.0-3.0-0.36","subject_id":"5ea689cf355ce20009d97c70","study_id":"605e2a800ccfa0c8e820d869","session_id":"60622095c339a1c518d4b93e"},{"rt":7521.989999921061,"stimulus":"img/00690.png","slider_start":4,"response":4,"trial_type":"image-slider-response","trial_index":40,"time_elapsed":328539,"internal_node_id":"0.0-3.0-0.37","subject_id":"5ea689cf355ce20009d97c70","study_id":"605e2a800ccfa0c8e820d869","session_id":"60622095c339a1c518d4b93e"},{"rt":7985.8750000130385,"stimulus":"img/00016.png","slider_start":4,"response":4,"trial_type":"image-slider-response","trial_index":41,"time_elapsed":336527,"internal_node_id":"0.0-3.0-0.38","subject_id":"5ea689cf355ce20009d97c70","study_id":"605e2a800ccfa0c8e820d869","session_id":"60622095c339a1c518d4b93e"},{"rt":4501.255000010133,"stimulus":"img/00569.png","slider_start":4,"response":6,"trial_type":"image-slider-response","trial_index":42,"time_elapsed":341031,"internal_node_id":"0.0-3.0-0.39","subject_id":"5ea689cf355ce20009d97c70","study_id":"605e2a800ccfa0c8e820d869","session_id":"60622095c339a1c518d4b93e"},{"rt":7901.609999942593,"stimulus":"img/00688.png","slider_start":4,"response":5,"trial_type":"image-slider-response","trial_index":43,"time_elapsed":348935,"internal_node_id":"0.0-3.0-0.40","subject_id":"5ea689cf355ce20009d97c70","study_id":"605e2a800ccfa0c8e820d869","session_id":"60622095c339a1c518d4b93e"},{"rt":8286.190000013448,"stimulus":"img/00413.png","slider_start":4,"response":2,"trial_type":"image-slider-response","trial_index":44,"time_elapsed":357224,"internal_node_id":"0.0-3.0-0.41","subject_id":"5ea689cf355ce20009d97c70","study_id":"605e2a800ccfa0c8e820d869","session_id":"60622095c339a1c518d4b93e"},{"rt":7158.574999892153,"stimulus":"img/00460.png","slider_start":4,"response":2,"trial_type":"image-slider-response","trial_index":45,"time_elapsed":364384,"internal_node_id":"0.0-3.0-0.42","subject_id":"5ea689cf355ce20009d97c70","study_id":"605e2a800ccfa0c8e820d869","session_id":"60622095c339a1c518d4b93e"},{"rt":14861.9249999756,"stimulus":"img/00576.png","slider_start":4,"response":5,"trial_type":"image-slider-response","trial_index":46,"time_elapsed":379248,"internal_node_id":"0.0-3.0-0.43","subject_id":"5ea689cf355ce20009d97c70","study_id":"605e2a800ccfa0c8e820d869","session_id":"60622095c339a1c518d4b93e"},{"rt":3981.660000048578,"stimulus":"img/00432.png","slider_start":4,"response":7,"trial_type":"image-slider-response","trial_index":47,"time_elapsed":383232,"internal_node_id":"0.0-3.0-0.44","subject_id":"5ea689cf355ce20009d97c70","study_id":"605e2a800ccfa0c8e820d869","session_id":"60622095c339a1c518d4b93e"},{"rt":3253.3399999374524,"stimulus":"img/00549.png","slider_start":4,"response":5,"trial_type":"image-slider-response","trial_index":48,"time_elapsed":386488,"internal_node_id":"0.0-3.0-0.45","subject_id":"5ea689cf355ce20009d97c70","study_id":"605e2a800ccfa0c8e820d869","session_id":"60622095c339a1c518d4b93e"},{"rt":3557.825000025332,"stimulus":"img/00896.png","slider_start":4,"response":3,"trial_type":"image-slider-response","trial_index":49,"time_elapsed":390048,"internal_node_id":"0.0-3.0-0.46","subject_id":"5ea689cf355ce20009d97c70","study_id":"605e2a800ccfa0c8e820d869","session_id":"60622095c339a1c518d4b93e"},{"rt":2693.260000087321,"stimulus":"img/00708.png","slider_start":4,"response":4,"trial_type":"image-slider-response","trial_index":50,"time_elapsed":392744,"internal_node_id":"0.0-3.0-0.47","subject_id":"5ea689cf355ce20009d97c70","study_id":"605e2a800ccfa0c8e820d869","session_id":"60622095c339a1c518d4b93e"},{"rt":3567.259999923408,"stimulus":"img/00982.png","slider_start":4,"response":4,"trial_type":"image-slider-response","trial_index":51,"time_elapsed":396313,"internal_node_id":"0.0-3.0-0.48","subject_id":"5ea689cf355ce20009d97c70","study_id":"605e2a800ccfa0c8e820d869","session_id":"60622095c339a1c518d4b93e"},{"rt":3653.779999935068,"stimulus":"img/00686.png","slider_start":4,"response":5,"trial_type":"image-slider-response","trial_index":52,"time_elapsed":399969,"internal_node_id":"0.0-3.0-0.49","subject_id":"5ea689cf355ce20009d97c70","study_id":"605e2a800ccfa0c8e820d869","session_id":"60622095c339a1c518d4b93e"},{"rt":7414.09500001464,"stimulus":"img/00521.png","slider_start":4,"response":3,"trial_type":"image-slider-response","trial_index":53,"time_elapsed":407386,"internal_node_id":"0.0-3.0-0.50","subject_id":"5ea689cf355ce20009d97c70","study_id":"605e2a800ccfa0c8e820d869","session_id":"60622095c339a1c518d4b93e"},{"rt":10797.30999993626,"stimulus":"img/00998.png","slider_start":4,"response":5,"trial_type":"image-slider-response","trial_index":54,"time_elapsed":418185,"internal_node_id":"0.0-3.0-0.51","subject_id":"5ea689cf355ce20009d97c70","study_id":"605e2a800ccfa0c8e820d869","session_id":"60622095c339a1c518d4b93e"},{"rt":5878.179999999702,"stimulus":"img/00760.png","slider_start":4,"response":4,"trial_type":"image-slider-response","trial_index":55,"time_elapsed":424066,"internal_node_id":"0.0-3.0-0.52","subject_id":"5ea689cf355ce20009d97c70","study_id":"605e2a800ccfa0c8e820d869","session_id":"60622095c339a1c518d4b93e"},{"rt":6613.16499998793,"stimulus":"img/00114.png","slider_start":4,"response":3,"trial_type":"image-slider-response","trial_index":56,"time_elapsed":430682,"internal_node_id":"0.0-3.0-0.53","subject_id":"5ea689cf355ce20009d97c70","study_id":"605e2a800ccfa0c8e820d869","session_id":"60622095c339a1c518d4b93e"},{"rt":2885.009999969043,"stimulus":"img/00928.png","slider_start":4,"response":6,"trial_type":"image-slider-response","trial_index":57,"time_elapsed":433570,"internal_node_id":"0.0-3.0-0.54","subject_id":"5ea689cf355ce20009d97c70","study_id":"605e2a800ccfa0c8e820d869","session_id":"60622095c339a1c518d4b93e"},{"rt":12614.05500001274,"stimulus":"img/00015.png","slider_start":4,"response":3,"trial_type":"image-slider-response","trial_index":58,"time_elapsed":446186,"internal_node_id":"0.0-3.0-0.55","subject_id":"5ea689cf355ce20009d97c70","study_id":"605e2a800ccfa0c8e820d869","session_id":"60622095c339a1c518d4b93e"},{"rt":3054.2200000490993,"stimulus":"img/00126.png","slider_start":4,"response":1,"trial_type":"image-slider-response","trial_index":59,"time_elapsed":449242,"internal_node_id":"0.0-3.0-0.56","subject_id":"5ea689cf355ce20009d97c70","study_id":"605e2a800ccfa0c8e820d869","session_id":"60622095c339a1c518d4b93e"},{"rt":5309.744999976829,"stimulus":"img/00902.png","slider_start":4,"response":6,"trial_type":"image-slider-response","trial_index":60,"time_elapsed":454555,"internal_node_id":"0.0-3.0-0.57","subject_id":"5ea689cf355ce20009d97c70","study_id":"605e2a800ccfa0c8e820d869","session_id":"60622095c339a1c518d4b93e"},{"rt":2757.5700000161305,"stimulus":"img/00780.png","slider_start":4,"response":4,"trial_type":"image-slider-response","trial_index":61,"time_elapsed":457315,"internal_node_id":"0.0-3.0-0.58","subject_id":"5ea689cf355ce20009d97c70","study_id":"605e2a800ccfa0c8e820d869","session_id":"60622095c339a1c518d4b93e"},{"rt":3014.2050000140443,"stimulus":"img/00623.png","slider_start":4,"response":5,"trial_type":"image-slider-response","trial_index":62,"time_elapsed":460331,"internal_node_id":"0.0-3.0-0.59","subject_id":"5ea689cf355ce20009d97c70","study_id":"605e2a800ccfa0c8e820d869","session_id":"60622095c339a1c518d4b93e"},{"rt":3628.885000012815,"stimulus":"img/00439.png","slider_start":4,"response":2,"trial_type":"image-slider-response","trial_index":63,"time_elapsed":463963,"internal_node_id":"0.0-3.0-0.60","subject_id":"5ea689cf355ce20009d97c70","study_id":"605e2a800ccfa0c8e820d869","session_id":"60622095c339a1c518d4b93e"},{"rt":3006.2599999364465,"stimulus":"img/00618.png","slider_start":4,"response":7,"trial_type":"image-slider-response","trial_index":64,"time_elapsed":466971,"internal_node_id":"0.0-3.0-0.61","subject_id":"5ea689cf355ce20009d97c70","study_id":"605e2a800ccfa0c8e820d869","session_id":"60622095c339a1c518d4b93e"},{"rt":4621.924999984913,"stimulus":"img/00101.png","slider_start":4,"response":3,"trial_type":"image-slider-response","trial_index":65,"time_elapsed":471595,"internal_node_id":"0.0-3.0-0.62","subject_id":"5ea689cf355ce20009d97c70","study_id":"605e2a800ccfa0c8e820d869","session_id":"60622095c339a1c518d4b93e"},{"rt":5197.7650000480935,"stimulus":"img/00867.png","slider_start":4,"response":3,"trial_type":"image-slider-response","trial_index":66,"time_elapsed":476795,"internal_node_id":"0.0-3.0-0.63","subject_id":"5ea689cf355ce20009d97c70","study_id":"605e2a800ccfa0c8e820d869","session_id":"60622095c339a1c518d4b93e"},{"rt":6781.99000004679,"stimulus":"img/00956.png","slider_start":4,"response":5,"trial_type":"image-slider-response","trial_index":67,"time_elapsed":483580,"internal_node_id":"0.0-3.0-0.64","subject_id":"5ea689cf355ce20009d97c70","study_id":"605e2a800ccfa0c8e820d869","session_id":"60622095c339a1c518d4b93e"},{"rt":6142.314999946393,"stimulus":"img/00542.png","slider_start":4,"response":1,"trial_type":"image-slider-response","trial_index":68,"time_elapsed":489725,"internal_node_id":"0.0-3.0-0.65","subject_id":"5ea689cf355ce20009d97c70","study_id":"605e2a800ccfa0c8e820d869","session_id":"60622095c339a1c518d4b93e"},{"rt":16966.399999917485,"stimulus":"img/00989.png","slider_start":4,"response":5,"trial_type":"image-slider-response","trial_index":69,"time_elapsed":506694,"internal_node_id":"0.0-3.0-0.66","subject_id":"5ea689cf355ce20009d97c70","study_id":"605e2a800ccfa0c8e820d869","session_id":"60622095c339a1c518d4b93e"},{"rt":6996.875000069849,"stimulus":"img/00447.png","slider_start":4,"response":2,"trial_type":"image-slider-response","trial_index":70,"time_elapsed":513693,"internal_node_id":"0.0-3.0-0.67","subject_id":"5ea689cf355ce20009d97c70","study_id":"605e2a800ccfa0c8e820d869","session_id":"60622095c339a1c518d4b93e"},{"rt":6982.275000074878,"stimulus":"img/00951.png","slider_start":4,"response":3,"trial_type":"image-slider-response","trial_index":71,"time_elapsed":520678,"internal_node_id":"0.0-3.0-0.68","subject_id":"5ea689cf355ce20009d97c70","study_id":"605e2a800ccfa0c8e820d869","session_id":"60622095c339a1c518d4b93e"},{"rt":4373.050000052899,"stimulus":"img/00850.png","slider_start":4,"response":4,"trial_type":"image-slider-response","trial_index":72,"time_elapsed":525054,"internal_node_id":"0.0-3.0-0.69","subject_id":"5ea689cf355ce20009d97c70","study_id":"605e2a800ccfa0c8e820d869","session_id":"60622095c339a1c518d4b93e"},{"rt":6837.219999986701,"stimulus":"img/00052.png","slider_start":4,"response":3,"trial_type":"image-slider-response","trial_index":73,"time_elapsed":531895,"internal_node_id":"0.0-3.0-0.70","subject_id":"5ea689cf355ce20009d97c70","study_id":"605e2a800ccfa0c8e820d869","session_id":"60622095c339a1c518d4b93e"},{"rt":5053.48000000231,"stimulus":"img/00799.png","slider_start":4,"response":3,"trial_type":"image-slider-response","trial_index":74,"time_elapsed":536951,"internal_node_id":"0.0-3.0-0.71","subject_id":"5ea689cf355ce20009d97c70","study_id":"605e2a800ccfa0c8e820d869","session_id":"60622095c339a1c518d4b93e"},{"rt":7405.685000005178,"stimulus":"img/00773.png","slider_start":4,"response":3,"trial_type":"image-slider-response","trial_index":75,"time_elapsed":544359,"internal_node_id":"0.0-3.0-0.72","subject_id":"5ea689cf355ce20009d97c70","study_id":"605e2a800ccfa0c8e820d869","session_id":"60622095c339a1c518d4b93e"},{"rt":9589.739999966696,"stimulus":"img/00913.png","slider_start":4,"response":3,"trial_type":"image-slider-response","trial_index":76,"time_elapsed":553951,"internal_node_id":"0.0-3.0-0.73","subject_id":"5ea689cf355ce20009d97c70","study_id":"605e2a800ccfa0c8e820d869","session_id":"60622095c339a1c518d4b93e"},{"rt":2701.1700000148267,"stimulus":"img/00810.png","slider_start":4,"response":4,"trial_type":"image-slider-response","trial_index":77,"time_elapsed":556655,"internal_node_id":"0.0-3.0-0.74","subject_id":"5ea689cf355ce20009d97c70","study_id":"605e2a800ccfa0c8e820d869","session_id":"60622095c339a1c518d4b93e"},{"rt":14246.904999949038,"stimulus":"img/00722.png","slider_start":4,"response":4,"trial_type":"image-slider-response","trial_index":78,"time_elapsed":570904,"internal_node_id":"0.0-3.0-0.75","subject_id":"5ea689cf355ce20009d97c70","study_id":"605e2a800ccfa0c8e820d869","session_id":"60622095c339a1c518d4b93e"},{"rt":3676.5550000127405,"stimulus":"img/00023.png","slider_start":4,"response":5,"trial_type":"image-slider-response","trial_index":79,"time_elapsed":574583,"internal_node_id":"0.0-3.0-0.76","subject_id":"5ea689cf355ce20009d97c70","study_id":"605e2a800ccfa0c8e820d869","session_id":"60622095c339a1c518d4b93e"},{"rt":4582.620000001043,"stimulus":"img/00454.png","slider_start":4,"response":5,"trial_type":"image-slider-response","trial_index":80,"time_elapsed":579168,"internal_node_id":"0.0-3.0-0.77","subject_id":"5ea689cf355ce20009d97c70","study_id":"605e2a800ccfa0c8e820d869","session_id":"60622095c339a1c518d4b93e"},{"rt":3005.765000008978,"stimulus":"img/00478.png","slider_start":4,"response":4,"trial_type":"image-slider-response","trial_index":81,"time_elapsed":582176,"internal_node_id":"0.0-3.0-0.78","subject_id":"5ea689cf355ce20009d97c70","study_id":"605e2a800ccfa0c8e820d869","session_id":"60622095c339a1c518d4b93e"},{"rt":5188.914999947883,"stimulus":"img/00078.png","slider_start":4,"response":4,"trial_type":"image-slider-response","trial_index":82,"time_elapsed":587367,"internal_node_id":"0.0-3.0-0.79","subject_id":"5ea689cf355ce20009d97c70","study_id":"605e2a800ccfa0c8e820d869","session_id":"60622095c339a1c518d4b93e"},{"rt":8022.989999968559,"stimulus":"img/00755.png","slider_start":4,"response":5,"trial_type":"image-slider-response","trial_index":83,"time_elapsed":595392,"internal_node_id":"0.0-3.0-0.80","subject_id":"5ea689cf355ce20009d97c70","study_id":"605e2a800ccfa0c8e820d869","session_id":"60622095c339a1c518d4b93e"},{"rt":9213.134999969043,"stimulus":"img/00006.png","slider_start":4,"response":3,"trial_type":"image-slider-response","trial_index":84,"time_elapsed":604608,"internal_node_id":"0.0-3.0-0.81","subject_id":"5ea689cf355ce20009d97c70","study_id":"605e2a800ccfa0c8e820d869","session_id":"60622095c339a1c518d4b93e"},{"rt":3845.1249999925494,"stimulus":"img/00731.png","slider_start":4,"response":3,"trial_type":"image-slider-response","trial_index":85,"time_elapsed":608456,"internal_node_id":"0.0-3.0-0.82","subject_id":"5ea689cf355ce20009d97c70","study_id":"605e2a800ccfa0c8e820d869","session_id":"60622095c339a1c518d4b93e"},{"rt":7173.13499993179,"stimulus":"img/00405.png","slider_start":4,"response":6,"trial_type":"image-slider-response","trial_index":86,"time_elapsed":615632,"internal_node_id":"0.0-3.0-0.83","subject_id":"5ea689cf355ce20009d97c70","study_id":"605e2a800ccfa0c8e820d869","session_id":"60622095c339a1c518d4b93e"},{"rt":7629.545000032522,"stimulus":"img/00581.png","slider_start":4,"response":4,"trial_type":"image-slider-response","trial_index":87,"time_elapsed":623264,"internal_node_id":"0.0-3.0-0.84","subject_id":"5ea689cf355ce20009d97c70","study_id":"605e2a800ccfa0c8e820d869","session_id":"60622095c339a1c518d4b93e"},{"rt":3694.234999944456,"stimulus":"img/00967.png","slider_start":4,"response":3,"trial_type":"image-slider-response","trial_index":88,"time_elapsed":626960,"internal_node_id":"0.0-3.0-0.85","subject_id":"5ea689cf355ce20009d97c70","study_id":"605e2a800ccfa0c8e820d869","session_id":"60622095c339a1c518d4b93e"},{"rt":6094.075000029989,"stimulus":"img/00926.png","slider_start":4,"response":3,"trial_type":"image-slider-response","trial_index":89,"time_elapsed":633057,"internal_node_id":"0.0-3.0-0.86","subject_id":"5ea689cf355ce20009d97c70","study_id":"605e2a800ccfa0c8e820d869","session_id":"60622095c339a1c518d4b93e"},{"rt":3357.4550000485033,"stimulus":"img/00037.png","slider_start":4,"response":5,"trial_type":"image-slider-response","trial_index":90,"time_elapsed":636417,"internal_node_id":"0.0-3.0-0.87","subject_id":"5ea689cf355ce20009d97c70","study_id":"605e2a800ccfa0c8e820d869","session_id":"60622095c339a1c518d4b93e"},{"rt":5069.38000000082,"stimulus":"img/00592.png","slider_start":4,"response":6,"trial_type":"image-slider-response","trial_index":91,"time_elapsed":641489,"internal_node_id":"0.0-3.0-0.88","subject_id":"5ea689cf355ce20009d97c70","study_id":"605e2a800ccfa0c8e820d869","session_id":"60622095c339a1c518d4b93e"},{"rt":6029.304999974556,"stimulus":"img/00415.png","slider_start":4,"response":4,"trial_type":"image-slider-response","trial_index":92,"time_elapsed":647521,"internal_node_id":"0.0-3.0-0.89","subject_id":"5ea689cf355ce20009d97c70","study_id":"605e2a800ccfa0c8e820d869","session_id":"60622095c339a1c518d4b93e"},{"rt":6526.280000107363,"stimulus":"img/00462.png","slider_start":4,"response":6,"trial_type":"image-slider-response","trial_index":93,"time_elapsed":654050,"internal_node_id":"0.0-3.0-0.90","subject_id":"5ea689cf355ce20009d97c70","study_id":"605e2a800ccfa0c8e820d869","session_id":"60622095c339a1c518d4b93e"},{"rt":6637.1349999681115,"stimulus":"img/00785.png","slider_start":4,"response":5,"trial_type":"image-slider-response","trial_index":94,"time_elapsed":660691,"internal_node_id":"0.0-3.0-0.91","subject_id":"5ea689cf355ce20009d97c70","study_id":"605e2a800ccfa0c8e820d869","session_id":"60622095c339a1c518d4b93e"},{"rt":5180.984999984503,"stimulus":"img/00768.png","slider_start":4,"response":5,"trial_type":"image-slider-response","trial_index":95,"time_elapsed":665875,"internal_node_id":"0.0-3.0-0.92","subject_id":"5ea689cf355ce20009d97c70","study_id":"605e2a800ccfa0c8e820d869","session_id":"60622095c339a1c518d4b93e"},{"rt":5541.2250000517815,"stimulus":"img/00011.png","slider_start":4,"response":3,"trial_type":"image-slider-response","trial_index":96,"time_elapsed":671419,"internal_node_id":"0.0-3.0-0.93","subject_id":"5ea689cf355ce20009d97c70","study_id":"605e2a800ccfa0c8e820d869","session_id":"60622095c339a1c518d4b93e"},{"rt":4693.755000014789,"stimulus":"img/00995.png","slider_start":4,"response":5,"trial_type":"image-slider-response","trial_index":97,"time_elapsed":676115,"internal_node_id":"0.0-3.0-0.94","subject_id":"5ea689cf355ce20009d97c70","study_id":"605e2a800ccfa0c8e820d869","session_id":"60622095c339a1c518d4b93e"},{"rt":6126.189999980852,"stimulus":"img/00742.png","slider_start":4,"response":5,"trial_type":"image-slider-response","trial_index":98,"time_elapsed":682244,"internal_node_id":"0.0-3.0-0.95","subject_id":"5ea689cf355ce20009d97c70","study_id":"605e2a800ccfa0c8e820d869","session_id":"60622095c339a1c518d4b93e"},{"rt":1965.5200000852346,"stimulus":"img/00957.png","slider_start":4,"response":4,"trial_type":"image-slider-response","trial_index":99,"time_elapsed":684212,"internal_node_id":"0.0-3.0-0.96","subject_id":"5ea689cf355ce20009d97c70","study_id":"605e2a800ccfa0c8e820d869","session_id":"60622095c339a1c518d4b93e"},{"rt":6542.06999996677,"stimulus":"img/00563.png","slider_start":4,"response":2,"trial_type":"image-slider-response","trial_index":100,"time_elapsed":690756,"internal_node_id":"0.0-3.0-0.97","subject_id":"5ea689cf355ce20009d97c70","study_id":"605e2a800ccfa0c8e820d869","session_id":"60622095c339a1c518d4b93e"},{"rt":4877.414999995381,"stimulus":"img/00949.png","slider_start":4,"response":3,"trial_type":"image-slider-response","trial_index":101,"time_elapsed":695635,"internal_node_id":"0.0-3.0-0.98","subject_id":"5ea689cf355ce20009d97c70","study_id":"605e2a800ccfa0c8e820d869","session_id":"60622095c339a1c518d4b93e"},{"rt":3398.0450000381097,"stimulus":"img/00793.png","slider_start":4,"response":2,"trial_type":"image-slider-response","trial_index":102,"time_elapsed":699036,"internal_node_id":"0.0-3.0-0.99","subject_id":"5ea689cf355ce20009d97c70","study_id":"605e2a800ccfa0c8e820d869","session_id":"60622095c339a1c518d4b93e"},{"rt":4006.4600000623614,"stimulus":"img/00790.png","slider_start":4,"response":3,"trial_type":"image-slider-response","trial_index":103,"time_elapsed":703045,"internal_node_id":"0.0-3.0-0.100","subject_id":"5ea689cf355ce20009d97c70","study_id":"605e2a800ccfa0c8e820d869","session_id":"60622095c339a1c518d4b93e"},{"rt":6396.919999970123,"stimulus":"img/00841.png","slider_start":4,"response":4,"trial_type":"image-slider-response","trial_index":104,"time_elapsed":709444,"internal_node_id":"0.0-3.0-0.101","subject_id":"5ea689cf355ce20009d97c70","study_id":"605e2a800ccfa0c8e820d869","session_id":"60622095c339a1c518d4b93e"},{"rt":4126.235000090674,"stimulus":"img/00930.png","slider_start":4,"response":5,"trial_type":"image-slider-response","trial_index":105,"time_elapsed":713573,"internal_node_id":"0.0-3.0-0.102","subject_id":"5ea689cf355ce20009d97c70","study_id":"605e2a800ccfa0c8e820d869","session_id":"60622095c339a1c518d4b93e"},{"rt":4437.22500000149,"stimulus":"img/00764.png","slider_start":4,"response":3,"trial_type":"image-slider-response","trial_index":106,"time_elapsed":718013,"internal_node_id":"0.0-3.0-0.103","subject_id":"5ea689cf355ce20009d97c70","study_id":"605e2a800ccfa0c8e820d869","session_id":"60622095c339a1c518d4b93e"},{"rt":4173.925000010058,"stimulus":"img/00543.png","slider_start":4,"response":5,"trial_type":"image-slider-response","trial_index":107,"time_elapsed":722188,"internal_node_id":"0.0-3.0-0.104","subject_id":"5ea689cf355ce20009d97c70","study_id":"605e2a800ccfa0c8e820d869","session_id":"60622095c339a1c518d4b93e"},{"rt":7485.604999936186,"stimulus":"img/00002.png","slider_start":4,"response":3,"trial_type":"image-slider-response","trial_index":108,"time_elapsed":729676,"internal_node_id":"0.0-3.0-0.105","subject_id":"5ea689cf355ce20009d97c70","study_id":"605e2a800ccfa0c8e820d869","session_id":"60622095c339a1c518d4b93e"},{"rt":4709.474999923259,"stimulus":"img/00401.png","slider_start":4,"response":5,"trial_type":"image-slider-response","trial_index":109,"time_elapsed":734388,"internal_node_id":"0.0-3.0-0.106","subject_id":"5ea689cf355ce20009d97c70","study_id":"605e2a800ccfa0c8e820d869","session_id":"60622095c339a1c518d4b93e"},{"rt":2317.7850000793114,"stimulus":"img/00600.png","slider_start":4,"response":4,"trial_type":"image-slider-response","trial_index":110,"time_elapsed":736709,"internal_node_id":"0.0-3.0-0.107","subject_id":"5ea689cf355ce20009d97c70","study_id":"605e2a800ccfa0c8e820d869","session_id":"60622095c339a1c518d4b93e"},{"rt":4437.924999976531,"stimulus":"img/00503.png","slider_start":4,"response":2,"trial_type":"image-slider-response","trial_index":111,"time_elapsed":741149,"internal_node_id":"0.0-3.0-0.108","subject_id":"5ea689cf355ce20009d97c70","study_id":"605e2a800ccfa0c8e820d869","session_id":"60622095c339a1c518d4b93e"},{"rt":4157.164999982342,"stimulus":"img/00472.png","slider_start":4,"response":2,"trial_type":"image-slider-response","trial_index":112,"time_elapsed":745309,"internal_node_id":"0.0-3.0-0.109","subject_id":"5ea689cf355ce20009d97c70","study_id":"605e2a800ccfa0c8e820d869","session_id":"60622095c339a1c518d4b93e"},{"rt":3382.0799998939037,"stimulus":"img/00012.png","slider_start":4,"response":3,"trial_type":"image-slider-response","trial_index":113,"time_elapsed":748694,"internal_node_id":"0.0-3.0-0.110","subject_id":"5ea689cf355ce20009d97c70","study_id":"605e2a800ccfa0c8e820d869","session_id":"60622095c339a1c518d4b93e"},{"rt":2980.94499995932,"stimulus":"img/00629.png","slider_start":4,"response":3,"trial_type":"image-slider-response","trial_index":114,"time_elapsed":751677,"internal_node_id":"0.0-3.0-0.111","subject_id":"5ea689cf355ce20009d97c70","study_id":"605e2a800ccfa0c8e820d869","session_id":"60622095c339a1c518d4b93e"},{"rt":3558.7349999696016,"stimulus":"img/00041.png","slider_start":4,"response":7,"trial_type":"image-slider-response","trial_index":115,"time_elapsed":755238,"internal_node_id":"0.0-3.0-0.112","subject_id":"5ea689cf355ce20009d97c70","study_id":"605e2a800ccfa0c8e820d869","session_id":"60622095c339a1c518d4b93e"},{"rt":5149.64499999769,"stimulus":"img/00815.png","slider_start":4,"response":5,"trial_type":"image-slider-response","trial_index":116,"time_elapsed":760390,"internal_node_id":"0.0-3.0-0.113","subject_id":"5ea689cf355ce20009d97c70","study_id":"605e2a800ccfa0c8e820d869","session_id":"60622095c339a1c518d4b93e"},{"rt":2893.655000021681,"stimulus":"img/00504.png","slider_start":4,"response":3,"trial_type":"image-slider-response","trial_index":117,"time_elapsed":763286,"internal_node_id":"0.0-3.0-0.114","subject_id":"5ea689cf355ce20009d97c70","study_id":"605e2a800ccfa0c8e820d869","session_id":"60622095c339a1c518d4b93e"},{"rt":2773.215000052005,"stimulus":"img/00113.png","slider_start":4,"response":2,"trial_type":"image-slider-response","trial_index":118,"time_elapsed":766061,"internal_node_id":"0.0-3.0-0.115","subject_id":"5ea689cf355ce20009d97c70","study_id":"605e2a800ccfa0c8e820d869","session_id":"60622095c339a1c518d4b93e"},{"rt":3382.4200000381097,"stimulus":"img/00499.png","slider_start":4,"response":2,"trial_type":"image-slider-response","trial_index":119,"time_elapsed":769446,"internal_node_id":"0.0-3.0-0.116","subject_id":"5ea689cf355ce20009d97c70","study_id":"605e2a800ccfa0c8e820d869","session_id":"60622095c339a1c518d4b93e"},{"rt":3709.400000050664,"stimulus":"img/00040.png","slider_start":4,"response":3,"trial_type":"image-slider-response","trial_index":120,"time_elapsed":773158,"internal_node_id":"0.0-3.0-0.117","subject_id":"5ea689cf355ce20009d97c70","study_id":"605e2a800ccfa0c8e820d869","session_id":"60622095c339a1c518d4b93e"},{"rt":4758.730000001378,"stimulus":"img/00469.png","slider_start":4,"response":7,"trial_type":"image-slider-response","trial_index":121,"time_elapsed":777920,"internal_node_id":"0.0-3.0-0.118","subject_id":"5ea689cf355ce20009d97c70","study_id":"605e2a800ccfa0c8e820d869","session_id":"60622095c339a1c518d4b93e"},{"rt":3668.4499999973923,"stimulus":"img/00587.png","slider_start":4,"response":5,"trial_type":"image-slider-response","trial_index":122,"time_elapsed":781591,"internal_node_id":"0.0-3.0-0.119","subject_id":"5ea689cf355ce20009d97c70","study_id":"605e2a800ccfa0c8e820d869","session_id":"60622095c339a1c518d4b93e"},{"rt":5421.340000000782,"stimulus":"img/00511.png","slider_start":4,"response":3,"trial_type":"image-slider-response","trial_index":123,"time_elapsed":787015,"internal_node_id":"0.0-3.0-0.120","subject_id":"5ea689cf355ce20009d97c70","study_id":"605e2a800ccfa0c8e820d869","session_id":"60622095c339a1c518d4b93e"},{"rt":3558.7249998934567,"stimulus":"img/00594.png","slider_start":4,"response":4,"trial_type":"image-slider-response","trial_index":124,"time_elapsed":790576,"internal_node_id":"0.0-3.0-0.121","subject_id":"5ea689cf355ce20009d97c70","study_id":"605e2a800ccfa0c8e820d869","session_id":"60622095c339a1c518d4b93e"},{"rt":3685.0950000807643,"stimulus":"img/00427.png","slider_start":4,"response":7,"trial_type":"image-slider-response","trial_index":125,"time_elapsed":794263,"internal_node_id":"0.0-3.0-0.122","subject_id":"5ea689cf355ce20009d97c70","study_id":"605e2a800ccfa0c8e820d869","session_id":"60622095c339a1c518d4b93e"},{"rt":2397.1199999796227,"stimulus":"img/00791.png","slider_start":4,"response":4,"trial_type":"image-slider-response","trial_index":126,"time_elapsed":796664,"internal_node_id":"0.0-3.0-0.123","subject_id":"5ea689cf355ce20009d97c70","study_id":"605e2a800ccfa0c8e820d869","session_id":"60622095c339a1c518d4b93e"},{"rt":2229.6750000678003,"stimulus":"img/00508.png","slider_start":4,"response":4,"trial_type":"image-slider-response","trial_index":127,"time_elapsed":798896,"internal_node_id":"0.0-3.0-0.124","subject_id":"5ea689cf355ce20009d97c70","study_id":"605e2a800ccfa0c8e820d869","session_id":"60622095c339a1c518d4b93e"},{"rt":1509.7400000086054,"stimulus":"img/00973.png","slider_start":4,"response":4,"trial_type":"image-slider-response","trial_index":128,"time_elapsed":800407,"internal_node_id":"0.0-3.0-0.125","subject_id":"5ea689cf355ce20009d97c70","study_id":"605e2a800ccfa0c8e820d869","session_id":"60622095c339a1c518d4b93e"},{"rt":3821.72000000719,"stimulus":"img/00093.png","slider_start":4,"response":2,"trial_type":"image-slider-response","trial_index":129,"time_elapsed":804231,"internal_node_id":"0.0-3.0-0.126","subject_id":"5ea689cf355ce20009d97c70","study_id":"605e2a800ccfa0c8e820d869","session_id":"60622095c339a1c518d4b93e"},{"rt":10838.385000010021,"stimulus":"img/00903.png","slider_start":4,"response":6,"trial_type":"image-slider-response","trial_index":130,"time_elapsed":815072,"internal_node_id":"0.0-3.0-0.127","subject_id":"5ea689cf355ce20009d97c70","study_id":"605e2a800ccfa0c8e820d869","session_id":"60622095c339a1c518d4b93e"},{"rt":5781.829999992624,"stimulus":"img/00779.png","slider_start":4,"response":2,"trial_type":"image-slider-response","trial_index":131,"time_elapsed":820856,"internal_node_id":"0.0-3.0-0.128","subject_id":"5ea689cf355ce20009d97c70","study_id":"605e2a800ccfa0c8e820d869","session_id":"60622095c339a1c518d4b93e"},{"rt":2429.784999927506,"stimulus":"img/00055.png","slider_start":4,"response":4,"trial_type":"image-slider-response","trial_index":132,"time_elapsed":823289,"internal_node_id":"0.0-3.0-0.129","subject_id":"5ea689cf355ce20009d97c70","study_id":"605e2a800ccfa0c8e820d869","session_id":"60622095c339a1c518d4b93e"},{"rt":2693.5250000096858,"stimulus":"img/00129.png","slider_start":4,"response":5,"trial_type":"image-slider-response","trial_index":133,"time_elapsed":825984,"internal_node_id":"0.0-3.0-0.130","subject_id":"5ea689cf355ce20009d97c70","study_id":"605e2a800ccfa0c8e820d869","session_id":"60622095c339a1c518d4b93e"},{"rt":8182.2249999968335,"stimulus":"img/00833.png","slider_start":4,"response":5,"trial_type":"image-slider-response","trial_index":134,"time_elapsed":834169,"internal_node_id":"0.0-3.0-0.131","subject_id":"5ea689cf355ce20009d97c70","study_id":"605e2a800ccfa0c8e820d869","session_id":"60622095c339a1c518d4b93e"},{"rt":5101.640000008047,"stimulus":"img/00848.png","slider_start":4,"response":6,"trial_type":"image-slider-response","trial_index":135,"time_elapsed":839273,"internal_node_id":"0.0-3.0-0.132","subject_id":"5ea689cf355ce20009d97c70","study_id":"605e2a800ccfa0c8e820d869","session_id":"60622095c339a1c518d4b93e"},{"rt":2261.394999921322,"stimulus":"img/00079.png","slider_start":4,"response":4,"trial_type":"image-slider-response","trial_index":136,"time_elapsed":841537,"internal_node_id":"0.0-3.0-0.133","subject_id":"5ea689cf355ce20009d97c70","study_id":"605e2a800ccfa0c8e820d869","session_id":"60622095c339a1c518d4b93e"},{"rt":5806.284999940544,"stimulus":"img/00825.png","slider_start":4,"response":3,"trial_type":"image-slider-response","trial_index":137,"time_elapsed":847345,"internal_node_id":"0.0-3.0-0.134","subject_id":"5ea689cf355ce20009d97c70","study_id":"605e2a800ccfa0c8e820d869","session_id":"60622095c339a1c518d4b93e"},{"rt":3885.565000004135,"stimulus":"img/00440.png","slider_start":4,"response":3,"trial_type":"image-slider-response","trial_index":138,"time_elapsed":851233,"internal_node_id":"0.0-3.0-0.135","subject_id":"5ea689cf355ce20009d97c70","study_id":"605e2a800ccfa0c8e820d869","session_id":"60622095c339a1c518d4b93e"},{"rt":2709.4949999591336,"stimulus":"img/00029.png","slider_start":4,"response":3,"trial_type":"image-slider-response","trial_index":139,"time_elapsed":853945,"internal_node_id":"0.0-3.0-0.136","subject_id":"5ea689cf355ce20009d97c70","study_id":"605e2a800ccfa0c8e820d869","session_id":"60622095c339a1c518d4b93e"},{"rt":10294.34499994386,"stimulus":"img/00525.png","slider_start":4,"response":3,"trial_type":"image-slider-response","trial_index":140,"time_elapsed":864242,"internal_node_id":"0.0-3.0-0.137","subject_id":"5ea689cf355ce20009d97c70","study_id":"605e2a800ccfa0c8e820d869","session_id":"60622095c339a1c518d4b93e"},{"rt":3845.0850000372157,"stimulus":"img/40.png","slider_start":4,"response":1,"trial_type":"image-slider-response","trial_index":141,"time_elapsed":868089,"internal_node_id":"0.0-3.0-0.138","subject_id":"5ea689cf355ce20009d97c70","study_id":"605e2a800ccfa0c8e820d869","session_id":"60622095c339a1c518d4b93e"},{"rt":2084.9900000030175,"stimulus":"img/00811.png","slider_start":4,"response":4,"trial_type":"image-slider-response","trial_index":142,"time_elapsed":870178,"internal_node_id":"0.0-3.0-0.139","subject_id":"5ea689cf355ce20009d97c70","study_id":"605e2a800ccfa0c8e820d869","session_id":"60622095c339a1c518d4b93e"},{"rt":6595.880000037141,"stimulus":"img/00059.png","slider_start":4,"response":6,"trial_type":"image-slider-response","trial_index":143,"time_elapsed":876777,"internal_node_id":"0.0-3.0-0.140","subject_id":"5ea689cf355ce20009d97c70","study_id":"605e2a800ccfa0c8e820d869","session_id":"60622095c339a1c518d4b93e"},{"rt":7662.149999989197,"stimulus":"img/00456.png","slider_start":4,"response":4,"trial_type":"image-slider-response","trial_index":144,"time_elapsed":884442,"internal_node_id":"0.0-3.0-0.141","subject_id":"5ea689cf355ce20009d97c70","study_id":"605e2a800ccfa0c8e820d869","session_id":"60622095c339a1c518d4b93e"},{"rt":3885.910000069998,"stimulus":"img/00564.png","slider_start":4,"response":4,"trial_type":"image-slider-response","trial_index":145,"time_elapsed":888331,"internal_node_id":"0.0-3.0-0.142","subject_id":"5ea689cf355ce20009d97c70","study_id":"605e2a800ccfa0c8e820d869","session_id":"60622095c339a1c518d4b93e"},{"rt":3812.9349999362603,"stimulus":"img/00986.png","slider_start":4,"response":3,"trial_type":"image-slider-response","trial_index":146,"time_elapsed":892146,"internal_node_id":"0.0-3.0-0.143","subject_id":"5ea689cf355ce20009d97c70","study_id":"605e2a800ccfa0c8e820d869","session_id":"60622095c339a1c518d4b93e"},{"rt":5966.05000004638,"stimulus":"img/00115.png","slider_start":4,"response":1,"trial_type":"image-slider-response","trial_index":147,"time_elapsed":898114,"internal_node_id":"0.0-3.0-0.144","subject_id":"5ea689cf355ce20009d97c70","study_id":"605e2a800ccfa0c8e820d869","session_id":"60622095c339a1c518d4b93e"},{"rt":7846.944999997504,"stimulus":"img/00479.png","slider_start":4,"response":6,"trial_type":"image-slider-response","trial_index":148,"time_elapsed":905965,"internal_node_id":"0.0-3.0-0.145","subject_id":"5ea689cf355ce20009d97c70","study_id":"605e2a800ccfa0c8e820d869","session_id":"60622095c339a1c518d4b93e"},{"rt":5451.894999947399,"stimulus":"img/00522.png","slider_start":4,"response":3,"trial_type":"image-slider-response","trial_index":149,"time_elapsed":911420,"internal_node_id":"0.0-3.0-0.146","subject_id":"5ea689cf355ce20009d97c70","study_id":"605e2a800ccfa0c8e820d869","session_id":"60622095c339a1c518d4b93e"},{"rt":3853.315000073053,"stimulus":"img/00554.png","slider_start":4,"response":5,"trial_type":"image-slider-response","trial_index":150,"time_elapsed":915276,"internal_node_id":"0.0-3.0-0.147","subject_id":"5ea689cf355ce20009d97c70","study_id":"605e2a800ccfa0c8e820d869","session_id":"60622095c339a1c518d4b93e"},{"rt":3988.535000011325,"stimulus":"img/00842.png","slider_start":4,"response":6,"trial_type":"image-slider-response","trial_index":151,"time_elapsed":919267,"internal_node_id":"0.0-3.0-0.148","subject_id":"5ea689cf355ce20009d97c70","study_id":"605e2a800ccfa0c8e820d869","session_id":"60622095c339a1c518d4b93e"},{"rt":10590.205000014976,"stimulus":"img/00991.png","slider_start":4,"response":5,"trial_type":"image-slider-response","trial_index":152,"time_elapsed":929860,"internal_node_id":"0.0-3.0-0.149","subject_id":"5ea689cf355ce20009d97c70","study_id":"605e2a800ccfa0c8e820d869","session_id":"60622095c339a1c518d4b93e"},{"rt":4341.0600000061095,"stimulus":"img/00561.png","slider_start":4,"response":2,"trial_type":"image-slider-response","trial_index":153,"time_elapsed":934205,"internal_node_id":"0.0-3.0-0.150","subject_id":"5ea689cf355ce20009d97c70","study_id":"605e2a800ccfa0c8e820d869","session_id":"60622095c339a1c518d4b93e"},{"rt":7390.250000054948,"stimulus":"img/00603.png","slider_start":4,"response":3,"trial_type":"image-slider-response","trial_index":154,"time_elapsed":941597,"internal_node_id":"0.0-3.0-0.151","subject_id":"5ea689cf355ce20009d97c70","study_id":"605e2a800ccfa0c8e820d869","session_id":"60622095c339a1c518d4b93e"},{"rt":2757.1300000417978,"stimulus":"img/00744.png","slider_start":4,"response":3,"trial_type":"image-slider-response","trial_index":155,"time_elapsed":944357,"internal_node_id":"0.0-3.0-0.152","subject_id":"5ea689cf355ce20009d97c70","study_id":"605e2a800ccfa0c8e820d869","session_id":"60622095c339a1c518d4b93e"},{"rt":6677.310000057332,"stimulus":"img/00489.png","slider_start":4,"response":4,"trial_type":"image-slider-response","trial_index":156,"time_elapsed":951037,"internal_node_id":"0.0-3.0-0.153","subject_id":"5ea689cf355ce20009d97c70","study_id":"605e2a800ccfa0c8e820d869","session_id":"60622095c339a1c518d4b93e"},{"rt":3837.7950000576675,"stimulus":"img/00464.png","slider_start":4,"response":1,"trial_type":"image-slider-response","trial_index":157,"time_elapsed":954877,"internal_node_id":"0.0-3.0-0.154","subject_id":"5ea689cf355ce20009d97c70","study_id":"605e2a800ccfa0c8e820d869","session_id":"60622095c339a1c518d4b93e"},{"rt":3334.5050000352785,"stimulus":"img/00878.png","slider_start":4,"response":4,"trial_type":"image-slider-response","trial_index":158,"time_elapsed":958214,"internal_node_id":"0.0-3.0-0.155","subject_id":"5ea689cf355ce20009d97c70","study_id":"605e2a800ccfa0c8e820d869","session_id":"60622095c339a1c518d4b93e"},{"rt":3493.5050000203773,"stimulus":"img/00689.png","slider_start":4,"response":5,"trial_type":"image-slider-response","trial_index":159,"time_elapsed":961710,"internal_node_id":"0.0-3.0-0.156","subject_id":"5ea689cf355ce20009d97c70","study_id":"605e2a800ccfa0c8e820d869","session_id":"60622095c339a1c518d4b93e"},{"rt":4126.44999998156,"stimulus":"img/00042.png","slider_start":4,"response":3,"trial_type":"image-slider-response","trial_index":160,"time_elapsed":965838,"internal_node_id":"0.0-3.0-0.157","subject_id":"5ea689cf355ce20009d97c70","study_id":"605e2a800ccfa0c8e820d869","session_id":"60622095c339a1c518d4b93e"},{"rt":5758.229999919422,"stimulus":"img/00898.png","slider_start":4,"response":2,"trial_type":"image-slider-response","trial_index":161,"time_elapsed":971598,"internal_node_id":"0.0-3.0-0.158","subject_id":"5ea689cf355ce20009d97c70","study_id":"605e2a800ccfa0c8e820d869","session_id":"60622095c339a1c518d4b93e"},{"rt":4540.485000004992,"stimulus":"img/00424.png","slider_start":4,"response":5,"trial_type":"image-slider-response","trial_index":162,"time_elapsed":976142,"internal_node_id":"0.0-3.0-0.159","subject_id":"5ea689cf355ce20009d97c70","study_id":"605e2a800ccfa0c8e820d869","session_id":"60622095c339a1c518d4b93e"},{"rt":2541.9000000692904,"stimulus":"img/00691.png","slider_start":4,"response":4,"trial_type":"image-slider-response","trial_index":163,"time_elapsed":978687,"internal_node_id":"0.0-3.0-0.160","subject_id":"5ea689cf355ce20009d97c70","study_id":"605e2a800ccfa0c8e820d869","session_id":"60622095c339a1c518d4b93e"},{"rt":4453.624999965541,"stimulus":"img/00631.png","slider_start":4,"response":6,"trial_type":"image-slider-response","trial_index":164,"time_elapsed":983142,"internal_node_id":"0.0-3.0-0.161","subject_id":"5ea689cf355ce20009d97c70","study_id":"605e2a800ccfa0c8e820d869","session_id":"60622095c339a1c518d4b93e"},{"rt":3157.589999958873,"stimulus":"img/00100.png","slider_start":4,"response":5,"trial_type":"image-slider-response","trial_index":165,"time_elapsed":986302,"internal_node_id":"0.0-3.0-0.162","subject_id":"5ea689cf355ce20009d97c70","study_id":"605e2a800ccfa0c8e820d869","session_id":"60622095c339a1c518d4b93e"},{"rt":2422.7249999530613,"stimulus":"img/00406.png","slider_start":4,"response":4,"trial_type":"image-slider-response","trial_index":166,"time_elapsed":988727,"internal_node_id":"0.0-3.0-0.163","subject_id":"5ea689cf355ce20009d97c70","study_id":"605e2a800ccfa0c8e820d869","session_id":"60622095c339a1c518d4b93e"},{"rt":3021.3849999709055,"stimulus":"img/00822.png","slider_start":4,"response":3,"trial_type":"image-slider-response","trial_index":167,"time_elapsed":991751,"internal_node_id":"0.0-3.0-0.164","subject_id":"5ea689cf355ce20009d97c70","study_id":"605e2a800ccfa0c8e820d869","session_id":"60622095c339a1c518d4b93e"},{"rt":4453.570000012405,"stimulus":"img/00756.png","slider_start":4,"response":7,"trial_type":"image-slider-response","trial_index":168,"time_elapsed":996207,"internal_node_id":"0.0-3.0-0.165","subject_id":"5ea689cf355ce20009d97c70","study_id":"605e2a800ccfa0c8e820d869","session_id":"60622095c339a1c518d4b93e"},{"rt":2675.38999998942,"stimulus":"img/00438.png","slider_start":4,"response":4,"trial_type":"image-slider-response","trial_index":169,"time_elapsed":998887,"internal_node_id":"0.0-3.0-0.166","subject_id":"5ea689cf355ce20009d97c70","study_id":"605e2a800ccfa0c8e820d869","session_id":"60622095c339a1c518d4b93e"},{"rt":5757.549999980256,"stimulus":"img/00644.png","slider_start":4,"response":5,"trial_type":"image-slider-response","trial_index":170,"time_elapsed":1004647,"internal_node_id":"0.0-3.0-0.167","subject_id":"5ea689cf355ce20009d97c70","study_id":"605e2a800ccfa0c8e820d869","session_id":"60622095c339a1c518d4b93e"},{"rt":2613.4649999439716,"stimulus":"img/00809.png","slider_start":4,"response":3,"trial_type":"image-slider-response","trial_index":171,"time_elapsed":1007263,"internal_node_id":"0.0-3.0-0.168","subject_id":"5ea689cf355ce20009d97c70","study_id":"605e2a800ccfa0c8e820d869","session_id":"60622095c339a1c518d4b93e"},{"rt":2437.6600000541657,"stimulus":"img/00404.png","slider_start":4,"response":2,"trial_type":"image-slider-response","trial_index":172,"time_elapsed":1009703,"internal_node_id":"0.0-3.0-0.169","subject_id":"5ea689cf355ce20009d97c70","study_id":"605e2a800ccfa0c8e820d869","session_id":"60622095c339a1c518d4b93e"},{"rt":4030.2799999481067,"stimulus":"img/00064.png","slider_start":4,"response":1,"trial_type":"image-slider-response","trial_index":173,"time_elapsed":1013735,"internal_node_id":"0.0-3.0-0.170","subject_id":"5ea689cf355ce20009d97c70","study_id":"605e2a800ccfa0c8e820d869","session_id":"60622095c339a1c518d4b93e"},{"rt":4436.725000035949,"stimulus":"img/00483.png","slider_start":4,"response":4,"trial_type":"image-slider-response","trial_index":174,"time_elapsed":1018175,"internal_node_id":"0.0-3.0-0.171","subject_id":"5ea689cf355ce20009d97c70","study_id":"605e2a800ccfa0c8e820d869","session_id":"60622095c339a1c518d4b93e"}]