[{"rt":3819.5650000000114,"stimulus":"Welcome to the experiment. Press any key to begin.","response":"g","trial_type":"html-keyboard-response","trial_index":0,"time_elapsed":3821,"internal_node_id":"0.0-0.0","subject_id":"5eb53f0da7325c023549eff9","study_id":"605e2a800ccfa0c8e820d869","session_id":"6062209a99e065707ac69628"},{"rt":10448.345000000016,"stimulus":"\n        <p>In this experiment, a face will appear on-screen.</p><p> <strong>Rate the face on a 1 - 7 scale based on how attractive he / she is.</strong> </p>\n        </div>\n        <p>Press any key to begin.</p>\n      ","response":"d","trial_type":"html-keyboard-response","trial_index":1,"time_elapsed":14270,"internal_node_id":"0.0-1.0","subject_id":"5eb53f0da7325c023549eff9","study_id":"605e2a800ccfa0c8e820d869","session_id":"6062209a99e065707ac69628"},{"success":true,"timeout":false,"failed_images":[],"failed_audio":[],"failed_video":[],"trial_type":"preload","trial_index":2,"time_elapsed":59323,"internal_node_id":"0.0-2.0","subject_id":"5eb53f0da7325c023549eff9","study_id":"605e2a800ccfa0c8e820d869","session_id":"6062209a99e065707ac69628"},{"rt":24519.70999999992,"stimulus":"img/00842.png","slider_start":4,"response":4,"trial_type":"image-slider-response","trial_index":3,"time_elapsed":83849,"internal_node_id":"0.0-3.0-0.0","subject_id":"5eb53f0da7325c023549eff9","study_id":"605e2a800ccfa0c8e820d869","session_id":"6062209a99e065707ac69628"},{"rt":7876.96000000005,"stimulus":"img/00508.png","slider_start":4,"response":3,"trial_type":"image-slider-response","trial_index":4,"time_elapsed":91728,"internal_node_id":"0.0-3.0-0.1","subject_id":"5eb53f0da7325c023549eff9","study_id":"605e2a800ccfa0c8e820d869","session_id":"6062209a99e065707ac69628"},{"rt":4826.145000000004,"stimulus":"img/00811.png","slider_start":4,"response":4,"trial_type":"image-slider-response","trial_index":5,"time_elapsed":96556,"internal_node_id":"0.0-3.0-0.2","subject_id":"5eb53f0da7325c023549eff9","study_id":"605e2a800ccfa0c8e820d869","session_id":"6062209a99e065707ac69628"},{"rt":13207.085000000006,"stimulus":"img/00413.png","slider_start":4,"response":3,"trial_type":"image-slider-response","trial_index":6,"time_elapsed":109765,"internal_node_id":"0.0-3.0-0.3","subject_id":"5eb53f0da7325c023549eff9","study_id":"605e2a800ccfa0c8e820d869","session_id":"6062209a99e065707ac69628"},{"rt":3147.0699999999924,"stimulus":"img/00011.png","slider_start":4,"response":1,"trial_type":"image-slider-response","trial_index":7,"time_elapsed":112914,"internal_node_id":"0.0-3.0-0.4","subject_id":"5eb53f0da7325c023549eff9","study_id":"605e2a800ccfa0c8e820d869","session_id":"6062209a99e065707ac69628"},{"rt":6347.075000000026,"stimulus":"img/00949.png","slider_start":4,"response":2,"trial_type":"image-slider-response","trial_index":8,"time_elapsed":119263,"internal_node_id":"0.0-3.0-0.5","subject_id":"5eb53f0da7325c023549eff9","study_id":"605e2a800ccfa0c8e820d869","session_id":"6062209a99e065707ac69628"},{"rt":6772.9649999999965,"stimulus":"img/00439.png","slider_start":4,"response":1,"trial_type":"image-slider-response","trial_index":9,"time_elapsed":126038,"internal_node_id":"0.0-3.0-0.6","subject_id":"5eb53f0da7325c023549eff9","study_id":"605e2a800ccfa0c8e820d869","session_id":"6062209a99e065707ac69628"},{"rt":4684.124999999985,"stimulus":"img/00522.png","slider_start":4,"response":4,"trial_type":"image-slider-response","trial_index":10,"time_elapsed":130724,"internal_node_id":"0.0-3.0-0.7","subject_id":"5eb53f0da7325c023549eff9","study_id":"605e2a800ccfa0c8e820d869","session_id":"6062209a99e065707ac69628"},{"rt":2641.7999999999884,"stimulus":"img/00077.png","slider_start":4,"response":3,"trial_type":"image-slider-response","trial_index":11,"time_elapsed":133368,"internal_node_id":"0.0-3.0-0.8","subject_id":"5eb53f0da7325c023549eff9","study_id":"605e2a800ccfa0c8e820d869","session_id":"6062209a99e065707ac69628"},{"rt":9109.119999999966,"stimulus":"img/00129.png","slider_start":4,"response":5,"trial_type":"image-slider-response","trial_index":12,"time_elapsed":142479,"internal_node_id":"0.0-3.0-0.9","subject_id":"5eb53f0da7325c023549eff9","study_id":"605e2a800ccfa0c8e820d869","session_id":"6062209a99e065707ac69628"},{"rt":10230.245000000083,"stimulus":"img/00785.png","slider_start":4,"response":5,"trial_type":"image-slider-response","trial_index":13,"time_elapsed":152711,"internal_node_id":"0.0-3.0-0.10","subject_id":"5eb53f0da7325c023549eff9","study_id":"605e2a800ccfa0c8e820d869","session_id":"6062209a99e065707ac69628"},{"rt":4530.9250000000175,"stimulus":"img/00898.png","slider_start":4,"response":2,"trial_type":"image-slider-response","trial_index":14,"time_elapsed":157244,"internal_node_id":"0.0-3.0-0.11","subject_id":"5eb53f0da7325c023549eff9","study_id":"605e2a800ccfa0c8e820d869","session_id":"6062209a99e065707ac69628"},{"rt":7381.260000000009,"stimulus":"img/00988.png","slider_start":4,"response":3,"trial_type":"image-slider-response","trial_index":15,"time_elapsed":164627,"internal_node_id":"0.0-3.0-0.12","subject_id":"5eb53f0da7325c023549eff9","study_id":"605e2a800ccfa0c8e820d869","session_id":"6062209a99e065707ac69628"},{"rt":2357.9800000000105,"stimulus":"img/00878.png","slider_start":4,"response":2,"trial_type":"image-slider-response","trial_index":16,"time_elapsed":166987,"internal_node_id":"0.0-3.0-0.13","subject_id":"5eb53f0da7325c023549eff9","study_id":"605e2a800ccfa0c8e820d869","session_id":"6062209a99e065707ac69628"},{"rt":2349.9950000000536,"stimulus":"img/00982.png","slider_start":4,"response":2,"trial_type":"image-slider-response","trial_index":17,"time_elapsed":169339,"internal_node_id":"0.0-3.0-0.14","subject_id":"5eb53f0da7325c023549eff9","study_id":"605e2a800ccfa0c8e820d869","session_id":"6062209a99e065707ac69628"},{"rt":12962.539999999979,"stimulus":"img/00967.png","slider_start":4,"response":3,"trial_type":"image-slider-response","trial_index":18,"time_elapsed":182303,"internal_node_id":"0.0-3.0-0.15","subject_id":"5eb53f0da7325c023549eff9","study_id":"605e2a800ccfa0c8e820d869","session_id":"6062209a99e065707ac69628"},{"rt":4687.530000000057,"stimulus":"img/00623.png","slider_start":4,"response":4,"trial_type":"image-slider-response","trial_index":19,"time_elapsed":186992,"internal_node_id":"0.0-3.0-0.16","subject_id":"5eb53f0da7325c023549eff9","study_id":"605e2a800ccfa0c8e820d869","session_id":"6062209a99e065707ac69628"},{"rt":4937.895000000019,"stimulus":"img/00742.png","slider_start":4,"response":5,"trial_type":"image-slider-response","trial_index":20,"time_elapsed":191932,"internal_node_id":"0.0-3.0-0.17","subject_id":"5eb53f0da7325c023549eff9","study_id":"605e2a800ccfa0c8e820d869","session_id":"6062209a99e065707ac69628"},{"rt":13355.024999999965,"stimulus":"img/00768.png","slider_start":4,"response":3,"trial_type":"image-slider-response","trial_index":21,"time_elapsed":205289,"internal_node_id":"0.0-3.0-0.18","subject_id":"5eb53f0da7325c023549eff9","study_id":"605e2a800ccfa0c8e820d869","session_id":"6062209a99e065707ac69628"},{"rt":4655.0950000000885,"stimulus":"img/00481.png","slider_start":4,"response":3,"trial_type":"image-slider-response","trial_index":22,"time_elapsed":209946,"internal_node_id":"0.0-3.0-0.19","subject_id":"5eb53f0da7325c023549eff9","study_id":"605e2a800ccfa0c8e820d869","session_id":"6062209a99e065707ac69628"},{"rt":2930.804999999935,"stimulus":"img/00040.png","slider_start":4,"response":2,"trial_type":"image-slider-response","trial_index":23,"time_elapsed":212879,"internal_node_id":"0.0-3.0-0.20","subject_id":"5eb53f0da7325c023549eff9","study_id":"605e2a800ccfa0c8e820d869","session_id":"6062209a99e065707ac69628"},{"rt":6516.3949999999895,"stimulus":"img/00427.png","slider_start":4,"response":6,"trial_type":"image-slider-response","trial_index":24,"time_elapsed":219397,"internal_node_id":"0.0-3.0-0.21","subject_id":"5eb53f0da7325c023549eff9","study_id":"605e2a800ccfa0c8e820d869","session_id":"6062209a99e065707ac69628"},{"rt":2628.0050000000338,"stimulus":"img/00559.png","slider_start":4,"response":3,"trial_type":"image-slider-response","trial_index":25,"time_elapsed":222027,"internal_node_id":"0.0-3.0-0.22","subject_id":"5eb53f0da7325c023549eff9","study_id":"605e2a800ccfa0c8e820d869","session_id":"6062209a99e065707ac69628"},{"rt":1832.9599999999627,"stimulus":"img/00466.png","slider_start":4,"response":1,"trial_type":"image-slider-response","trial_index":26,"time_elapsed":223862,"internal_node_id":"0.0-3.0-0.23","subject_id":"5eb53f0da7325c023549eff9","study_id":"605e2a800ccfa0c8e820d869","session_id":"6062209a99e065707ac69628"},{"rt":3919.8949999999895,"stimulus":"img/00773.png","slider_start":4,"response":1,"trial_type":"image-slider-response","trial_index":27,"time_elapsed":227783,"internal_node_id":"0.0-3.0-0.24","subject_id":"5eb53f0da7325c023549eff9","study_id":"605e2a800ccfa0c8e820d869","session_id":"6062209a99e065707ac69628"},{"rt":8898.109999999986,"stimulus":"img/00815.png","slider_start":4,"response":4,"trial_type":"image-slider-response","trial_index":28,"time_elapsed":236683,"internal_node_id":"0.0-3.0-0.25","subject_id":"5eb53f0da7325c023549eff9","study_id":"605e2a800ccfa0c8e820d869","session_id":"6062209a99e065707ac69628"},{"rt":6118.885000000097,"stimulus":"img/00752.png","slider_start":4,"response":2,"trial_type":"image-slider-response","trial_index":29,"time_elapsed":242804,"internal_node_id":"0.0-3.0-0.26","subject_id":"5eb53f0da7325c023549eff9","study_id":"605e2a800ccfa0c8e820d869","session_id":"6062209a99e065707ac69628"},{"rt":5188.940000000002,"stimulus":"img/00406.png","slider_start":4,"response":1,"trial_type":"image-slider-response","trial_index":30,"time_elapsed":247995,"internal_node_id":"0.0-3.0-0.27","subject_id":"5eb53f0da7325c023549eff9","study_id":"605e2a800ccfa0c8e820d869","session_id":"6062209a99e065707ac69628"},{"rt":12458,"stimulus":"img/00048.png","slider_start":4,"response":1,"trial_type":"image-slider-response","trial_index":31,"time_elapsed":260455,"internal_node_id":"0.0-3.0-0.28","subject_id":"5eb53f0da7325c023549eff9","study_id":"605e2a800ccfa0c8e820d869","session_id":"6062209a99e065707ac69628"},{"rt":16689.915000000037,"stimulus":"img/00045.png","slider_start":4,"response":3,"trial_type":"image-slider-response","trial_index":32,"time_elapsed":277147,"internal_node_id":"0.0-3.0-0.29","subject_id":"5eb53f0da7325c023549eff9","study_id":"605e2a800ccfa0c8e820d869","session_id":"6062209a99e065707ac69628"},{"rt":7376.975000000035,"stimulus":"img/00037.png","slider_start":4,"response":5,"trial_type":"image-slider-response","trial_index":33,"time_elapsed":284526,"internal_node_id":"0.0-3.0-0.30","subject_id":"5eb53f0da7325c023549eff9","study_id":"605e2a800ccfa0c8e820d869","session_id":"6062209a99e065707ac69628"},{"rt":7263.000000000058,"stimulus":"img/00460.png","slider_start":4,"response":3,"trial_type":"image-slider-response","trial_index":34,"time_elapsed":291791,"internal_node_id":"0.0-3.0-0.31","subject_id":"5eb53f0da7325c023549eff9","study_id":"605e2a800ccfa0c8e820d869","session_id":"6062209a99e065707ac69628"},{"rt":5928.839999999909,"stimulus":"img/00631.png","slider_start":4,"response":5,"trial_type":"image-slider-response","trial_index":35,"time_elapsed":297722,"internal_node_id":"0.0-3.0-0.32","subject_id":"5eb53f0da7325c023549eff9","study_id":"605e2a800ccfa0c8e820d869","session_id":"6062209a99e065707ac69628"},{"rt":2799.04999999993,"stimulus":"img/40.png","slider_start":4,"response":3,"trial_type":"image-slider-response","trial_index":36,"time_elapsed":300523,"internal_node_id":"0.0-3.0-0.33","subject_id":"5eb53f0da7325c023549eff9","study_id":"605e2a800ccfa0c8e820d869","session_id":"6062209a99e065707ac69628"},{"rt":5206.469999999972,"stimulus":"img/00825.png","slider_start":4,"response":5,"trial_type":"image-slider-response","trial_index":37,"time_elapsed":305731,"internal_node_id":"0.0-3.0-0.34","subject_id":"5eb53f0da7325c023549eff9","study_id":"605e2a800ccfa0c8e820d869","session_id":"6062209a99e065707ac69628"},{"rt":7833.969999999972,"stimulus":"img/00817.png","slider_start":4,"response":3,"trial_type":"image-slider-response","trial_index":38,"time_elapsed":313567,"internal_node_id":"0.0-3.0-0.35","subject_id":"5eb53f0da7325c023549eff9","study_id":"605e2a800ccfa0c8e820d869","session_id":"6062209a99e065707ac69628"},{"rt":6793.094999999972,"stimulus":"img/00600.png","slider_start":4,"response":7,"trial_type":"image-slider-response","trial_index":39,"time_elapsed":320362,"internal_node_id":"0.0-3.0-0.36","subject_id":"5eb53f0da7325c023549eff9","study_id":"605e2a800ccfa0c8e820d869","session_id":"6062209a99e065707ac69628"},{"rt":6211.994999999995,"stimulus":"img/00563.png","slider_start":4,"response":3,"trial_type":"image-slider-response","trial_index":40,"time_elapsed":326576,"internal_node_id":"0.0-3.0-0.37","subject_id":"5eb53f0da7325c023549eff9","study_id":"605e2a800ccfa0c8e820d869","session_id":"6062209a99e065707ac69628"},{"rt":2933.225000000035,"stimulus":"img/00930.png","slider_start":4,"response":2,"trial_type":"image-slider-response","trial_index":41,"time_elapsed":329511,"internal_node_id":"0.0-3.0-0.38","subject_id":"5eb53f0da7325c023549eff9","study_id":"605e2a800ccfa0c8e820d869","session_id":"6062209a99e065707ac69628"},{"rt":2605.329999999958,"stimulus":"img/00618.png","slider_start":4,"response":4,"trial_type":"image-slider-response","trial_index":42,"time_elapsed":332118,"internal_node_id":"0.0-3.0-0.39","subject_id":"5eb53f0da7325c023549eff9","study_id":"605e2a800ccfa0c8e820d869","session_id":"6062209a99e065707ac69628"},{"rt":4714.420000000042,"stimulus":"img/00424.png","slider_start":4,"response":6,"trial_type":"image-slider-response","trial_index":43,"time_elapsed":336834,"internal_node_id":"0.0-3.0-0.40","subject_id":"5eb53f0da7325c023549eff9","study_id":"605e2a800ccfa0c8e820d869","session_id":"6062209a99e065707ac69628"},{"rt":2486.8850000000093,"stimulus":"img/00042.png","slider_start":4,"response":3,"trial_type":"image-slider-response","trial_index":44,"time_elapsed":339323,"internal_node_id":"0.0-3.0-0.41","subject_id":"5eb53f0da7325c023549eff9","study_id":"605e2a800ccfa0c8e820d869","session_id":"6062209a99e065707ac69628"},{"rt":15624.970000000088,"stimulus":"img/00991.png","slider_start":4,"response":2,"trial_type":"image-slider-response","trial_index":45,"time_elapsed":354950,"internal_node_id":"0.0-3.0-0.42","subject_id":"5eb53f0da7325c023549eff9","study_id":"605e2a800ccfa0c8e820d869","session_id":"6062209a99e065707ac69628"},{"rt":2516.1300000000047,"stimulus":"img/00052.png","slider_start":4,"response":2,"trial_type":"image-slider-response","trial_index":46,"time_elapsed":357468,"internal_node_id":"0.0-3.0-0.43","subject_id":"5eb53f0da7325c023549eff9","study_id":"605e2a800ccfa0c8e820d869","session_id":"6062209a99e065707ac69628"},{"rt":5121.110000000044,"stimulus":"img/00759.png","slider_start":4,"response":3,"trial_type":"image-slider-response","trial_index":47,"time_elapsed":362591,"internal_node_id":"0.0-3.0-0.44","subject_id":"5eb53f0da7325c023549eff9","study_id":"605e2a800ccfa0c8e820d869","session_id":"6062209a99e065707ac69628"},{"rt":4126.789999999979,"stimulus":"img/00956.png","slider_start":4,"response":4,"trial_type":"image-slider-response","trial_index":48,"time_elapsed":366720,"internal_node_id":"0.0-3.0-0.45","subject_id":"5eb53f0da7325c023549eff9","study_id":"605e2a800ccfa0c8e820d869","session_id":"6062209a99e065707ac69628"},{"rt":3284.420000000042,"stimulus":"img/00809.png","slider_start":4,"response":2,"trial_type":"image-slider-response","trial_index":49,"time_elapsed":370006,"internal_node_id":"0.0-3.0-0.46","subject_id":"5eb53f0da7325c023549eff9","study_id":"605e2a800ccfa0c8e820d869","session_id":"6062209a99e065707ac69628"},{"rt":12475.719999999972,"stimulus":"img/00998.png","slider_start":4,"response":4,"trial_type":"image-slider-response","trial_index":50,"time_elapsed":382484,"internal_node_id":"0.0-3.0-0.47","subject_id":"5eb53f0da7325c023549eff9","study_id":"605e2a800ccfa0c8e820d869","session_id":"6062209a99e065707ac69628"},{"rt":3431.8799999999464,"stimulus":"img/00747.png","slider_start":4,"response":5,"trial_type":"image-slider-response","trial_index":51,"time_elapsed":385918,"internal_node_id":"0.0-3.0-0.48","subject_id":"5eb53f0da7325c023549eff9","study_id":"605e2a800ccfa0c8e820d869","session_id":"6062209a99e065707ac69628"},{"rt":7152.860000000044,"stimulus":"img/00015.png","slider_start":4,"response":4,"trial_type":"image-slider-response","trial_index":52,"time_elapsed":393073,"internal_node_id":"0.0-3.0-0.49","subject_id":"5eb53f0da7325c023549eff9","study_id":"605e2a800ccfa0c8e820d869","session_id":"6062209a99e065707ac69628"},{"rt":4846.744999999937,"stimulus":"img/00545.png","slider_start":4,"response":3,"trial_type":"image-slider-response","trial_index":53,"time_elapsed":397922,"internal_node_id":"0.0-3.0-0.50","subject_id":"5eb53f0da7325c023549eff9","study_id":"605e2a800ccfa0c8e820d869","session_id":"6062209a99e065707ac69628"},{"rt":4352.04999999993,"stimulus":"img/00973.png","slider_start":4,"response":3,"trial_type":"image-slider-response","trial_index":54,"time_elapsed":402276,"internal_node_id":"0.0-3.0-0.51","subject_id":"5eb53f0da7325c023549eff9","study_id":"605e2a800ccfa0c8e820d869","session_id":"6062209a99e065707ac69628"},{"rt":3066.109999999986,"stimulus":"img/00126.png","slider_start":4,"response":1,"trial_type":"image-slider-response","trial_index":55,"time_elapsed":405344,"internal_node_id":"0.0-3.0-0.52","subject_id":"5eb53f0da7325c023549eff9","study_id":"605e2a800ccfa0c8e820d869","session_id":"6062209a99e065707ac69628"},{"rt":4565.14499999996,"stimulus":"img/00023.png","slider_start":4,"response":1,"trial_type":"image-slider-response","trial_index":56,"time_elapsed":409911,"internal_node_id":"0.0-3.0-0.53","subject_id":"5eb53f0da7325c023549eff9","study_id":"605e2a800ccfa0c8e820d869","session_id":"6062209a99e065707ac69628"},{"rt":1875.7450000000536,"stimulus":"img/00587.png","slider_start":4,"response":5,"trial_type":"image-slider-response","trial_index":57,"time_elapsed":411789,"internal_node_id":"0.0-3.0-0.54","subject_id":"5eb53f0da7325c023549eff9","study_id":"605e2a800ccfa0c8e820d869","session_id":"6062209a99e065707ac69628"},{"rt":3167.494999999937,"stimulus":"img/00521.png","slider_start":4,"response":3,"trial_type":"image-slider-response","trial_index":58,"time_elapsed":414958,"internal_node_id":"0.0-3.0-0.55","subject_id":"5eb53f0da7325c023549eff9","study_id":"605e2a800ccfa0c8e820d869","session_id":"6062209a99e065707ac69628"},{"rt":6244.259999999951,"stimulus":"img/00764.png","slider_start":4,"response":2,"trial_type":"image-slider-response","trial_index":59,"time_elapsed":421204,"internal_node_id":"0.0-3.0-0.56","subject_id":"5eb53f0da7325c023549eff9","study_id":"605e2a800ccfa0c8e820d869","session_id":"6062209a99e065707ac69628"},{"rt":7033.769999999844,"stimulus":"img/00100.png","slider_start":4,"response":3,"trial_type":"image-slider-response","trial_index":60,"time_elapsed":428240,"internal_node_id":"0.0-3.0-0.57","subject_id":"5eb53f0da7325c023549eff9","study_id":"605e2a800ccfa0c8e820d869","session_id":"6062209a99e065707ac69628"},{"rt":5059.4000000000815,"stimulus":"img/00101.png","slider_start":4,"response":1,"trial_type":"image-slider-response","trial_index":61,"time_elapsed":433301,"internal_node_id":"0.0-3.0-0.58","subject_id":"5eb53f0da7325c023549eff9","study_id":"605e2a800ccfa0c8e820d869","session_id":"6062209a99e065707ac69628"},{"rt":2741.9750000001513,"stimulus":"img/00041.png","slider_start":4,"response":7,"trial_type":"image-slider-response","trial_index":62,"time_elapsed":436045,"internal_node_id":"0.0-3.0-0.59","subject_id":"5eb53f0da7325c023549eff9","study_id":"605e2a800ccfa0c8e820d869","session_id":"6062209a99e065707ac69628"},{"rt":8228.129999999946,"stimulus":"img/00896.png","slider_start":4,"response":2,"trial_type":"image-slider-response","trial_index":63,"time_elapsed":444275,"internal_node_id":"0.0-3.0-0.60","subject_id":"5eb53f0da7325c023549eff9","study_id":"605e2a800ccfa0c8e820d869","session_id":"6062209a99e065707ac69628"},{"rt":6079.424999999872,"stimulus":"img/00525.png","slider_start":4,"response":2,"trial_type":"image-slider-response","trial_index":64,"time_elapsed":450356,"internal_node_id":"0.0-3.0-0.61","subject_id":"5eb53f0da7325c023549eff9","study_id":"605e2a800ccfa0c8e820d869","session_id":"6062209a99e065707ac69628"},{"rt":3242.8699999999953,"stimulus":"img/00504.png","slider_start":4,"response":3,"trial_type":"image-slider-response","trial_index":65,"time_elapsed":453601,"internal_node_id":"0.0-3.0-0.62","subject_id":"5eb53f0da7325c023549eff9","study_id":"605e2a800ccfa0c8e820d869","session_id":"6062209a99e065707ac69628"},{"rt":1545.149999999965,"stimulus":"img/00115.png","slider_start":4,"response":2,"trial_type":"image-slider-response","trial_index":66,"time_elapsed":455148,"internal_node_id":"0.0-3.0-0.63","subject_id":"5eb53f0da7325c023549eff9","study_id":"605e2a800ccfa0c8e820d869","session_id":"6062209a99e065707ac69628"},{"rt":2494.794999999809,"stimulus":"img/00708.png","slider_start":4,"response":3,"trial_type":"image-slider-response","trial_index":67,"time_elapsed":457644,"internal_node_id":"0.0-3.0-0.64","subject_id":"5eb53f0da7325c023549eff9","study_id":"605e2a800ccfa0c8e820d869","session_id":"6062209a99e065707ac69628"},{"rt":20830.894999999844,"stimulus":"img/00472.png","slider_start":4,"response":3,"trial_type":"image-slider-response","trial_index":68,"time_elapsed":478477,"internal_node_id":"0.0-3.0-0.65","subject_id":"5eb53f0da7325c023549eff9","study_id":"605e2a800ccfa0c8e820d869","session_id":"6062209a99e065707ac69628"},{"rt":4150.020000000077,"stimulus":"img/00489.png","slider_start":4,"response":3,"trial_type":"image-slider-response","trial_index":69,"time_elapsed":482629,"internal_node_id":"0.0-3.0-0.66","subject_id":"5eb53f0da7325c023549eff9","study_id":"605e2a800ccfa0c8e820d869","session_id":"6062209a99e065707ac69628"},{"rt":2368.2149999999674,"stimulus":"img/00780.png","slider_start":4,"response":2,"trial_type":"image-slider-response","trial_index":70,"time_elapsed":484999,"internal_node_id":"0.0-3.0-0.67","subject_id":"5eb53f0da7325c023549eff9","study_id":"605e2a800ccfa0c8e820d869","session_id":"6062209a99e065707ac69628"},{"rt":7966.305000000109,"stimulus":"img/00012.png","slider_start":4,"response":2,"trial_type":"image-slider-response","trial_index":71,"time_elapsed":492967,"internal_node_id":"0.0-3.0-0.68","subject_id":"5eb53f0da7325c023549eff9","study_id":"605e2a800ccfa0c8e820d869","session_id":"6062209a99e065707ac69628"},{"rt":9545.794999999984,"stimulus":"img/00438.png","slider_start":4,"response":3,"trial_type":"image-slider-response","trial_index":72,"time_elapsed":502515,"internal_node_id":"0.0-3.0-0.69","subject_id":"5eb53f0da7325c023549eff9","study_id":"605e2a800ccfa0c8e820d869","session_id":"6062209a99e065707ac69628"},{"rt":4121.865000000049,"stimulus":"img/00791.png","slider_start":4,"response":3,"trial_type":"image-slider-response","trial_index":73,"time_elapsed":506639,"internal_node_id":"0.0-3.0-0.70","subject_id":"5eb53f0da7325c023549eff9","study_id":"605e2a800ccfa0c8e820d869","session_id":"6062209a99e065707ac69628"},{"rt":2609.429999999993,"stimulus":"img/00755.png","slider_start":4,"response":3,"trial_type":"image-slider-response","trial_index":74,"time_elapsed":509250,"internal_node_id":"0.0-3.0-0.71","subject_id":"5eb53f0da7325c023549eff9","study_id":"605e2a800ccfa0c8e820d869","session_id":"6062209a99e065707ac69628"},{"rt":2654.094999999914,"stimulus":"img/00612.png","slider_start":4,"response":2,"trial_type":"image-slider-response","trial_index":75,"time_elapsed":511906,"internal_node_id":"0.0-3.0-0.72","subject_id":"5eb53f0da7325c023549eff9","study_id":"605e2a800ccfa0c8e820d869","session_id":"6062209a99e065707ac69628"},{"rt":1679.5800000000163,"stimulus":"img/00542.png","slider_start":4,"response":2,"trial_type":"image-slider-response","trial_index":76,"time_elapsed":513587,"internal_node_id":"0.0-3.0-0.73","subject_id":"5eb53f0da7325c023549eff9","study_id":"605e2a800ccfa0c8e820d869","session_id":"6062209a99e065707ac69628"},{"rt":3193.344999999914,"stimulus":"img/00511.png","slider_start":4,"response":2,"trial_type":"image-slider-response","trial_index":77,"time_elapsed":516782,"internal_node_id":"0.0-3.0-0.74","subject_id":"5eb53f0da7325c023549eff9","study_id":"605e2a800ccfa0c8e820d869","session_id":"6062209a99e065707ac69628"},{"rt":2625.835000000021,"stimulus":"img/00594.png","slider_start":4,"response":4,"trial_type":"image-slider-response","trial_index":78,"time_elapsed":519410,"internal_node_id":"0.0-3.0-0.75","subject_id":"5eb53f0da7325c023549eff9","study_id":"605e2a800ccfa0c8e820d869","session_id":"6062209a99e065707ac69628"},{"rt":3875.3600000000442,"stimulus":"img/00016.png","slider_start":4,"response":2,"trial_type":"image-slider-response","trial_index":79,"time_elapsed":523287,"internal_node_id":"0.0-3.0-0.76","subject_id":"5eb53f0da7325c023549eff9","study_id":"605e2a800ccfa0c8e820d869","session_id":"6062209a99e065707ac69628"},{"rt":2192.079999999958,"stimulus":"img/00848.png","slider_start":4,"response":5,"trial_type":"image-slider-response","trial_index":80,"time_elapsed":525481,"internal_node_id":"0.0-3.0-0.77","subject_id":"5eb53f0da7325c023549eff9","study_id":"605e2a800ccfa0c8e820d869","session_id":"6062209a99e065707ac69628"},{"rt":1964.244999999879,"stimulus":"img/00440.png","slider_start":4,"response":2,"trial_type":"image-slider-response","trial_index":81,"time_elapsed":527447,"internal_node_id":"0.0-3.0-0.78","subject_id":"5eb53f0da7325c023549eff9","study_id":"605e2a800ccfa0c8e820d869","session_id":"6062209a99e065707ac69628"},{"rt":3992.1299999998882,"stimulus":"img/00006.png","slider_start":4,"response":4,"trial_type":"image-slider-response","trial_index":82,"time_elapsed":531441,"internal_node_id":"0.0-3.0-0.79","subject_id":"5eb53f0da7325c023549eff9","study_id":"605e2a800ccfa0c8e820d869","session_id":"6062209a99e065707ac69628"},{"rt":2509.0899999999674,"stimulus":"img/00079.png","slider_start":4,"response":2,"trial_type":"image-slider-response","trial_index":83,"time_elapsed":533952,"internal_node_id":"0.0-3.0-0.80","subject_id":"5eb53f0da7325c023549eff9","study_id":"605e2a800ccfa0c8e820d869","session_id":"6062209a99e065707ac69628"},{"rt":5050.264999999898,"stimulus":"img/00564.png","slider_start":4,"response":4,"trial_type":"image-slider-response","trial_index":84,"time_elapsed":539004,"internal_node_id":"0.0-3.0-0.81","subject_id":"5eb53f0da7325c023549eff9","study_id":"605e2a800ccfa0c8e820d869","session_id":"6062209a99e065707ac69628"},{"rt":4022.5799999998417,"stimulus":"img/00456.png","slider_start":4,"response":3,"trial_type":"image-slider-response","trial_index":85,"time_elapsed":543029,"internal_node_id":"0.0-3.0-0.82","subject_id":"5eb53f0da7325c023549eff9","study_id":"605e2a800ccfa0c8e820d869","session_id":"6062209a99e065707ac69628"},{"rt":3359.439999999944,"stimulus":"img/00744.png","slider_start":4,"response":3,"trial_type":"image-slider-response","trial_index":86,"time_elapsed":546390,"internal_node_id":"0.0-3.0-0.83","subject_id":"5eb53f0da7325c023549eff9","study_id":"605e2a800ccfa0c8e820d869","session_id":"6062209a99e065707ac69628"},{"rt":3500.005000000121,"stimulus":"img/00592.png","slider_start":4,"response":6,"trial_type":"image-slider-response","trial_index":87,"time_elapsed":549892,"internal_node_id":"0.0-3.0-0.84","subject_id":"5eb53f0da7325c023549eff9","study_id":"605e2a800ccfa0c8e820d869","session_id":"6062209a99e065707ac69628"},{"rt":3122.810000000056,"stimulus":"img/00995.png","slider_start":4,"response":3,"trial_type":"image-slider-response","trial_index":88,"time_elapsed":553017,"internal_node_id":"0.0-3.0-0.85","subject_id":"5eb53f0da7325c023549eff9","study_id":"605e2a800ccfa0c8e820d869","session_id":"6062209a99e065707ac69628"},{"rt":6037.89000000013,"stimulus":"img/00570.png","slider_start":4,"response":5,"trial_type":"image-slider-response","trial_index":89,"time_elapsed":559057,"internal_node_id":"0.0-3.0-0.86","subject_id":"5eb53f0da7325c023549eff9","study_id":"605e2a800ccfa0c8e820d869","session_id":"6062209a99e065707ac69628"},{"rt":12056.939999999944,"stimulus":"img/00432.png","slider_start":4,"response":7,"trial_type":"image-slider-response","trial_index":90,"time_elapsed":571116,"internal_node_id":"0.0-3.0-0.87","subject_id":"5eb53f0da7325c023549eff9","study_id":"605e2a800ccfa0c8e820d869","session_id":"6062209a99e065707ac69628"},{"rt":2399.0200000000186,"stimulus":"img/00748.png","slider_start":4,"response":2,"trial_type":"image-slider-response","trial_index":91,"time_elapsed":573517,"internal_node_id":"0.0-3.0-0.88","subject_id":"5eb53f0da7325c023549eff9","study_id":"605e2a800ccfa0c8e820d869","session_id":"6062209a99e065707ac69628"},{"rt":2019.574999999837,"stimulus":"img/00127.png","slider_start":4,"response":3,"trial_type":"image-slider-response","trial_index":92,"time_elapsed":575538,"internal_node_id":"0.0-3.0-0.89","subject_id":"5eb53f0da7325c023549eff9","study_id":"605e2a800ccfa0c8e820d869","session_id":"6062209a99e065707ac69628"},{"rt":2837.650000000256,"stimulus":"img/00130.png","slider_start":4,"response":2,"trial_type":"image-slider-response","trial_index":93,"time_elapsed":578377,"internal_node_id":"0.0-3.0-0.90","subject_id":"5eb53f0da7325c023549eff9","study_id":"605e2a800ccfa0c8e820d869","session_id":"6062209a99e065707ac69628"},{"rt":3536.4749999999767,"stimulus":"img/00454.png","slider_start":4,"response":3,"trial_type":"image-slider-response","trial_index":94,"time_elapsed":581915,"internal_node_id":"0.0-3.0-0.91","subject_id":"5eb53f0da7325c023549eff9","study_id":"605e2a800ccfa0c8e820d869","session_id":"6062209a99e065707ac69628"},{"rt":1765.7149999999674,"stimulus":"img/00689.png","slider_start":4,"response":4,"trial_type":"image-slider-response","trial_index":95,"time_elapsed":583683,"internal_node_id":"0.0-3.0-0.92","subject_id":"5eb53f0da7325c023549eff9","study_id":"605e2a800ccfa0c8e820d869","session_id":"6062209a99e065707ac69628"},{"rt":7078.619999999995,"stimulus":"img/00405.png","slider_start":4,"response":5,"trial_type":"image-slider-response","trial_index":96,"time_elapsed":590763,"internal_node_id":"0.0-3.0-0.93","subject_id":"5eb53f0da7325c023549eff9","study_id":"605e2a800ccfa0c8e820d869","session_id":"6062209a99e065707ac69628"},{"rt":4659.660000000033,"stimulus":"img/00479.png","slider_start":4,"response":4,"trial_type":"image-slider-response","trial_index":97,"time_elapsed":595425,"internal_node_id":"0.0-3.0-0.94","subject_id":"5eb53f0da7325c023549eff9","study_id":"605e2a800ccfa0c8e820d869","session_id":"6062209a99e065707ac69628"},{"rt":2180.4000000000233,"stimulus":"img/00496.png","slider_start":4,"response":4,"trial_type":"image-slider-response","trial_index":98,"time_elapsed":597607,"internal_node_id":"0.0-3.0-0.95","subject_id":"5eb53f0da7325c023549eff9","study_id":"605e2a800ccfa0c8e820d869","session_id":"6062209a99e065707ac69628"},{"rt":2694.320000000065,"stimulus":"img/00418.png","slider_start":4,"response":4,"trial_type":"image-slider-response","trial_index":99,"time_elapsed":600303,"internal_node_id":"0.0-3.0-0.96","subject_id":"5eb53f0da7325c023549eff9","study_id":"605e2a800ccfa0c8e820d869","session_id":"6062209a99e065707ac69628"},{"rt":2867.364999999758,"stimulus":"img/00903.png","slider_start":4,"response":4,"trial_type":"image-slider-response","trial_index":100,"time_elapsed":603172,"internal_node_id":"0.0-3.0-0.97","subject_id":"5eb53f0da7325c023549eff9","study_id":"605e2a800ccfa0c8e820d869","session_id":"6062209a99e065707ac69628"},{"rt":180.2449999997625,"stimulus":"img/00928.png","slider_start":4,"response":4,"trial_type":"image-slider-response","trial_index":101,"time_elapsed":603354,"internal_node_id":"0.0-3.0-0.98","subject_id":"5eb53f0da7325c023549eff9","study_id":"605e2a800ccfa0c8e820d869","session_id":"6062209a99e065707ac69628"},{"rt":2830.3399999999674,"stimulus":"img/00731.png","slider_start":4,"response":3,"trial_type":"image-slider-response","trial_index":102,"time_elapsed":606186,"internal_node_id":"0.0-3.0-0.99","subject_id":"5eb53f0da7325c023549eff9","study_id":"605e2a800ccfa0c8e820d869","session_id":"6062209a99e065707ac69628"},{"rt":12217.400000000023,"stimulus":"img/00064.png","slider_start":4,"response":3,"trial_type":"image-slider-response","trial_index":103,"time_elapsed":618406,"internal_node_id":"0.0-3.0-0.100","subject_id":"5eb53f0da7325c023549eff9","study_id":"605e2a800ccfa0c8e820d869","session_id":"6062209a99e065707ac69628"},{"rt":3484.965000000084,"stimulus":"img/00581.png","slider_start":4,"response":3,"trial_type":"image-slider-response","trial_index":104,"time_elapsed":621894,"internal_node_id":"0.0-3.0-0.101","subject_id":"5eb53f0da7325c023549eff9","study_id":"605e2a800ccfa0c8e820d869","session_id":"6062209a99e065707ac69628"},{"rt":2815.359999999986,"stimulus":"img/00760.png","slider_start":4,"response":4,"trial_type":"image-slider-response","trial_index":105,"time_elapsed":624711,"internal_node_id":"0.0-3.0-0.102","subject_id":"5eb53f0da7325c023549eff9","study_id":"605e2a800ccfa0c8e820d869","session_id":"6062209a99e065707ac69628"},{"rt":2903.780000000028,"stimulus":"img/00756.png","slider_start":4,"response":4,"trial_type":"image-slider-response","trial_index":106,"time_elapsed":627617,"internal_node_id":"0.0-3.0-0.103","subject_id":"5eb53f0da7325c023549eff9","study_id":"605e2a800ccfa0c8e820d869","session_id":"6062209a99e065707ac69628"},{"rt":3010.3649999998743,"stimulus":"img/00029.png","slider_start":4,"response":3,"trial_type":"image-slider-response","trial_index":107,"time_elapsed":630629,"internal_node_id":"0.0-3.0-0.104","subject_id":"5eb53f0da7325c023549eff9","study_id":"605e2a800ccfa0c8e820d869","session_id":"6062209a99e065707ac69628"},{"rt":10653.955000000075,"stimulus":"img/00478.png","slider_start":4,"response":3,"trial_type":"image-slider-response","trial_index":108,"time_elapsed":641285,"internal_node_id":"0.0-3.0-0.105","subject_id":"5eb53f0da7325c023549eff9","study_id":"605e2a800ccfa0c8e820d869","session_id":"6062209a99e065707ac69628"},{"rt":8214.305000000051,"stimulus":"img/00113.png","slider_start":4,"response":3,"trial_type":"image-slider-response","trial_index":109,"time_elapsed":649501,"internal_node_id":"0.0-3.0-0.106","subject_id":"5eb53f0da7325c023549eff9","study_id":"605e2a800ccfa0c8e820d869","session_id":"6062209a99e065707ac69628"},{"rt":5353.839999999967,"stimulus":"img/00447.png","slider_start":4,"response":3,"trial_type":"image-slider-response","trial_index":110,"time_elapsed":654857,"internal_node_id":"0.0-3.0-0.107","subject_id":"5eb53f0da7325c023549eff9","study_id":"605e2a800ccfa0c8e820d869","session_id":"6062209a99e065707ac69628"},{"rt":2232.9300000001676,"stimulus":"img/00569.png","slider_start":4,"response":3,"trial_type":"image-slider-response","trial_index":111,"time_elapsed":657092,"internal_node_id":"0.0-3.0-0.108","subject_id":"5eb53f0da7325c023549eff9","study_id":"605e2a800ccfa0c8e820d869","session_id":"6062209a99e065707ac69628"},{"rt":4131.099999999977,"stimulus":"img/00854.png","slider_start":4,"response":2,"trial_type":"image-slider-response","trial_index":112,"time_elapsed":661225,"internal_node_id":"0.0-3.0-0.109","subject_id":"5eb53f0da7325c023549eff9","study_id":"605e2a800ccfa0c8e820d869","session_id":"6062209a99e065707ac69628"},{"rt":3015.115000000107,"stimulus":"img/00082.png","slider_start":4,"response":3,"trial_type":"image-slider-response","trial_index":113,"time_elapsed":664242,"internal_node_id":"0.0-3.0-0.110","subject_id":"5eb53f0da7325c023549eff9","study_id":"605e2a800ccfa0c8e820d869","session_id":"6062209a99e065707ac69628"},{"rt":3185.954999999958,"stimulus":"img/00499.png","slider_start":4,"response":2,"trial_type":"image-slider-response","trial_index":114,"time_elapsed":667430,"internal_node_id":"0.0-3.0-0.111","subject_id":"5eb53f0da7325c023549eff9","study_id":"605e2a800ccfa0c8e820d869","session_id":"6062209a99e065707ac69628"},{"rt":5909.179999999935,"stimulus":"img/00469.png","slider_start":4,"response":5,"trial_type":"image-slider-response","trial_index":115,"time_elapsed":673341,"internal_node_id":"0.0-3.0-0.112","subject_id":"5eb53f0da7325c023549eff9","study_id":"605e2a800ccfa0c8e820d869","session_id":"6062209a99e065707ac69628"},{"rt":1732.0400000000373,"stimulus":"img/00105.png","slider_start":4,"response":4,"trial_type":"image-slider-response","trial_index":116,"time_elapsed":675075,"internal_node_id":"0.0-3.0-0.113","subject_id":"5eb53f0da7325c023549eff9","study_id":"605e2a800ccfa0c8e820d869","session_id":"6062209a99e065707ac69628"},{"rt":1811.7600000001257,"stimulus":"img/00483.png","slider_start":4,"response":3,"trial_type":"image-slider-response","trial_index":117,"time_elapsed":676889,"internal_node_id":"0.0-3.0-0.114","subject_id":"5eb53f0da7325c023549eff9","study_id":"605e2a800ccfa0c8e820d869","session_id":"6062209a99e065707ac69628"},{"rt":6517.4400000000605,"stimulus":"img/00691.png","slider_start":4,"response":3,"trial_type":"image-slider-response","trial_index":118,"time_elapsed":683408,"internal_node_id":"0.0-3.0-0.115","subject_id":"5eb53f0da7325c023549eff9","study_id":"605e2a800ccfa0c8e820d869","session_id":"6062209a99e065707ac69628"},{"rt":3252.859999999753,"stimulus":"img/00653.png","slider_start":4,"response":3,"trial_type":"image-slider-response","trial_index":119,"time_elapsed":686663,"internal_node_id":"0.0-3.0-0.116","subject_id":"5eb53f0da7325c023549eff9","study_id":"605e2a800ccfa0c8e820d869","session_id":"6062209a99e065707ac69628"},{"rt":5440.395000000019,"stimulus":"img/00989.png","slider_start":4,"response":4,"trial_type":"image-slider-response","trial_index":120,"time_elapsed":692105,"internal_node_id":"0.0-3.0-0.117","subject_id":"5eb53f0da7325c023549eff9","study_id":"605e2a800ccfa0c8e820d869","session_id":"6062209a99e065707ac69628"},{"rt":2118.730000000214,"stimulus":"img/00860.png","slider_start":4,"response":3,"trial_type":"image-slider-response","trial_index":121,"time_elapsed":694226,"internal_node_id":"0.0-3.0-0.118","subject_id":"5eb53f0da7325c023549eff9","study_id":"605e2a800ccfa0c8e820d869","session_id":"6062209a99e065707ac69628"},{"rt":2347.369999999879,"stimulus":"img/00543.png","slider_start":4,"response":3,"trial_type":"image-slider-response","trial_index":122,"time_elapsed":696575,"internal_node_id":"0.0-3.0-0.119","subject_id":"5eb53f0da7325c023549eff9","study_id":"605e2a800ccfa0c8e820d869","session_id":"6062209a99e065707ac69628"},{"rt":3322.695000000065,"stimulus":"img/00799.png","slider_start":4,"response":2,"trial_type":"image-slider-response","trial_index":123,"time_elapsed":699899,"internal_node_id":"0.0-3.0-0.120","subject_id":"5eb53f0da7325c023549eff9","study_id":"605e2a800ccfa0c8e820d869","session_id":"6062209a99e065707ac69628"},{"rt":4761.729999999865,"stimulus":"img/00879.png","slider_start":4,"response":5,"trial_type":"image-slider-response","trial_index":124,"time_elapsed":704663,"internal_node_id":"0.0-3.0-0.121","subject_id":"5eb53f0da7325c023549eff9","study_id":"605e2a800ccfa0c8e820d869","session_id":"6062209a99e065707ac69628"},{"rt":3381.920000000042,"stimulus":"img/00761.png","slider_start":4,"response":4,"trial_type":"image-slider-response","trial_index":125,"time_elapsed":708047,"internal_node_id":"0.0-3.0-0.122","subject_id":"5eb53f0da7325c023549eff9","study_id":"605e2a800ccfa0c8e820d869","session_id":"6062209a99e065707ac69628"},{"rt":2779.169999999809,"stimulus":"img/00401.png","slider_start":4,"response":2,"trial_type":"image-slider-response","trial_index":126,"time_elapsed":710828,"internal_node_id":"0.0-3.0-0.123","subject_id":"5eb53f0da7325c023549eff9","study_id":"605e2a800ccfa0c8e820d869","session_id":"6062209a99e065707ac69628"},{"rt":2046.5200000000186,"stimulus":"img/00415.png","slider_start":4,"response":2,"trial_type":"image-slider-response","trial_index":127,"time_elapsed":712876,"internal_node_id":"0.0-3.0-0.124","subject_id":"5eb53f0da7325c023549eff9","study_id":"605e2a800ccfa0c8e820d869","session_id":"6062209a99e065707ac69628"},{"rt":2052.195000000065,"stimulus":"img/00722.png","slider_start":4,"response":3,"trial_type":"image-slider-response","trial_index":128,"time_elapsed":714930,"internal_node_id":"0.0-3.0-0.125","subject_id":"5eb53f0da7325c023549eff9","study_id":"605e2a800ccfa0c8e820d869","session_id":"6062209a99e065707ac69628"},{"rt":13616.029999999912,"stimulus":"img/00986.png","slider_start":4,"response":3,"trial_type":"image-slider-response","trial_index":129,"time_elapsed":728548,"internal_node_id":"0.0-3.0-0.126","subject_id":"5eb53f0da7325c023549eff9","study_id":"605e2a800ccfa0c8e820d869","session_id":"6062209a99e065707ac69628"},{"rt":3122.289999999921,"stimulus":"img/00850.png","slider_start":4,"response":3,"trial_type":"image-slider-response","trial_index":130,"time_elapsed":731672,"internal_node_id":"0.0-3.0-0.127","subject_id":"5eb53f0da7325c023549eff9","study_id":"605e2a800ccfa0c8e820d869","session_id":"6062209a99e065707ac69628"},{"rt":9845.32500000007,"stimulus":"img/00507.png","slider_start":4,"response":3,"trial_type":"image-slider-response","trial_index":131,"time_elapsed":741519,"internal_node_id":"0.0-3.0-0.128","subject_id":"5eb53f0da7325c023549eff9","study_id":"605e2a800ccfa0c8e820d869","session_id":"6062209a99e065707ac69628"},{"rt":2023.9499999999534,"stimulus":"img/00810.png","slider_start":4,"response":3,"trial_type":"image-slider-response","trial_index":132,"time_elapsed":743545,"internal_node_id":"0.0-3.0-0.129","subject_id":"5eb53f0da7325c023549eff9","study_id":"605e2a800ccfa0c8e820d869","session_id":"6062209a99e065707ac69628"},{"rt":1404.8649999999907,"stimulus":"img/00644.png","slider_start":4,"response":4,"trial_type":"image-slider-response","trial_index":133,"time_elapsed":744952,"internal_node_id":"0.0-3.0-0.130","subject_id":"5eb53f0da7325c023549eff9","study_id":"605e2a800ccfa0c8e820d869","session_id":"6062209a99e065707ac69628"},{"rt":2333.789999999921,"stimulus":"img/00114.png","slider_start":4,"response":4,"trial_type":"image-slider-response","trial_index":134,"time_elapsed":747287,"internal_node_id":"0.0-3.0-0.131","subject_id":"5eb53f0da7325c023549eff9","study_id":"605e2a800ccfa0c8e820d869","session_id":"6062209a99e065707ac69628"},{"rt":1978.3550000002142,"stimulus":"img/00926.png","slider_start":4,"response":4,"trial_type":"image-slider-response","trial_index":135,"time_elapsed":749267,"internal_node_id":"0.0-3.0-0.132","subject_id":"5eb53f0da7325c023549eff9","study_id":"605e2a800ccfa0c8e820d869","session_id":"6062209a99e065707ac69628"},{"rt":3979.1750000000466,"stimulus":"img/00549.png","slider_start":4,"response":5,"trial_type":"image-slider-response","trial_index":136,"time_elapsed":753248,"internal_node_id":"0.0-3.0-0.133","subject_id":"5eb53f0da7325c023549eff9","study_id":"605e2a800ccfa0c8e820d869","session_id":"6062209a99e065707ac69628"},{"rt":2363.2750000001397,"stimulus":"img/00951.png","slider_start":4,"response":4,"trial_type":"image-slider-response","trial_index":137,"time_elapsed":755613,"internal_node_id":"0.0-3.0-0.134","subject_id":"5eb53f0da7325c023549eff9","study_id":"605e2a800ccfa0c8e820d869","session_id":"6062209a99e065707ac69628"},{"rt":3146.960000000079,"stimulus":"img/00797.png","slider_start":4,"response":3,"trial_type":"image-slider-response","trial_index":138,"time_elapsed":758762,"internal_node_id":"0.0-3.0-0.135","subject_id":"5eb53f0da7325c023549eff9","study_id":"605e2a800ccfa0c8e820d869","session_id":"6062209a99e065707ac69628"},{"rt":1938.1350000000093,"stimulus":"img/00833.png","slider_start":4,"response":3,"trial_type":"image-slider-response","trial_index":139,"time_elapsed":760702,"internal_node_id":"0.0-3.0-0.136","subject_id":"5eb53f0da7325c023549eff9","study_id":"605e2a800ccfa0c8e820d869","session_id":"6062209a99e065707ac69628"},{"rt":4253.459999999963,"stimulus":"img/00913.png","slider_start":4,"response":4,"trial_type":"image-slider-response","trial_index":140,"time_elapsed":764957,"internal_node_id":"0.0-3.0-0.137","subject_id":"5eb53f0da7325c023549eff9","study_id":"605e2a800ccfa0c8e820d869","session_id":"6062209a99e065707ac69628"},{"rt":9532.930000000051,"stimulus":"img/00629.png","slider_start":4,"response":3,"trial_type":"image-slider-response","trial_index":141,"time_elapsed":774492,"internal_node_id":"0.0-3.0-0.138","subject_id":"5eb53f0da7325c023549eff9","study_id":"605e2a800ccfa0c8e820d869","session_id":"6062209a99e065707ac69628"},{"rt":2863.670000000042,"stimulus":"img/00078.png","slider_start":4,"response":2,"trial_type":"image-slider-response","trial_index":142,"time_elapsed":777358,"internal_node_id":"0.0-3.0-0.139","subject_id":"5eb53f0da7325c023549eff9","study_id":"605e2a800ccfa0c8e820d869","session_id":"6062209a99e065707ac69628"},{"rt":12627.39000000013,"stimulus":"img/00902.png","slider_start":4,"response":4,"trial_type":"image-slider-response","trial_index":143,"time_elapsed":789987,"internal_node_id":"0.0-3.0-0.140","subject_id":"5eb53f0da7325c023549eff9","study_id":"605e2a800ccfa0c8e820d869","session_id":"6062209a99e065707ac69628"},{"rt":3790.719999999972,"stimulus":"img/00688.png","slider_start":4,"response":3,"trial_type":"image-slider-response","trial_index":144,"time_elapsed":793780,"internal_node_id":"0.0-3.0-0.141","subject_id":"5eb53f0da7325c023549eff9","study_id":"605e2a800ccfa0c8e820d869","session_id":"6062209a99e065707ac69628"},{"rt":13478.500000000233,"stimulus":"img/00686.png","slider_start":4,"response":3,"trial_type":"image-slider-response","trial_index":145,"time_elapsed":807260,"internal_node_id":"0.0-3.0-0.142","subject_id":"5eb53f0da7325c023549eff9","study_id":"605e2a800ccfa0c8e820d869","session_id":"6062209a99e065707ac69628"},{"rt":19608.035000000033,"stimulus":"img/00779.png","slider_start":4,"response":3,"trial_type":"image-slider-response","trial_index":146,"time_elapsed":826870,"internal_node_id":"0.0-3.0-0.143","subject_id":"5eb53f0da7325c023549eff9","study_id":"605e2a800ccfa0c8e820d869","session_id":"6062209a99e065707ac69628"},{"rt":3725.1700000001583,"stimulus":"img/00867.png","slider_start":4,"response":4,"trial_type":"image-slider-response","trial_index":147,"time_elapsed":830597,"internal_node_id":"0.0-3.0-0.144","subject_id":"5eb53f0da7325c023549eff9","study_id":"605e2a800ccfa0c8e820d869","session_id":"6062209a99e065707ac69628"},{"rt":9872.984999999986,"stimulus":"img/00822.png","slider_start":4,"response":3,"trial_type":"image-slider-response","trial_index":148,"time_elapsed":840471,"internal_node_id":"0.0-3.0-0.145","subject_id":"5eb53f0da7325c023549eff9","study_id":"605e2a800ccfa0c8e820d869","session_id":"6062209a99e065707ac69628"},{"rt":2255.3000000000466,"stimulus":"img/00718.png","slider_start":4,"response":2,"trial_type":"image-slider-response","trial_index":149,"time_elapsed":842729,"internal_node_id":"0.0-3.0-0.146","subject_id":"5eb53f0da7325c023549eff9","study_id":"605e2a800ccfa0c8e820d869","session_id":"6062209a99e065707ac69628"},{"rt":1786.1900000000605,"stimulus":"img/00561.png","slider_start":4,"response":2,"trial_type":"image-slider-response","trial_index":150,"time_elapsed":844517,"internal_node_id":"0.0-3.0-0.147","subject_id":"5eb53f0da7325c023549eff9","study_id":"605e2a800ccfa0c8e820d869","session_id":"6062209a99e065707ac69628"},{"rt":2091.429999999935,"stimulus":"img/00801.png","slider_start":4,"response":2,"trial_type":"image-slider-response","trial_index":151,"time_elapsed":846610,"internal_node_id":"0.0-3.0-0.148","subject_id":"5eb53f0da7325c023549eff9","study_id":"605e2a800ccfa0c8e820d869","session_id":"6062209a99e065707ac69628"},{"rt":2192.1399999998976,"stimulus":"img/00576.png","slider_start":4,"response":5,"trial_type":"image-slider-response","trial_index":152,"time_elapsed":848803,"internal_node_id":"0.0-3.0-0.149","subject_id":"5eb53f0da7325c023549eff9","study_id":"605e2a800ccfa0c8e820d869","session_id":"6062209a99e065707ac69628"},{"rt":1652.515000000014,"stimulus":"img/00957.png","slider_start":4,"response":3,"trial_type":"image-slider-response","trial_index":153,"time_elapsed":850458,"internal_node_id":"0.0-3.0-0.150","subject_id":"5eb53f0da7325c023549eff9","study_id":"605e2a800ccfa0c8e820d869","session_id":"6062209a99e065707ac69628"},{"rt":1475.390000000014,"stimulus":"img/00603.png","slider_start":4,"response":4,"trial_type":"image-slider-response","trial_index":154,"time_elapsed":851934,"internal_node_id":"0.0-3.0-0.151","subject_id":"5eb53f0da7325c023549eff9","study_id":"605e2a800ccfa0c8e820d869","session_id":"6062209a99e065707ac69628"},{"rt":1799.7450000001118,"stimulus":"img/00122.png","slider_start":4,"response":5,"trial_type":"image-slider-response","trial_index":155,"time_elapsed":853736,"internal_node_id":"0.0-3.0-0.152","subject_id":"5eb53f0da7325c023549eff9","study_id":"605e2a800ccfa0c8e820d869","session_id":"6062209a99e065707ac69628"},{"rt":2331.304999999935,"stimulus":"img/00790.png","slider_start":4,"response":3,"trial_type":"image-slider-response","trial_index":156,"time_elapsed":856069,"internal_node_id":"0.0-3.0-0.153","subject_id":"5eb53f0da7325c023549eff9","study_id":"605e2a800ccfa0c8e820d869","session_id":"6062209a99e065707ac69628"},{"rt":1803.4699999998556,"stimulus":"img/00693.png","slider_start":4,"response":3,"trial_type":"image-slider-response","trial_index":157,"time_elapsed":857874,"internal_node_id":"0.0-3.0-0.154","subject_id":"5eb53f0da7325c023549eff9","study_id":"605e2a800ccfa0c8e820d869","session_id":"6062209a99e065707ac69628"},{"rt":5943.334999999963,"stimulus":"img/00404.png","slider_start":4,"response":2,"trial_type":"image-slider-response","trial_index":158,"time_elapsed":863819,"internal_node_id":"0.0-3.0-0.155","subject_id":"5eb53f0da7325c023549eff9","study_id":"605e2a800ccfa0c8e820d869","session_id":"6062209a99e065707ac69628"},{"rt":11252.025000000023,"stimulus":"img/00002.png","slider_start":4,"response":3,"trial_type":"image-slider-response","trial_index":159,"time_elapsed":875073,"internal_node_id":"0.0-3.0-0.156","subject_id":"5eb53f0da7325c023549eff9","study_id":"605e2a800ccfa0c8e820d869","session_id":"6062209a99e065707ac69628"},{"rt":4922.039999999921,"stimulus":"img/00462.png","slider_start":4,"response":4,"trial_type":"image-slider-response","trial_index":160,"time_elapsed":879997,"internal_node_id":"0.0-3.0-0.157","subject_id":"5eb53f0da7325c023549eff9","study_id":"605e2a800ccfa0c8e820d869","session_id":"6062209a99e065707ac69628"},{"rt":2131.925000000163,"stimulus":"img/00793.png","slider_start":4,"response":5,"trial_type":"image-slider-response","trial_index":161,"time_elapsed":882131,"internal_node_id":"0.0-3.0-0.158","subject_id":"5eb53f0da7325c023549eff9","study_id":"605e2a800ccfa0c8e820d869","session_id":"6062209a99e065707ac69628"},{"rt":2425.340000000084,"stimulus":"img/00789.png","slider_start":4,"response":3,"trial_type":"image-slider-response","trial_index":162,"time_elapsed":884558,"internal_node_id":"0.0-3.0-0.159","subject_id":"5eb53f0da7325c023549eff9","study_id":"605e2a800ccfa0c8e820d869","session_id":"6062209a99e065707ac69628"},{"rt":2221.060000000056,"stimulus":"img/00428.png","slider_start":4,"response":2,"trial_type":"image-slider-response","trial_index":163,"time_elapsed":886780,"internal_node_id":"0.0-3.0-0.160","subject_id":"5eb53f0da7325c023549eff9","study_id":"605e2a800ccfa0c8e820d869","session_id":"6062209a99e065707ac69628"},{"rt":2255.2450000001118,"stimulus":"img/00853.png","slider_start":4,"response":4,"trial_type":"image-slider-response","trial_index":164,"time_elapsed":889037,"internal_node_id":"0.0-3.0-0.161","subject_id":"5eb53f0da7325c023549eff9","study_id":"605e2a800ccfa0c8e820d869","session_id":"6062209a99e065707ac69628"},{"rt":3767.579999999958,"stimulus":"img/00690.png","slider_start":4,"response":3,"trial_type":"image-slider-response","trial_index":165,"time_elapsed":892807,"internal_node_id":"0.0-3.0-0.162","subject_id":"5eb53f0da7325c023549eff9","study_id":"605e2a800ccfa0c8e820d869","session_id":"6062209a99e065707ac69628"},{"rt":3405.67499999993,"stimulus":"img/00437.png","slider_start":4,"response":3,"trial_type":"image-slider-response","trial_index":166,"time_elapsed":896214,"internal_node_id":"0.0-3.0-0.163","subject_id":"5eb53f0da7325c023549eff9","study_id":"605e2a800ccfa0c8e820d869","session_id":"6062209a99e065707ac69628"},{"rt":1543.324999999837,"stimulus":"img/00059.png","slider_start":4,"response":4,"trial_type":"image-slider-response","trial_index":167,"time_elapsed":897760,"internal_node_id":"0.0-3.0-0.164","subject_id":"5eb53f0da7325c023549eff9","study_id":"605e2a800ccfa0c8e820d869","session_id":"6062209a99e065707ac69628"},{"rt":1426.0250000002561,"stimulus":"img/00841.png","slider_start":4,"response":4,"trial_type":"image-slider-response","trial_index":168,"time_elapsed":899187,"internal_node_id":"0.0-3.0-0.165","subject_id":"5eb53f0da7325c023549eff9","study_id":"605e2a800ccfa0c8e820d869","session_id":"6062209a99e065707ac69628"},{"rt":2679.3600000001024,"stimulus":"img/00055.png","slider_start":4,"response":4,"trial_type":"image-slider-response","trial_index":169,"time_elapsed":901869,"internal_node_id":"0.0-3.0-0.166","subject_id":"5eb53f0da7325c023549eff9","study_id":"605e2a800ccfa0c8e820d869","session_id":"6062209a99e065707ac69628"},{"rt":4607.150000000023,"stimulus":"img/00093.png","slider_start":4,"response":2,"trial_type":"image-slider-response","trial_index":170,"time_elapsed":906478,"internal_node_id":"0.0-3.0-0.167","subject_id":"5eb53f0da7325c023549eff9","study_id":"605e2a800ccfa0c8e820d869","session_id":"6062209a99e065707ac69628"},{"rt":4217.030000000028,"stimulus":"img/00554.png","slider_start":4,"response":3,"trial_type":"image-slider-response","trial_index":171,"time_elapsed":910696,"internal_node_id":"0.0-3.0-0.168","subject_id":"5eb53f0da7325c023549eff9","study_id":"605e2a800ccfa0c8e820d869","session_id":"6062209a99e065707ac69628"},{"rt":2031.954999999958,"stimulus":"img/00018.png","slider_start":4,"response":3,"trial_type":"image-slider-response","trial_index":172,"time_elapsed":912730,"internal_node_id":"0.0-3.0-0.169","subject_id":"5eb53f0da7325c023549eff9","study_id":"605e2a800ccfa0c8e820d869","session_id":"6062209a99e065707ac69628"},{"rt":3480.515000000014,"stimulus":"img/00503.png","slider_start":4,"response":2,"trial_type":"image-slider-response","trial_index":173,"time_elapsed":916213,"internal_node_id":"0.0-3.0-0.170","subject_id":"5eb53f0da7325c023549eff9","study_id":"605e2a800ccfa0c8e820d869","session_id":"6062209a99e065707ac69628"},{"rt":4130.494999999879,"stimulus":"img/00464.png","slider_start":4,"response":1,"trial_type":"image-slider-response","trial_index":174,"time_elapsed":920345,"internal_node_id":"0.0-3.0-0.171","subject_id":"5eb53f0da7325c023549eff9","study_id":"605e2a800ccfa0c8e820d869","session_id":"6062209a99e065707ac69628"}]