[{"rt":2134.984999895096,"stimulus":"Welcome to the experiment. Press any key to begin.","response":" ","trial_type":"html-keyboard-response","trial_index":0,"time_elapsed":2137,"internal_node_id":"0.0-0.0","subject_id":"5f7b2ce6b2c8250797d6b54d","study_id":"605e2a800ccfa0c8e820d869","session_id":"606220e8ea254d22d944b3a5"},{"rt":4742.750000208616,"stimulus":"\n        <p>In this experiment, a face will appear on-screen.</p><p> <strong>Rate the face on a 1 - 7 scale based on how attractive he / she is.</strong> </p>\n        </div>\n        <p>Press any key to begin.</p>\n      ","response":" ","trial_type":"html-keyboard-response","trial_index":1,"time_elapsed":6880,"internal_node_id":"0.0-1.0","subject_id":"5f7b2ce6b2c8250797d6b54d","study_id":"605e2a800ccfa0c8e820d869","session_id":"606220e8ea254d22d944b3a5"},{"success":true,"timeout":false,"failed_images":[],"failed_audio":[],"failed_video":[],"trial_type":"preload","trial_index":2,"time_elapsed":60712,"internal_node_id":"0.0-2.0","subject_id":"5f7b2ce6b2c8250797d6b54d","study_id":"605e2a800ccfa0c8e820d869","session_id":"606220e8ea254d22d944b3a5"},{"rt":14363.16499998793,"stimulus":"img/00041.png","slider_start":4,"response":5,"trial_type":"image-slider-response","trial_index":3,"time_elapsed":75083,"internal_node_id":"0.0-3.0-0.0","subject_id":"5f7b2ce6b2c8250797d6b54d","study_id":"605e2a800ccfa0c8e820d869","session_id":"606220e8ea254d22d944b3a5"},{"rt":7632.669999962673,"stimulus":"img/00006.png","slider_start":4,"response":3,"trial_type":"image-slider-response","trial_index":4,"time_elapsed":82717,"internal_node_id":"0.0-3.0-0.1","subject_id":"5f7b2ce6b2c8250797d6b54d","study_id":"605e2a800ccfa0c8e820d869","session_id":"606220e8ea254d22d944b3a5"},{"rt":2619.300000136718,"stimulus":"img/00405.png","slider_start":4,"response":5,"trial_type":"image-slider-response","trial_index":5,"time_elapsed":85338,"internal_node_id":"0.0-3.0-0.2","subject_id":"5f7b2ce6b2c8250797d6b54d","study_id":"605e2a800ccfa0c8e820d869","session_id":"606220e8ea254d22d944b3a5"},{"rt":3505.3449999541044,"stimulus":"img/00542.png","slider_start":4,"response":3,"trial_type":"image-slider-response","trial_index":6,"time_elapsed":88845,"internal_node_id":"0.0-3.0-0.3","subject_id":"5f7b2ce6b2c8250797d6b54d","study_id":"605e2a800ccfa0c8e820d869","session_id":"606220e8ea254d22d944b3a5"},{"rt":2935.8600000850856,"stimulus":"img/00773.png","slider_start":4,"response":3,"trial_type":"image-slider-response","trial_index":7,"time_elapsed":91782,"internal_node_id":"0.0-3.0-0.4","subject_id":"5f7b2ce6b2c8250797d6b54d","study_id":"605e2a800ccfa0c8e820d869","session_id":"606220e8ea254d22d944b3a5"},{"rt":1889.4500001333654,"stimulus":"img/00842.png","slider_start":4,"response":3,"trial_type":"image-slider-response","trial_index":8,"time_elapsed":93673,"internal_node_id":"0.0-3.0-0.5","subject_id":"5f7b2ce6b2c8250797d6b54d","study_id":"605e2a800ccfa0c8e820d869","session_id":"606220e8ea254d22d944b3a5"},{"rt":5201.87500002794,"stimulus":"img/00791.png","slider_start":4,"response":3,"trial_type":"image-slider-response","trial_index":9,"time_elapsed":98876,"internal_node_id":"0.0-3.0-0.6","subject_id":"5f7b2ce6b2c8250797d6b54d","study_id":"605e2a800ccfa0c8e820d869","session_id":"606220e8ea254d22d944b3a5"},{"rt":6544.27000018768,"stimulus":"img/00427.png","slider_start":4,"response":5,"trial_type":"image-slider-response","trial_index":10,"time_elapsed":105422,"internal_node_id":"0.0-3.0-0.7","subject_id":"5f7b2ce6b2c8250797d6b54d","study_id":"605e2a800ccfa0c8e820d869","session_id":"606220e8ea254d22d944b3a5"},{"rt":1771.279999986291,"stimulus":"img/00037.png","slider_start":4,"response":3,"trial_type":"image-slider-response","trial_index":11,"time_elapsed":107195,"internal_node_id":"0.0-3.0-0.8","subject_id":"5f7b2ce6b2c8250797d6b54d","study_id":"605e2a800ccfa0c8e820d869","session_id":"606220e8ea254d22d944b3a5"},{"rt":1915.0050000753254,"stimulus":"img/00898.png","slider_start":4,"response":2,"trial_type":"image-slider-response","trial_index":12,"time_elapsed":109111,"internal_node_id":"0.0-3.0-0.9","subject_id":"5f7b2ce6b2c8250797d6b54d","study_id":"605e2a800ccfa0c8e820d869","session_id":"606220e8ea254d22d944b3a5"},{"rt":1970.7550001330674,"stimulus":"img/00440.png","slider_start":4,"response":2,"trial_type":"image-slider-response","trial_index":13,"time_elapsed":111083,"internal_node_id":"0.0-3.0-0.10","subject_id":"5f7b2ce6b2c8250797d6b54d","study_id":"605e2a800ccfa0c8e820d869","session_id":"606220e8ea254d22d944b3a5"},{"rt":2765.5499998945743,"stimulus":"img/00756.png","slider_start":4,"response":2,"trial_type":"image-slider-response","trial_index":14,"time_elapsed":113850,"internal_node_id":"0.0-3.0-0.11","subject_id":"5f7b2ce6b2c8250797d6b54d","study_id":"605e2a800ccfa0c8e820d869","session_id":"606220e8ea254d22d944b3a5"},{"rt":3594.550000037998,"stimulus":"img/00522.png","slider_start":4,"response":2,"trial_type":"image-slider-response","trial_index":15,"time_elapsed":117446,"internal_node_id":"0.0-3.0-0.12","subject_id":"5f7b2ce6b2c8250797d6b54d","study_id":"605e2a800ccfa0c8e820d869","session_id":"606220e8ea254d22d944b3a5"},{"rt":3498.7099999561906,"stimulus":"img/00722.png","slider_start":4,"response":3,"trial_type":"image-slider-response","trial_index":16,"time_elapsed":120946,"internal_node_id":"0.0-3.0-0.13","subject_id":"5f7b2ce6b2c8250797d6b54d","study_id":"605e2a800ccfa0c8e820d869","session_id":"606220e8ea254d22d944b3a5"},{"rt":6839.659999823198,"stimulus":"img/00499.png","slider_start":4,"response":2,"trial_type":"image-slider-response","trial_index":17,"time_elapsed":127786,"internal_node_id":"0.0-3.0-0.14","subject_id":"5f7b2ce6b2c8250797d6b54d","study_id":"605e2a800ccfa0c8e820d869","session_id":"606220e8ea254d22d944b3a5"},{"rt":2518.709999974817,"stimulus":"img/00989.png","slider_start":4,"response":3,"trial_type":"image-slider-response","trial_index":18,"time_elapsed":130307,"internal_node_id":"0.0-3.0-0.15","subject_id":"5f7b2ce6b2c8250797d6b54d","study_id":"605e2a800ccfa0c8e820d869","session_id":"606220e8ea254d22d944b3a5"},{"rt":2040.4950000811368,"stimulus":"img/00045.png","slider_start":4,"response":3,"trial_type":"image-slider-response","trial_index":19,"time_elapsed":132348,"internal_node_id":"0.0-3.0-0.16","subject_id":"5f7b2ce6b2c8250797d6b54d","study_id":"605e2a800ccfa0c8e820d869","session_id":"606220e8ea254d22d944b3a5"},{"rt":3517.930000089109,"stimulus":"img/00850.png","slider_start":4,"response":3,"trial_type":"image-slider-response","trial_index":20,"time_elapsed":135868,"internal_node_id":"0.0-3.0-0.17","subject_id":"5f7b2ce6b2c8250797d6b54d","study_id":"605e2a800ccfa0c8e820d869","session_id":"606220e8ea254d22d944b3a5"},{"rt":3454.5299999881536,"stimulus":"img/00406.png","slider_start":4,"response":2,"trial_type":"image-slider-response","trial_index":21,"time_elapsed":139324,"internal_node_id":"0.0-3.0-0.18","subject_id":"5f7b2ce6b2c8250797d6b54d","study_id":"605e2a800ccfa0c8e820d869","session_id":"606220e8ea254d22d944b3a5"},{"rt":1738.3399999234825,"stimulus":"img/00126.png","slider_start":4,"response":3,"trial_type":"image-slider-response","trial_index":22,"time_elapsed":141063,"internal_node_id":"0.0-3.0-0.19","subject_id":"5f7b2ce6b2c8250797d6b54d","study_id":"605e2a800ccfa0c8e820d869","session_id":"606220e8ea254d22d944b3a5"},{"rt":2248.850000090897,"stimulus":"img/00489.png","slider_start":4,"response":3,"trial_type":"image-slider-response","trial_index":23,"time_elapsed":143313,"internal_node_id":"0.0-3.0-0.20","subject_id":"5f7b2ce6b2c8250797d6b54d","study_id":"605e2a800ccfa0c8e820d869","session_id":"606220e8ea254d22d944b3a5"},{"rt":1807.719999924302,"stimulus":"img/00023.png","slider_start":4,"response":5,"trial_type":"image-slider-response","trial_index":24,"time_elapsed":145123,"internal_node_id":"0.0-3.0-0.21","subject_id":"5f7b2ce6b2c8250797d6b54d","study_id":"605e2a800ccfa0c8e820d869","session_id":"606220e8ea254d22d944b3a5"},{"rt":1537.5699999276549,"stimulus":"img/00082.png","slider_start":4,"response":5,"trial_type":"image-slider-response","trial_index":25,"time_elapsed":146661,"internal_node_id":"0.0-3.0-0.22","subject_id":"5f7b2ce6b2c8250797d6b54d","study_id":"605e2a800ccfa0c8e820d869","session_id":"606220e8ea254d22d944b3a5"},{"rt":1524.8749998863786,"stimulus":"img/00466.png","slider_start":4,"response":3,"trial_type":"image-slider-response","trial_index":26,"time_elapsed":148187,"internal_node_id":"0.0-3.0-0.23","subject_id":"5f7b2ce6b2c8250797d6b54d","study_id":"605e2a800ccfa0c8e820d869","session_id":"606220e8ea254d22d944b3a5"},{"rt":1511.9249999988824,"stimulus":"img/00764.png","slider_start":4,"response":3,"trial_type":"image-slider-response","trial_index":27,"time_elapsed":149701,"internal_node_id":"0.0-3.0-0.24","subject_id":"5f7b2ce6b2c8250797d6b54d","study_id":"605e2a800ccfa0c8e820d869","session_id":"606220e8ea254d22d944b3a5"},{"rt":13666.685000061989,"stimulus":"img/00691.png","slider_start":4,"response":5,"trial_type":"image-slider-response","trial_index":28,"time_elapsed":163368,"internal_node_id":"0.0-3.0-0.25","subject_id":"5f7b2ce6b2c8250797d6b54d","study_id":"605e2a800ccfa0c8e820d869","session_id":"606220e8ea254d22d944b3a5"},{"rt":2089.5849999506027,"stimulus":"img/00413.png","slider_start":4,"response":5,"trial_type":"image-slider-response","trial_index":29,"time_elapsed":165460,"internal_node_id":"0.0-3.0-0.26","subject_id":"5f7b2ce6b2c8250797d6b54d","study_id":"605e2a800ccfa0c8e820d869","session_id":"606220e8ea254d22d944b3a5"},{"rt":2025.6650000810623,"stimulus":"img/00563.png","slider_start":4,"response":3,"trial_type":"image-slider-response","trial_index":30,"time_elapsed":167486,"internal_node_id":"0.0-3.0-0.27","subject_id":"5f7b2ce6b2c8250797d6b54d","study_id":"605e2a800ccfa0c8e820d869","session_id":"606220e8ea254d22d944b3a5"},{"rt":3853.5499998833984,"stimulus":"img/00690.png","slider_start":4,"response":5,"trial_type":"image-slider-response","trial_index":31,"time_elapsed":171341,"internal_node_id":"0.0-3.0-0.28","subject_id":"5f7b2ce6b2c8250797d6b54d","study_id":"605e2a800ccfa0c8e820d869","session_id":"606220e8ea254d22d944b3a5"},{"rt":2210.8699998352677,"stimulus":"img/00744.png","slider_start":4,"response":3,"trial_type":"image-slider-response","trial_index":32,"time_elapsed":173553,"internal_node_id":"0.0-3.0-0.29","subject_id":"5f7b2ce6b2c8250797d6b54d","study_id":"605e2a800ccfa0c8e820d869","session_id":"606220e8ea254d22d944b3a5"},{"rt":1537.5850000418723,"stimulus":"img/00078.png","slider_start":4,"response":3,"trial_type":"image-slider-response","trial_index":33,"time_elapsed":175092,"internal_node_id":"0.0-3.0-0.30","subject_id":"5f7b2ce6b2c8250797d6b54d","study_id":"605e2a800ccfa0c8e820d869","session_id":"606220e8ea254d22d944b3a5"},{"rt":3488.1250001490116,"stimulus":"img/00549.png","slider_start":4,"response":5,"trial_type":"image-slider-response","trial_index":34,"time_elapsed":178581,"internal_node_id":"0.0-3.0-0.31","subject_id":"5f7b2ce6b2c8250797d6b54d","study_id":"605e2a800ccfa0c8e820d869","session_id":"606220e8ea254d22d944b3a5"},{"rt":5031.319999834523,"stimulus":"img/00438.png","slider_start":4,"response":3,"trial_type":"image-slider-response","trial_index":35,"time_elapsed":183614,"internal_node_id":"0.0-3.0-0.32","subject_id":"5f7b2ce6b2c8250797d6b54d","study_id":"605e2a800ccfa0c8e820d869","session_id":"606220e8ea254d22d944b3a5"},{"rt":1543.8399999402463,"stimulus":"img/00581.png","slider_start":4,"response":3,"trial_type":"image-slider-response","trial_index":36,"time_elapsed":185160,"internal_node_id":"0.0-3.0-0.33","subject_id":"5f7b2ce6b2c8250797d6b54d","study_id":"605e2a800ccfa0c8e820d869","session_id":"606220e8ea254d22d944b3a5"},{"rt":2830.335000064224,"stimulus":"img/00631.png","slider_start":4,"response":3,"trial_type":"image-slider-response","trial_index":37,"time_elapsed":187991,"internal_node_id":"0.0-3.0-0.34","subject_id":"5f7b2ce6b2c8250797d6b54d","study_id":"605e2a800ccfa0c8e820d869","session_id":"606220e8ea254d22d944b3a5"},{"rt":1455.7099998928607,"stimulus":"img/00956.png","slider_start":4,"response":3,"trial_type":"image-slider-response","trial_index":38,"time_elapsed":189448,"internal_node_id":"0.0-3.0-0.35","subject_id":"5f7b2ce6b2c8250797d6b54d","study_id":"605e2a800ccfa0c8e820d869","session_id":"606220e8ea254d22d944b3a5"},{"rt":1864.3150001298636,"stimulus":"img/00018.png","slider_start":4,"response":5,"trial_type":"image-slider-response","trial_index":39,"time_elapsed":191314,"internal_node_id":"0.0-3.0-0.36","subject_id":"5f7b2ce6b2c8250797d6b54d","study_id":"605e2a800ccfa0c8e820d869","session_id":"606220e8ea254d22d944b3a5"},{"rt":3418.25499990955,"stimulus":"img/00973.png","slider_start":4,"response":5,"trial_type":"image-slider-response","trial_index":40,"time_elapsed":194733,"internal_node_id":"0.0-3.0-0.37","subject_id":"5f7b2ce6b2c8250797d6b54d","study_id":"605e2a800ccfa0c8e820d869","session_id":"606220e8ea254d22d944b3a5"},{"rt":2064.4400001037866,"stimulus":"img/00015.png","slider_start":4,"response":6,"trial_type":"image-slider-response","trial_index":41,"time_elapsed":196799,"internal_node_id":"0.0-3.0-0.38","subject_id":"5f7b2ce6b2c8250797d6b54d","study_id":"605e2a800ccfa0c8e820d869","session_id":"606220e8ea254d22d944b3a5"},{"rt":2489.7099998779595,"stimulus":"img/00592.png","slider_start":4,"response":5,"trial_type":"image-slider-response","trial_index":42,"time_elapsed":199290,"internal_node_id":"0.0-3.0-0.39","subject_id":"5f7b2ce6b2c8250797d6b54d","study_id":"605e2a800ccfa0c8e820d869","session_id":"606220e8ea254d22d944b3a5"},{"rt":1844.6049999911338,"stimulus":"img/00464.png","slider_start":4,"response":2,"trial_type":"image-slider-response","trial_index":43,"time_elapsed":201136,"internal_node_id":"0.0-3.0-0.40","subject_id":"5f7b2ce6b2c8250797d6b54d","study_id":"605e2a800ccfa0c8e820d869","session_id":"606220e8ea254d22d944b3a5"},{"rt":1815.940000116825,"stimulus":"img/00127.png","slider_start":4,"response":3,"trial_type":"image-slider-response","trial_index":44,"time_elapsed":202953,"internal_node_id":"0.0-3.0-0.41","subject_id":"5f7b2ce6b2c8250797d6b54d","study_id":"605e2a800ccfa0c8e820d869","session_id":"606220e8ea254d22d944b3a5"},{"rt":1469.7400000877678,"stimulus":"img/00789.png","slider_start":4,"response":2,"trial_type":"image-slider-response","trial_index":45,"time_elapsed":204424,"internal_node_id":"0.0-3.0-0.42","subject_id":"5f7b2ce6b2c8250797d6b54d","study_id":"605e2a800ccfa0c8e820d869","session_id":"606220e8ea254d22d944b3a5"},{"rt":2006.8649998866022,"stimulus":"img/00930.png","slider_start":4,"response":3,"trial_type":"image-slider-response","trial_index":46,"time_elapsed":206432,"internal_node_id":"0.0-3.0-0.43","subject_id":"5f7b2ce6b2c8250797d6b54d","study_id":"605e2a800ccfa0c8e820d869","session_id":"606220e8ea254d22d944b3a5"},{"rt":1599.8200001195073,"stimulus":"img/00878.png","slider_start":4,"response":3,"trial_type":"image-slider-response","trial_index":47,"time_elapsed":208033,"internal_node_id":"0.0-3.0-0.44","subject_id":"5f7b2ce6b2c8250797d6b54d","study_id":"605e2a800ccfa0c8e820d869","session_id":"606220e8ea254d22d944b3a5"},{"rt":2973.8449999131262,"stimulus":"img/00504.png","slider_start":4,"response":3,"trial_type":"image-slider-response","trial_index":48,"time_elapsed":211008,"internal_node_id":"0.0-3.0-0.45","subject_id":"5f7b2ce6b2c8250797d6b54d","study_id":"605e2a800ccfa0c8e820d869","session_id":"606220e8ea254d22d944b3a5"},{"rt":1642.5999999046326,"stimulus":"img/00554.png","slider_start":4,"response":5,"trial_type":"image-slider-response","trial_index":49,"time_elapsed":212652,"internal_node_id":"0.0-3.0-0.46","subject_id":"5f7b2ce6b2c8250797d6b54d","study_id":"605e2a800ccfa0c8e820d869","session_id":"606220e8ea254d22d944b3a5"},{"rt":4063.564999960363,"stimulus":"img/00077.png","slider_start":4,"response":5,"trial_type":"image-slider-response","trial_index":50,"time_elapsed":216717,"internal_node_id":"0.0-3.0-0.47","subject_id":"5f7b2ce6b2c8250797d6b54d","study_id":"605e2a800ccfa0c8e820d869","session_id":"606220e8ea254d22d944b3a5"},{"rt":3085.6049999129027,"stimulus":"img/00603.png","slider_start":4,"response":4,"trial_type":"image-slider-response","trial_index":51,"time_elapsed":219804,"internal_node_id":"0.0-3.0-0.48","subject_id":"5f7b2ce6b2c8250797d6b54d","study_id":"605e2a800ccfa0c8e820d869","session_id":"606220e8ea254d22d944b3a5"},{"rt":3210.484999930486,"stimulus":"img/00755.png","slider_start":4,"response":6,"trial_type":"image-slider-response","trial_index":52,"time_elapsed":223016,"internal_node_id":"0.0-3.0-0.49","subject_id":"5f7b2ce6b2c8250797d6b54d","study_id":"605e2a800ccfa0c8e820d869","session_id":"606220e8ea254d22d944b3a5"},{"rt":1815.5999998562038,"stimulus":"img/00825.png","slider_start":4,"response":6,"trial_type":"image-slider-response","trial_index":53,"time_elapsed":224833,"internal_node_id":"0.0-3.0-0.50","subject_id":"5f7b2ce6b2c8250797d6b54d","study_id":"605e2a800ccfa0c8e820d869","session_id":"606220e8ea254d22d944b3a5"},{"rt":1918.1900001130998,"stimulus":"img/00052.png","slider_start":4,"response":3,"trial_type":"image-slider-response","trial_index":54,"time_elapsed":226752,"internal_node_id":"0.0-3.0-0.51","subject_id":"5f7b2ce6b2c8250797d6b54d","study_id":"605e2a800ccfa0c8e820d869","session_id":"606220e8ea254d22d944b3a5"},{"rt":4974.99500005506,"stimulus":"img/00926.png","slider_start":4,"response":5,"trial_type":"image-slider-response","trial_index":55,"time_elapsed":231729,"internal_node_id":"0.0-3.0-0.52","subject_id":"5f7b2ce6b2c8250797d6b54d","study_id":"605e2a800ccfa0c8e820d869","session_id":"606220e8ea254d22d944b3a5"},{"rt":2772.899999981746,"stimulus":"img/00949.png","slider_start":4,"response":5,"trial_type":"image-slider-response","trial_index":56,"time_elapsed":234503,"internal_node_id":"0.0-3.0-0.53","subject_id":"5f7b2ce6b2c8250797d6b54d","study_id":"605e2a800ccfa0c8e820d869","session_id":"606220e8ea254d22d944b3a5"},{"rt":2266.2800000980496,"stimulus":"img/00115.png","slider_start":4,"response":5,"trial_type":"image-slider-response","trial_index":57,"time_elapsed":236770,"internal_node_id":"0.0-3.0-0.54","subject_id":"5f7b2ce6b2c8250797d6b54d","study_id":"605e2a800ccfa0c8e820d869","session_id":"606220e8ea254d22d944b3a5"},{"rt":4667.589999968186,"stimulus":"img/40.png","slider_start":4,"response":6,"trial_type":"image-slider-response","trial_index":58,"time_elapsed":241439,"internal_node_id":"0.0-3.0-0.55","subject_id":"5f7b2ce6b2c8250797d6b54d","study_id":"605e2a800ccfa0c8e820d869","session_id":"606220e8ea254d22d944b3a5"},{"rt":3190.544999903068,"stimulus":"img/00479.png","slider_start":4,"response":6,"trial_type":"image-slider-response","trial_index":59,"time_elapsed":244631,"internal_node_id":"0.0-3.0-0.56","subject_id":"5f7b2ce6b2c8250797d6b54d","study_id":"605e2a800ccfa0c8e820d869","session_id":"606220e8ea254d22d944b3a5"},{"rt":2166.7549998965114,"stimulus":"img/00525.png","slider_start":4,"response":5,"trial_type":"image-slider-response","trial_index":60,"time_elapsed":246799,"internal_node_id":"0.0-3.0-0.57","subject_id":"5f7b2ce6b2c8250797d6b54d","study_id":"605e2a800ccfa0c8e820d869","session_id":"606220e8ea254d22d944b3a5"},{"rt":2298.685000045225,"stimulus":"img/00860.png","slider_start":4,"response":5,"trial_type":"image-slider-response","trial_index":61,"time_elapsed":249099,"internal_node_id":"0.0-3.0-0.58","subject_id":"5f7b2ce6b2c8250797d6b54d","study_id":"605e2a800ccfa0c8e820d869","session_id":"606220e8ea254d22d944b3a5"},{"rt":1903.6650001071393,"stimulus":"img/00432.png","slider_start":4,"response":3,"trial_type":"image-slider-response","trial_index":62,"time_elapsed":251004,"internal_node_id":"0.0-3.0-0.59","subject_id":"5f7b2ce6b2c8250797d6b54d","study_id":"605e2a800ccfa0c8e820d869","session_id":"606220e8ea254d22d944b3a5"},{"rt":3293.7300000339746,"stimulus":"img/00797.png","slider_start":4,"response":3,"trial_type":"image-slider-response","trial_index":63,"time_elapsed":254299,"internal_node_id":"0.0-3.0-0.60","subject_id":"5f7b2ce6b2c8250797d6b54d","study_id":"605e2a800ccfa0c8e820d869","session_id":"606220e8ea254d22d944b3a5"},{"rt":3465.159999905154,"stimulus":"img/00570.png","slider_start":4,"response":7,"trial_type":"image-slider-response","trial_index":64,"time_elapsed":257766,"internal_node_id":"0.0-3.0-0.61","subject_id":"5f7b2ce6b2c8250797d6b54d","study_id":"605e2a800ccfa0c8e820d869","session_id":"606220e8ea254d22d944b3a5"},{"rt":1523.835000116378,"stimulus":"img/00718.png","slider_start":4,"response":5,"trial_type":"image-slider-response","trial_index":65,"time_elapsed":259291,"internal_node_id":"0.0-3.0-0.62","subject_id":"5f7b2ce6b2c8250797d6b54d","study_id":"605e2a800ccfa0c8e820d869","session_id":"606220e8ea254d22d944b3a5"},{"rt":1579.6600000467151,"stimulus":"img/00469.png","slider_start":4,"response":5,"trial_type":"image-slider-response","trial_index":66,"time_elapsed":260872,"internal_node_id":"0.0-3.0-0.63","subject_id":"5f7b2ce6b2c8250797d6b54d","study_id":"605e2a800ccfa0c8e820d869","session_id":"606220e8ea254d22d944b3a5"},{"rt":2227.7049999684095,"stimulus":"img/00012.png","slider_start":4,"response":3,"trial_type":"image-slider-response","trial_index":67,"time_elapsed":263101,"internal_node_id":"0.0-3.0-0.64","subject_id":"5f7b2ce6b2c8250797d6b54d","study_id":"605e2a800ccfa0c8e820d869","session_id":"606220e8ea254d22d944b3a5"},{"rt":1715.5349999666214,"stimulus":"img/00693.png","slider_start":4,"response":3,"trial_type":"image-slider-response","trial_index":68,"time_elapsed":264818,"internal_node_id":"0.0-3.0-0.65","subject_id":"5f7b2ce6b2c8250797d6b54d","study_id":"605e2a800ccfa0c8e820d869","session_id":"606220e8ea254d22d944b3a5"},{"rt":1783.674999838695,"stimulus":"img/00587.png","slider_start":4,"response":5,"trial_type":"image-slider-response","trial_index":69,"time_elapsed":266603,"internal_node_id":"0.0-3.0-0.66","subject_id":"5f7b2ce6b2c8250797d6b54d","study_id":"605e2a800ccfa0c8e820d869","session_id":"606220e8ea254d22d944b3a5"},{"rt":3504.060000181198,"stimulus":"img/00101.png","slider_start":4,"response":3,"trial_type":"image-slider-response","trial_index":70,"time_elapsed":270108,"internal_node_id":"0.0-3.0-0.67","subject_id":"5f7b2ce6b2c8250797d6b54d","study_id":"605e2a800ccfa0c8e820d869","session_id":"606220e8ea254d22d944b3a5"},{"rt":1626.5300000086427,"stimulus":"img/00841.png","slider_start":4,"response":6,"trial_type":"image-slider-response","trial_index":71,"time_elapsed":271736,"internal_node_id":"0.0-3.0-0.68","subject_id":"5f7b2ce6b2c8250797d6b54d","study_id":"605e2a800ccfa0c8e820d869","session_id":"606220e8ea254d22d944b3a5"},{"rt":2054.960000095889,"stimulus":"img/00478.png","slider_start":4,"response":3,"trial_type":"image-slider-response","trial_index":72,"time_elapsed":273792,"internal_node_id":"0.0-3.0-0.69","subject_id":"5f7b2ce6b2c8250797d6b54d","study_id":"605e2a800ccfa0c8e820d869","session_id":"606220e8ea254d22d944b3a5"},{"rt":3000.8900000248104,"stimulus":"img/00811.png","slider_start":4,"response":3,"trial_type":"image-slider-response","trial_index":73,"time_elapsed":276795,"internal_node_id":"0.0-3.0-0.70","subject_id":"5f7b2ce6b2c8250797d6b54d","study_id":"605e2a800ccfa0c8e820d869","session_id":"606220e8ea254d22d944b3a5"},{"rt":2115.6150000169873,"stimulus":"img/00785.png","slider_start":4,"response":5,"trial_type":"image-slider-response","trial_index":74,"time_elapsed":278911,"internal_node_id":"0.0-3.0-0.71","subject_id":"5f7b2ce6b2c8250797d6b54d","study_id":"605e2a800ccfa0c8e820d869","session_id":"606220e8ea254d22d944b3a5"},{"rt":1849.8599999584258,"stimulus":"img/00629.png","slider_start":4,"response":2,"trial_type":"image-slider-response","trial_index":75,"time_elapsed":280763,"internal_node_id":"0.0-3.0-0.72","subject_id":"5f7b2ce6b2c8250797d6b54d","study_id":"605e2a800ccfa0c8e820d869","session_id":"606220e8ea254d22d944b3a5"},{"rt":5523.359999991953,"stimulus":"img/00472.png","slider_start":4,"response":2,"trial_type":"image-slider-response","trial_index":76,"time_elapsed":286287,"internal_node_id":"0.0-3.0-0.73","subject_id":"5f7b2ce6b2c8250797d6b54d","study_id":"605e2a800ccfa0c8e820d869","session_id":"606220e8ea254d22d944b3a5"},{"rt":3477.669999934733,"stimulus":"img/00042.png","slider_start":4,"response":5,"trial_type":"image-slider-response","trial_index":77,"time_elapsed":289766,"internal_node_id":"0.0-3.0-0.74","subject_id":"5f7b2ce6b2c8250797d6b54d","study_id":"605e2a800ccfa0c8e820d869","session_id":"606220e8ea254d22d944b3a5"},{"rt":2868.2349999435246,"stimulus":"img/00689.png","slider_start":4,"response":5,"trial_type":"image-slider-response","trial_index":78,"time_elapsed":292636,"internal_node_id":"0.0-3.0-0.75","subject_id":"5f7b2ce6b2c8250797d6b54d","study_id":"605e2a800ccfa0c8e820d869","session_id":"606220e8ea254d22d944b3a5"},{"rt":2581.800000043586,"stimulus":"img/00594.png","slider_start":4,"response":3,"trial_type":"image-slider-response","trial_index":79,"time_elapsed":295219,"internal_node_id":"0.0-3.0-0.76","subject_id":"5f7b2ce6b2c8250797d6b54d","study_id":"605e2a800ccfa0c8e820d869","session_id":"606220e8ea254d22d944b3a5"},{"rt":2222.300000023097,"stimulus":"img/00511.png","slider_start":4,"response":3,"trial_type":"image-slider-response","trial_index":80,"time_elapsed":297443,"internal_node_id":"0.0-3.0-0.77","subject_id":"5f7b2ce6b2c8250797d6b54d","study_id":"605e2a800ccfa0c8e820d869","session_id":"606220e8ea254d22d944b3a5"},{"rt":2126.2150001712143,"stimulus":"img/00503.png","slider_start":4,"response":3,"trial_type":"image-slider-response","trial_index":81,"time_elapsed":299571,"internal_node_id":"0.0-3.0-0.78","subject_id":"5f7b2ce6b2c8250797d6b54d","study_id":"605e2a800ccfa0c8e820d869","session_id":"606220e8ea254d22d944b3a5"},{"rt":1917.3649998847395,"stimulus":"img/00742.png","slider_start":4,"response":5,"trial_type":"image-slider-response","trial_index":82,"time_elapsed":301490,"internal_node_id":"0.0-3.0-0.79","subject_id":"5f7b2ce6b2c8250797d6b54d","study_id":"605e2a800ccfa0c8e820d869","session_id":"606220e8ea254d22d944b3a5"},{"rt":15725.265000015497,"stimulus":"img/00460.png","slider_start":4,"response":3,"trial_type":"image-slider-response","trial_index":83,"time_elapsed":317216,"internal_node_id":"0.0-3.0-0.80","subject_id":"5f7b2ce6b2c8250797d6b54d","study_id":"605e2a800ccfa0c8e820d869","session_id":"606220e8ea254d22d944b3a5"},{"rt":3827.5849998462945,"stimulus":"img/00447.png","slider_start":4,"response":3,"trial_type":"image-slider-response","trial_index":84,"time_elapsed":321045,"internal_node_id":"0.0-3.0-0.81","subject_id":"5f7b2ce6b2c8250797d6b54d","study_id":"605e2a800ccfa0c8e820d869","session_id":"606220e8ea254d22d944b3a5"},{"rt":3433.8200001511723,"stimulus":"img/00848.png","slider_start":4,"response":5,"trial_type":"image-slider-response","trial_index":85,"time_elapsed":324480,"internal_node_id":"0.0-3.0-0.82","subject_id":"5f7b2ce6b2c8250797d6b54d","study_id":"605e2a800ccfa0c8e820d869","session_id":"606220e8ea254d22d944b3a5"},{"rt":1669.179999968037,"stimulus":"img/00508.png","slider_start":4,"response":6,"trial_type":"image-slider-response","trial_index":86,"time_elapsed":326151,"internal_node_id":"0.0-3.0-0.83","subject_id":"5f7b2ce6b2c8250797d6b54d","study_id":"605e2a800ccfa0c8e820d869","session_id":"606220e8ea254d22d944b3a5"},{"rt":2293.6850001569837,"stimulus":"img/00995.png","slider_start":4,"response":5,"trial_type":"image-slider-response","trial_index":87,"time_elapsed":328446,"internal_node_id":"0.0-3.0-0.84","subject_id":"5f7b2ce6b2c8250797d6b54d","study_id":"605e2a800ccfa0c8e820d869","session_id":"606220e8ea254d22d944b3a5"},{"rt":11539.869999978691,"stimulus":"img/00064.png","slider_start":4,"response":5,"trial_type":"image-slider-response","trial_index":88,"time_elapsed":339987,"internal_node_id":"0.0-3.0-0.85","subject_id":"5f7b2ce6b2c8250797d6b54d","study_id":"605e2a800ccfa0c8e820d869","session_id":"606220e8ea254d22d944b3a5"},{"rt":1864.4049998838454,"stimulus":"img/00462.png","slider_start":4,"response":5,"trial_type":"image-slider-response","trial_index":89,"time_elapsed":341853,"internal_node_id":"0.0-3.0-0.86","subject_id":"5f7b2ce6b2c8250797d6b54d","study_id":"605e2a800ccfa0c8e820d869","session_id":"606220e8ea254d22d944b3a5"},{"rt":2115.364999976009,"stimulus":"img/00093.png","slider_start":4,"response":3,"trial_type":"image-slider-response","trial_index":90,"time_elapsed":343970,"internal_node_id":"0.0-3.0-0.87","subject_id":"5f7b2ce6b2c8250797d6b54d","study_id":"605e2a800ccfa0c8e820d869","session_id":"606220e8ea254d22d944b3a5"},{"rt":1524.9099999200553,"stimulus":"img/00600.png","slider_start":4,"response":3,"trial_type":"image-slider-response","trial_index":91,"time_elapsed":345496,"internal_node_id":"0.0-3.0-0.88","subject_id":"5f7b2ce6b2c8250797d6b54d","study_id":"605e2a800ccfa0c8e820d869","session_id":"606220e8ea254d22d944b3a5"},{"rt":2464.630000060424,"stimulus":"img/00759.png","slider_start":4,"response":3,"trial_type":"image-slider-response","trial_index":92,"time_elapsed":347962,"internal_node_id":"0.0-3.0-0.89","subject_id":"5f7b2ce6b2c8250797d6b54d","study_id":"605e2a800ccfa0c8e820d869","session_id":"606220e8ea254d22d944b3a5"},{"rt":5640.644999919459,"stimulus":"img/00768.png","slider_start":4,"response":6,"trial_type":"image-slider-response","trial_index":93,"time_elapsed":353604,"internal_node_id":"0.0-3.0-0.90","subject_id":"5f7b2ce6b2c8250797d6b54d","study_id":"605e2a800ccfa0c8e820d869","session_id":"606220e8ea254d22d944b3a5"},{"rt":3426.5550000127405,"stimulus":"img/00817.png","slider_start":4,"response":2,"trial_type":"image-slider-response","trial_index":94,"time_elapsed":357032,"internal_node_id":"0.0-3.0-0.91","subject_id":"5f7b2ce6b2c8250797d6b54d","study_id":"605e2a800ccfa0c8e820d869","session_id":"606220e8ea254d22d944b3a5"},{"rt":3336.5149998571724,"stimulus":"img/00967.png","slider_start":4,"response":3,"trial_type":"image-slider-response","trial_index":95,"time_elapsed":360369,"internal_node_id":"0.0-3.0-0.92","subject_id":"5f7b2ce6b2c8250797d6b54d","study_id":"605e2a800ccfa0c8e820d869","session_id":"606220e8ea254d22d944b3a5"},{"rt":2285.8750000596046,"stimulus":"img/00507.png","slider_start":4,"response":5,"trial_type":"image-slider-response","trial_index":96,"time_elapsed":362656,"internal_node_id":"0.0-3.0-0.93","subject_id":"5f7b2ce6b2c8250797d6b54d","study_id":"605e2a800ccfa0c8e820d869","session_id":"606220e8ea254d22d944b3a5"},{"rt":1924.5349999982864,"stimulus":"img/00454.png","slider_start":4,"response":3,"trial_type":"image-slider-response","trial_index":97,"time_elapsed":364582,"internal_node_id":"0.0-3.0-0.94","subject_id":"5f7b2ce6b2c8250797d6b54d","study_id":"605e2a800ccfa0c8e820d869","session_id":"606220e8ea254d22d944b3a5"},{"rt":10792.87500004284,"stimulus":"img/00822.png","slider_start":4,"response":3,"trial_type":"image-slider-response","trial_index":98,"time_elapsed":375376,"internal_node_id":"0.0-3.0-0.95","subject_id":"5f7b2ce6b2c8250797d6b54d","study_id":"605e2a800ccfa0c8e820d869","session_id":"606220e8ea254d22d944b3a5"},{"rt":2753.4350000787526,"stimulus":"img/00982.png","slider_start":4,"response":5,"trial_type":"image-slider-response","trial_index":99,"time_elapsed":378131,"internal_node_id":"0.0-3.0-0.96","subject_id":"5f7b2ce6b2c8250797d6b54d","study_id":"605e2a800ccfa0c8e820d869","session_id":"606220e8ea254d22d944b3a5"},{"rt":3373.6050000879914,"stimulus":"img/00623.png","slider_start":4,"response":5,"trial_type":"image-slider-response","trial_index":100,"time_elapsed":381506,"internal_node_id":"0.0-3.0-0.97","subject_id":"5f7b2ce6b2c8250797d6b54d","study_id":"605e2a800ccfa0c8e820d869","session_id":"606220e8ea254d22d944b3a5"},{"rt":4184.764999896288,"stimulus":"img/00799.png","slider_start":4,"response":3,"trial_type":"image-slider-response","trial_index":101,"time_elapsed":385692,"internal_node_id":"0.0-3.0-0.98","subject_id":"5f7b2ce6b2c8250797d6b54d","study_id":"605e2a800ccfa0c8e820d869","session_id":"606220e8ea254d22d944b3a5"},{"rt":2083.4950001444668,"stimulus":"img/00576.png","slider_start":4,"response":3,"trial_type":"image-slider-response","trial_index":102,"time_elapsed":387777,"internal_node_id":"0.0-3.0-0.99","subject_id":"5f7b2ce6b2c8250797d6b54d","study_id":"605e2a800ccfa0c8e820d869","session_id":"606220e8ea254d22d944b3a5"},{"rt":1367.8550000768155,"stimulus":"img/00896.png","slider_start":4,"response":3,"trial_type":"image-slider-response","trial_index":103,"time_elapsed":389146,"internal_node_id":"0.0-3.0-0.100","subject_id":"5f7b2ce6b2c8250797d6b54d","study_id":"605e2a800ccfa0c8e820d869","session_id":"606220e8ea254d22d944b3a5"},{"rt":2450.545000145212,"stimulus":"img/00879.png","slider_start":4,"response":3,"trial_type":"image-slider-response","trial_index":104,"time_elapsed":391598,"internal_node_id":"0.0-3.0-0.101","subject_id":"5f7b2ce6b2c8250797d6b54d","study_id":"605e2a800ccfa0c8e820d869","session_id":"606220e8ea254d22d944b3a5"},{"rt":2187.7299998886883,"stimulus":"img/00779.png","slider_start":4,"response":5,"trial_type":"image-slider-response","trial_index":105,"time_elapsed":393787,"internal_node_id":"0.0-3.0-0.102","subject_id":"5f7b2ce6b2c8250797d6b54d","study_id":"605e2a800ccfa0c8e820d869","session_id":"606220e8ea254d22d944b3a5"},{"rt":2481.625000014901,"stimulus":"img/00731.png","slider_start":4,"response":3,"trial_type":"image-slider-response","trial_index":106,"time_elapsed":396270,"internal_node_id":"0.0-3.0-0.103","subject_id":"5f7b2ce6b2c8250797d6b54d","study_id":"605e2a800ccfa0c8e820d869","session_id":"606220e8ea254d22d944b3a5"},{"rt":2294.8700000997633,"stimulus":"img/00903.png","slider_start":4,"response":6,"trial_type":"image-slider-response","trial_index":107,"time_elapsed":398566,"internal_node_id":"0.0-3.0-0.104","subject_id":"5f7b2ce6b2c8250797d6b54d","study_id":"605e2a800ccfa0c8e820d869","session_id":"606220e8ea254d22d944b3a5"},{"rt":3240.5600000638515,"stimulus":"img/00928.png","slider_start":4,"response":3,"trial_type":"image-slider-response","trial_index":108,"time_elapsed":401808,"internal_node_id":"0.0-3.0-0.105","subject_id":"5f7b2ce6b2c8250797d6b54d","study_id":"605e2a800ccfa0c8e820d869","session_id":"606220e8ea254d22d944b3a5"},{"rt":2108.6549998726696,"stimulus":"img/00760.png","slider_start":4,"response":3,"trial_type":"image-slider-response","trial_index":109,"time_elapsed":403918,"internal_node_id":"0.0-3.0-0.106","subject_id":"5f7b2ce6b2c8250797d6b54d","study_id":"605e2a800ccfa0c8e820d869","session_id":"606220e8ea254d22d944b3a5"},{"rt":2294.5600000675768,"stimulus":"img/00483.png","slider_start":4,"response":3,"trial_type":"image-slider-response","trial_index":110,"time_elapsed":406214,"internal_node_id":"0.0-3.0-0.107","subject_id":"5f7b2ce6b2c8250797d6b54d","study_id":"605e2a800ccfa0c8e820d869","session_id":"606220e8ea254d22d944b3a5"},{"rt":2811.710000038147,"stimulus":"img/00810.png","slider_start":4,"response":5,"trial_type":"image-slider-response","trial_index":111,"time_elapsed":409027,"internal_node_id":"0.0-3.0-0.108","subject_id":"5f7b2ce6b2c8250797d6b54d","study_id":"605e2a800ccfa0c8e820d869","session_id":"606220e8ea254d22d944b3a5"},{"rt":1761.824999935925,"stimulus":"img/00854.png","slider_start":4,"response":5,"trial_type":"image-slider-response","trial_index":112,"time_elapsed":410790,"internal_node_id":"0.0-3.0-0.109","subject_id":"5f7b2ce6b2c8250797d6b54d","study_id":"605e2a800ccfa0c8e820d869","session_id":"606220e8ea254d22d944b3a5"},{"rt":3106.8649999797344,"stimulus":"img/00129.png","slider_start":4,"response":5,"trial_type":"image-slider-response","trial_index":113,"time_elapsed":413898,"internal_node_id":"0.0-3.0-0.110","subject_id":"5f7b2ce6b2c8250797d6b54d","study_id":"605e2a800ccfa0c8e820d869","session_id":"606220e8ea254d22d944b3a5"},{"rt":2195.3700000885874,"stimulus":"img/00688.png","slider_start":4,"response":3,"trial_type":"image-slider-response","trial_index":114,"time_elapsed":416095,"internal_node_id":"0.0-3.0-0.111","subject_id":"5f7b2ce6b2c8250797d6b54d","study_id":"605e2a800ccfa0c8e820d869","session_id":"606220e8ea254d22d944b3a5"},{"rt":1929.8150001559407,"stimulus":"img/00815.png","slider_start":4,"response":4,"trial_type":"image-slider-response","trial_index":115,"time_elapsed":418026,"internal_node_id":"0.0-3.0-0.112","subject_id":"5f7b2ce6b2c8250797d6b54d","study_id":"605e2a800ccfa0c8e820d869","session_id":"606220e8ea254d22d944b3a5"},{"rt":3956.6899999044836,"stimulus":"img/00059.png","slider_start":4,"response":5,"trial_type":"image-slider-response","trial_index":116,"time_elapsed":421984,"internal_node_id":"0.0-3.0-0.113","subject_id":"5f7b2ce6b2c8250797d6b54d","study_id":"605e2a800ccfa0c8e820d869","session_id":"606220e8ea254d22d944b3a5"},{"rt":16915.52000003867,"stimulus":"img/00055.png","slider_start":4,"response":3,"trial_type":"image-slider-response","trial_index":117,"time_elapsed":438901,"internal_node_id":"0.0-3.0-0.114","subject_id":"5f7b2ce6b2c8250797d6b54d","study_id":"605e2a800ccfa0c8e820d869","session_id":"606220e8ea254d22d944b3a5"},{"rt":3003.800000064075,"stimulus":"img/00809.png","slider_start":4,"response":6,"trial_type":"image-slider-response","trial_index":118,"time_elapsed":441906,"internal_node_id":"0.0-3.0-0.115","subject_id":"5f7b2ce6b2c8250797d6b54d","study_id":"605e2a800ccfa0c8e820d869","session_id":"606220e8ea254d22d944b3a5"},{"rt":1982.5600001495332,"stimulus":"img/00437.png","slider_start":4,"response":5,"trial_type":"image-slider-response","trial_index":119,"time_elapsed":443890,"internal_node_id":"0.0-3.0-0.116","subject_id":"5f7b2ce6b2c8250797d6b54d","study_id":"605e2a800ccfa0c8e820d869","session_id":"606220e8ea254d22d944b3a5"},{"rt":1808.3550001028925,"stimulus":"img/00752.png","slider_start":4,"response":3,"trial_type":"image-slider-response","trial_index":120,"time_elapsed":445700,"internal_node_id":"0.0-3.0-0.117","subject_id":"5f7b2ce6b2c8250797d6b54d","study_id":"605e2a800ccfa0c8e820d869","session_id":"606220e8ea254d22d944b3a5"},{"rt":1871.8350001145154,"stimulus":"img/00428.png","slider_start":4,"response":3,"trial_type":"image-slider-response","trial_index":121,"time_elapsed":447573,"internal_node_id":"0.0-3.0-0.118","subject_id":"5f7b2ce6b2c8250797d6b54d","study_id":"605e2a800ccfa0c8e820d869","session_id":"606220e8ea254d22d944b3a5"},{"rt":2887.994999997318,"stimulus":"img/00902.png","slider_start":4,"response":6,"trial_type":"image-slider-response","trial_index":122,"time_elapsed":450462,"internal_node_id":"0.0-3.0-0.119","subject_id":"5f7b2ce6b2c8250797d6b54d","study_id":"605e2a800ccfa0c8e820d869","session_id":"606220e8ea254d22d944b3a5"},{"rt":2022.3050001077354,"stimulus":"img/00404.png","slider_start":4,"response":3,"trial_type":"image-slider-response","trial_index":123,"time_elapsed":452486,"internal_node_id":"0.0-3.0-0.120","subject_id":"5f7b2ce6b2c8250797d6b54d","study_id":"605e2a800ccfa0c8e820d869","session_id":"606220e8ea254d22d944b3a5"},{"rt":1995.9549999330193,"stimulus":"img/00761.png","slider_start":4,"response":3,"trial_type":"image-slider-response","trial_index":124,"time_elapsed":454483,"internal_node_id":"0.0-3.0-0.121","subject_id":"5f7b2ce6b2c8250797d6b54d","study_id":"605e2a800ccfa0c8e820d869","session_id":"606220e8ea254d22d944b3a5"},{"rt":4096.834999974817,"stimulus":"img/00986.png","slider_start":4,"response":5,"trial_type":"image-slider-response","trial_index":125,"time_elapsed":458581,"internal_node_id":"0.0-3.0-0.122","subject_id":"5f7b2ce6b2c8250797d6b54d","study_id":"605e2a800ccfa0c8e820d869","session_id":"606220e8ea254d22d944b3a5"},{"rt":2779.1949999518692,"stimulus":"img/00653.png","slider_start":4,"response":5,"trial_type":"image-slider-response","trial_index":126,"time_elapsed":461362,"internal_node_id":"0.0-3.0-0.123","subject_id":"5f7b2ce6b2c8250797d6b54d","study_id":"605e2a800ccfa0c8e820d869","session_id":"606220e8ea254d22d944b3a5"},{"rt":2242.8250000812113,"stimulus":"img/00415.png","slider_start":4,"response":3,"trial_type":"image-slider-response","trial_index":127,"time_elapsed":463606,"internal_node_id":"0.0-3.0-0.124","subject_id":"5f7b2ce6b2c8250797d6b54d","study_id":"605e2a800ccfa0c8e820d869","session_id":"606220e8ea254d22d944b3a5"},{"rt":3254.7649999614805,"stimulus":"img/00439.png","slider_start":4,"response":2,"trial_type":"image-slider-response","trial_index":128,"time_elapsed":466862,"internal_node_id":"0.0-3.0-0.125","subject_id":"5f7b2ce6b2c8250797d6b54d","study_id":"605e2a800ccfa0c8e820d869","session_id":"606220e8ea254d22d944b3a5"},{"rt":1974.6950000990182,"stimulus":"img/00988.png","slider_start":4,"response":5,"trial_type":"image-slider-response","trial_index":129,"time_elapsed":468838,"internal_node_id":"0.0-3.0-0.126","subject_id":"5f7b2ce6b2c8250797d6b54d","study_id":"605e2a800ccfa0c8e820d869","session_id":"606220e8ea254d22d944b3a5"},{"rt":2953.545000171289,"stimulus":"img/00612.png","slider_start":4,"response":5,"trial_type":"image-slider-response","trial_index":130,"time_elapsed":471793,"internal_node_id":"0.0-3.0-0.127","subject_id":"5f7b2ce6b2c8250797d6b54d","study_id":"605e2a800ccfa0c8e820d869","session_id":"606220e8ea254d22d944b3a5"},{"rt":1935.4449999518692,"stimulus":"img/00130.png","slider_start":4,"response":3,"trial_type":"image-slider-response","trial_index":131,"time_elapsed":473730,"internal_node_id":"0.0-3.0-0.128","subject_id":"5f7b2ce6b2c8250797d6b54d","study_id":"605e2a800ccfa0c8e820d869","session_id":"606220e8ea254d22d944b3a5"},{"rt":1983.6999999824911,"stimulus":"img/00105.png","slider_start":4,"response":5,"trial_type":"image-slider-response","trial_index":132,"time_elapsed":475715,"internal_node_id":"0.0-3.0-0.129","subject_id":"5f7b2ce6b2c8250797d6b54d","study_id":"605e2a800ccfa0c8e820d869","session_id":"606220e8ea254d22d944b3a5"},{"rt":1923.59000002034,"stimulus":"img/00561.png","slider_start":4,"response":3,"trial_type":"image-slider-response","trial_index":133,"time_elapsed":477640,"internal_node_id":"0.0-3.0-0.130","subject_id":"5f7b2ce6b2c8250797d6b54d","study_id":"605e2a800ccfa0c8e820d869","session_id":"606220e8ea254d22d944b3a5"},{"rt":2135.6800000648946,"stimulus":"img/00496.png","slider_start":4,"response":5,"trial_type":"image-slider-response","trial_index":134,"time_elapsed":479778,"internal_node_id":"0.0-3.0-0.131","subject_id":"5f7b2ce6b2c8250797d6b54d","study_id":"605e2a800ccfa0c8e820d869","session_id":"606220e8ea254d22d944b3a5"},{"rt":3449.9800000339746,"stimulus":"img/00708.png","slider_start":4,"response":3,"trial_type":"image-slider-response","trial_index":135,"time_elapsed":483229,"internal_node_id":"0.0-3.0-0.132","subject_id":"5f7b2ce6b2c8250797d6b54d","study_id":"605e2a800ccfa0c8e820d869","session_id":"606220e8ea254d22d944b3a5"},{"rt":2518.489999929443,"stimulus":"img/00545.png","slider_start":4,"response":3,"trial_type":"image-slider-response","trial_index":136,"time_elapsed":485749,"internal_node_id":"0.0-3.0-0.133","subject_id":"5f7b2ce6b2c8250797d6b54d","study_id":"605e2a800ccfa0c8e820d869","session_id":"606220e8ea254d22d944b3a5"},{"rt":2381.3650000374764,"stimulus":"img/00040.png","slider_start":4,"response":5,"trial_type":"image-slider-response","trial_index":137,"time_elapsed":488132,"internal_node_id":"0.0-3.0-0.134","subject_id":"5f7b2ce6b2c8250797d6b54d","study_id":"605e2a800ccfa0c8e820d869","session_id":"606220e8ea254d22d944b3a5"},{"rt":4470.949999988079,"stimulus":"img/00424.png","slider_start":4,"response":5,"trial_type":"image-slider-response","trial_index":138,"time_elapsed":492604,"internal_node_id":"0.0-3.0-0.135","subject_id":"5f7b2ce6b2c8250797d6b54d","study_id":"605e2a800ccfa0c8e820d869","session_id":"606220e8ea254d22d944b3a5"},{"rt":2460.749999852851,"stimulus":"img/00100.png","slider_start":4,"response":5,"trial_type":"image-slider-response","trial_index":139,"time_elapsed":495066,"internal_node_id":"0.0-3.0-0.136","subject_id":"5f7b2ce6b2c8250797d6b54d","study_id":"605e2a800ccfa0c8e820d869","session_id":"606220e8ea254d22d944b3a5"},{"rt":2433.4950000047684,"stimulus":"img/00644.png","slider_start":4,"response":6,"trial_type":"image-slider-response","trial_index":140,"time_elapsed":497501,"internal_node_id":"0.0-3.0-0.137","subject_id":"5f7b2ce6b2c8250797d6b54d","study_id":"605e2a800ccfa0c8e820d869","session_id":"606220e8ea254d22d944b3a5"},{"rt":4116.399999940768,"stimulus":"img/00002.png","slider_start":4,"response":5,"trial_type":"image-slider-response","trial_index":141,"time_elapsed":501619,"internal_node_id":"0.0-3.0-0.138","subject_id":"5f7b2ce6b2c8250797d6b54d","study_id":"605e2a800ccfa0c8e820d869","session_id":"606220e8ea254d22d944b3a5"},{"rt":2133.380000013858,"stimulus":"img/00867.png","slider_start":4,"response":5,"trial_type":"image-slider-response","trial_index":142,"time_elapsed":503755,"internal_node_id":"0.0-3.0-0.139","subject_id":"5f7b2ce6b2c8250797d6b54d","study_id":"605e2a800ccfa0c8e820d869","session_id":"606220e8ea254d22d944b3a5"},{"rt":1862.0499998796731,"stimulus":"img/00833.png","slider_start":4,"response":5,"trial_type":"image-slider-response","trial_index":143,"time_elapsed":505618,"internal_node_id":"0.0-3.0-0.140","subject_id":"5f7b2ce6b2c8250797d6b54d","study_id":"605e2a800ccfa0c8e820d869","session_id":"606220e8ea254d22d944b3a5"},{"rt":10249.035000102594,"stimulus":"img/00853.png","slider_start":4,"response":5,"trial_type":"image-slider-response","trial_index":144,"time_elapsed":515868,"internal_node_id":"0.0-3.0-0.141","subject_id":"5f7b2ce6b2c8250797d6b54d","study_id":"605e2a800ccfa0c8e820d869","session_id":"606220e8ea254d22d944b3a5"},{"rt":10573.14999983646,"stimulus":"img/00686.png","slider_start":4,"response":5,"trial_type":"image-slider-response","trial_index":145,"time_elapsed":526443,"internal_node_id":"0.0-3.0-0.142","subject_id":"5f7b2ce6b2c8250797d6b54d","study_id":"605e2a800ccfa0c8e820d869","session_id":"606220e8ea254d22d944b3a5"},{"rt":8461.124999914318,"stimulus":"img/00559.png","slider_start":4,"response":3,"trial_type":"image-slider-response","trial_index":146,"time_elapsed":534906,"internal_node_id":"0.0-3.0-0.143","subject_id":"5f7b2ce6b2c8250797d6b54d","study_id":"605e2a800ccfa0c8e820d869","session_id":"606220e8ea254d22d944b3a5"},{"rt":2300.8050001226366,"stimulus":"img/00543.png","slider_start":4,"response":3,"trial_type":"image-slider-response","trial_index":147,"time_elapsed":537208,"internal_node_id":"0.0-3.0-0.144","subject_id":"5f7b2ce6b2c8250797d6b54d","study_id":"605e2a800ccfa0c8e820d869","session_id":"606220e8ea254d22d944b3a5"},{"rt":1998.410000000149,"stimulus":"img/00521.png","slider_start":4,"response":3,"trial_type":"image-slider-response","trial_index":148,"time_elapsed":539207,"internal_node_id":"0.0-3.0-0.145","subject_id":"5f7b2ce6b2c8250797d6b54d","study_id":"605e2a800ccfa0c8e820d869","session_id":"606220e8ea254d22d944b3a5"},{"rt":2407.5400000438094,"stimulus":"img/00951.png","slider_start":4,"response":3,"trial_type":"image-slider-response","trial_index":149,"time_elapsed":541616,"internal_node_id":"0.0-3.0-0.146","subject_id":"5f7b2ce6b2c8250797d6b54d","study_id":"605e2a800ccfa0c8e820d869","session_id":"606220e8ea254d22d944b3a5"},{"rt":2414.6549999713898,"stimulus":"img/00913.png","slider_start":4,"response":3,"trial_type":"image-slider-response","trial_index":150,"time_elapsed":544032,"internal_node_id":"0.0-3.0-0.147","subject_id":"5f7b2ce6b2c8250797d6b54d","study_id":"605e2a800ccfa0c8e820d869","session_id":"606220e8ea254d22d944b3a5"},{"rt":1899.8099998570979,"stimulus":"img/00481.png","slider_start":4,"response":3,"trial_type":"image-slider-response","trial_index":151,"time_elapsed":545933,"internal_node_id":"0.0-3.0-0.148","subject_id":"5f7b2ce6b2c8250797d6b54d","study_id":"605e2a800ccfa0c8e820d869","session_id":"606220e8ea254d22d944b3a5"},{"rt":3947.9600000195205,"stimulus":"img/00569.png","slider_start":4,"response":5,"trial_type":"image-slider-response","trial_index":152,"time_elapsed":549883,"internal_node_id":"0.0-3.0-0.149","subject_id":"5f7b2ce6b2c8250797d6b54d","study_id":"605e2a800ccfa0c8e820d869","session_id":"606220e8ea254d22d944b3a5"},{"rt":2698.4300001058728,"stimulus":"img/00456.png","slider_start":4,"response":5,"trial_type":"image-slider-response","trial_index":153,"time_elapsed":552583,"internal_node_id":"0.0-3.0-0.150","subject_id":"5f7b2ce6b2c8250797d6b54d","study_id":"605e2a800ccfa0c8e820d869","session_id":"606220e8ea254d22d944b3a5"},{"rt":3157.134999986738,"stimulus":"img/00998.png","slider_start":4,"response":7,"trial_type":"image-slider-response","trial_index":154,"time_elapsed":555741,"internal_node_id":"0.0-3.0-0.151","subject_id":"5f7b2ce6b2c8250797d6b54d","study_id":"605e2a800ccfa0c8e820d869","session_id":"606220e8ea254d22d944b3a5"},{"rt":4736.670000012964,"stimulus":"img/00790.png","slider_start":4,"response":5,"trial_type":"image-slider-response","trial_index":155,"time_elapsed":560479,"internal_node_id":"0.0-3.0-0.152","subject_id":"5f7b2ce6b2c8250797d6b54d","study_id":"605e2a800ccfa0c8e820d869","session_id":"606220e8ea254d22d944b3a5"},{"rt":2433.729999931529,"stimulus":"img/00016.png","slider_start":4,"response":5,"trial_type":"image-slider-response","trial_index":156,"time_elapsed":562915,"internal_node_id":"0.0-3.0-0.153","subject_id":"5f7b2ce6b2c8250797d6b54d","study_id":"605e2a800ccfa0c8e820d869","session_id":"606220e8ea254d22d944b3a5"},{"rt":1693.4449998661876,"stimulus":"img/00113.png","slider_start":4,"response":3,"trial_type":"image-slider-response","trial_index":157,"time_elapsed":564609,"internal_node_id":"0.0-3.0-0.154","subject_id":"5f7b2ce6b2c8250797d6b54d","study_id":"605e2a800ccfa0c8e820d869","session_id":"606220e8ea254d22d944b3a5"},{"rt":3691.9299999717623,"stimulus":"img/00122.png","slider_start":4,"response":5,"trial_type":"image-slider-response","trial_index":158,"time_elapsed":568303,"internal_node_id":"0.0-3.0-0.155","subject_id":"5f7b2ce6b2c8250797d6b54d","study_id":"605e2a800ccfa0c8e820d869","session_id":"606220e8ea254d22d944b3a5"},{"rt":6316.274999873713,"stimulus":"img/00618.png","slider_start":4,"response":5,"trial_type":"image-slider-response","trial_index":159,"time_elapsed":574620,"internal_node_id":"0.0-3.0-0.156","subject_id":"5f7b2ce6b2c8250797d6b54d","study_id":"605e2a800ccfa0c8e820d869","session_id":"606220e8ea254d22d944b3a5"},{"rt":1506.8800000008196,"stimulus":"img/00564.png","slider_start":4,"response":5,"trial_type":"image-slider-response","trial_index":160,"time_elapsed":576129,"internal_node_id":"0.0-3.0-0.157","subject_id":"5f7b2ce6b2c8250797d6b54d","study_id":"605e2a800ccfa0c8e820d869","session_id":"606220e8ea254d22d944b3a5"},{"rt":4534.514999948442,"stimulus":"img/00747.png","slider_start":4,"response":5,"trial_type":"image-slider-response","trial_index":161,"time_elapsed":580665,"internal_node_id":"0.0-3.0-0.158","subject_id":"5f7b2ce6b2c8250797d6b54d","study_id":"605e2a800ccfa0c8e820d869","session_id":"606220e8ea254d22d944b3a5"},{"rt":2525.1700000371784,"stimulus":"img/00114.png","slider_start":4,"response":3,"trial_type":"image-slider-response","trial_index":162,"time_elapsed":583192,"internal_node_id":"0.0-3.0-0.159","subject_id":"5f7b2ce6b2c8250797d6b54d","study_id":"605e2a800ccfa0c8e820d869","session_id":"606220e8ea254d22d944b3a5"},{"rt":2574.3499998934567,"stimulus":"img/00029.png","slider_start":4,"response":3,"trial_type":"image-slider-response","trial_index":163,"time_elapsed":585767,"internal_node_id":"0.0-3.0-0.160","subject_id":"5f7b2ce6b2c8250797d6b54d","study_id":"605e2a800ccfa0c8e820d869","session_id":"606220e8ea254d22d944b3a5"},{"rt":1867.924999911338,"stimulus":"img/00957.png","slider_start":4,"response":3,"trial_type":"image-slider-response","trial_index":164,"time_elapsed":587637,"internal_node_id":"0.0-3.0-0.161","subject_id":"5f7b2ce6b2c8250797d6b54d","study_id":"605e2a800ccfa0c8e820d869","session_id":"606220e8ea254d22d944b3a5"},{"rt":3098.7550001591444,"stimulus":"img/00991.png","slider_start":4,"response":3,"trial_type":"image-slider-response","trial_index":165,"time_elapsed":590737,"internal_node_id":"0.0-3.0-0.162","subject_id":"5f7b2ce6b2c8250797d6b54d","study_id":"605e2a800ccfa0c8e820d869","session_id":"606220e8ea254d22d944b3a5"},{"rt":1886.4599999506027,"stimulus":"img/00793.png","slider_start":4,"response":3,"trial_type":"image-slider-response","trial_index":166,"time_elapsed":592625,"internal_node_id":"0.0-3.0-0.163","subject_id":"5f7b2ce6b2c8250797d6b54d","study_id":"605e2a800ccfa0c8e820d869","session_id":"606220e8ea254d22d944b3a5"},{"rt":2446.8749999068677,"stimulus":"img/00801.png","slider_start":4,"response":3,"trial_type":"image-slider-response","trial_index":167,"time_elapsed":595073,"internal_node_id":"0.0-3.0-0.164","subject_id":"5f7b2ce6b2c8250797d6b54d","study_id":"605e2a800ccfa0c8e820d869","session_id":"606220e8ea254d22d944b3a5"},{"rt":2737.3949999455363,"stimulus":"img/00780.png","slider_start":4,"response":5,"trial_type":"image-slider-response","trial_index":168,"time_elapsed":597811,"internal_node_id":"0.0-3.0-0.165","subject_id":"5f7b2ce6b2c8250797d6b54d","study_id":"605e2a800ccfa0c8e820d869","session_id":"606220e8ea254d22d944b3a5"},{"rt":2758.5650000255555,"stimulus":"img/00079.png","slider_start":4,"response":5,"trial_type":"image-slider-response","trial_index":169,"time_elapsed":600571,"internal_node_id":"0.0-3.0-0.166","subject_id":"5f7b2ce6b2c8250797d6b54d","study_id":"605e2a800ccfa0c8e820d869","session_id":"606220e8ea254d22d944b3a5"},{"rt":1426.7450000625104,"stimulus":"img/00011.png","slider_start":4,"response":5,"trial_type":"image-slider-response","trial_index":170,"time_elapsed":601999,"internal_node_id":"0.0-3.0-0.167","subject_id":"5f7b2ce6b2c8250797d6b54d","study_id":"605e2a800ccfa0c8e820d869","session_id":"606220e8ea254d22d944b3a5"},{"rt":2165.3100000694394,"stimulus":"img/00418.png","slider_start":4,"response":5,"trial_type":"image-slider-response","trial_index":171,"time_elapsed":604166,"internal_node_id":"0.0-3.0-0.168","subject_id":"5f7b2ce6b2c8250797d6b54d","study_id":"605e2a800ccfa0c8e820d869","session_id":"606220e8ea254d22d944b3a5"},{"rt":1860.6049998197705,"stimulus":"img/00748.png","slider_start":4,"response":5,"trial_type":"image-slider-response","trial_index":172,"time_elapsed":606028,"internal_node_id":"0.0-3.0-0.169","subject_id":"5f7b2ce6b2c8250797d6b54d","study_id":"605e2a800ccfa0c8e820d869","session_id":"606220e8ea254d22d944b3a5"},{"rt":1629.6200000215322,"stimulus":"img/00048.png","slider_start":4,"response":3,"trial_type":"image-slider-response","trial_index":173,"time_elapsed":607659,"internal_node_id":"0.0-3.0-0.170","subject_id":"5f7b2ce6b2c8250797d6b54d","study_id":"605e2a800ccfa0c8e820d869","session_id":"606220e8ea254d22d944b3a5"},{"rt":1610.0600000936538,"stimulus":"img/00401.png","slider_start":4,"response":2,"trial_type":"image-slider-response","trial_index":174,"time_elapsed":609271,"internal_node_id":"0.0-3.0-0.171","subject_id":"5f7b2ce6b2c8250797d6b54d","study_id":"605e2a800ccfa0c8e820d869","session_id":"606220e8ea254d22d944b3a5"}]