[{"rt":75734.15000003297,"stimulus":"Welcome to the experiment. Press any key to begin.","response":"enter","trial_type":"html-keyboard-response","trial_index":0,"time_elapsed":75736,"internal_node_id":"0.0-0.0","subject_id":"5f407fa7efc14a1c973b17e9","study_id":"605e2a800ccfa0c8e820d869","session_id":"6062209870f942c09baa6cc3"},{"rt":23809.649999951944,"stimulus":"\n        <p>In this experiment, a face will appear on-screen.</p><p> <strong>Rate the face on a 1 - 7 scale based on how attractive he / she is.</strong> </p>\n        </div>\n        <p>Press any key to begin.</p>\n      ","response":"enter","trial_type":"html-keyboard-response","trial_index":1,"time_elapsed":99546,"internal_node_id":"0.0-1.0","subject_id":"5f407fa7efc14a1c973b17e9","study_id":"605e2a800ccfa0c8e820d869","session_id":"6062209870f942c09baa6cc3"},{"success":true,"timeout":false,"failed_images":[],"failed_audio":[],"failed_video":[],"trial_type":"preload","trial_index":2,"time_elapsed":121701,"internal_node_id":"0.0-2.0","subject_id":"5f407fa7efc14a1c973b17e9","study_id":"605e2a800ccfa0c8e820d869","session_id":"6062209870f942c09baa6cc3"},{"rt":3598.0749999871477,"stimulus":"img/00438.png","slider_start":4,"response":3,"trial_type":"image-slider-response","trial_index":3,"time_elapsed":125306,"internal_node_id":"0.0-3.0-0.0","subject_id":"5f407fa7efc14a1c973b17e9","study_id":"605e2a800ccfa0c8e820d869","session_id":"6062209870f942c09baa6cc3"},{"rt":1954.6600000467151,"stimulus":"img/00773.png","slider_start":4,"response":2,"trial_type":"image-slider-response","trial_index":4,"time_elapsed":127262,"internal_node_id":"0.0-3.0-0.1","subject_id":"5f407fa7efc14a1c973b17e9","study_id":"605e2a800ccfa0c8e820d869","session_id":"6062209870f942c09baa6cc3"},{"rt":1641.605000011623,"stimulus":"img/00653.png","slider_start":4,"response":2,"trial_type":"image-slider-response","trial_index":5,"time_elapsed":128905,"internal_node_id":"0.0-3.0-0.2","subject_id":"5f407fa7efc14a1c973b17e9","study_id":"605e2a800ccfa0c8e820d869","session_id":"6062209870f942c09baa6cc3"},{"rt":1869.1849999595433,"stimulus":"img/00079.png","slider_start":4,"response":2,"trial_type":"image-slider-response","trial_index":6,"time_elapsed":130776,"internal_node_id":"0.0-3.0-0.3","subject_id":"5f407fa7efc14a1c973b17e9","study_id":"605e2a800ccfa0c8e820d869","session_id":"6062209870f942c09baa6cc3"},{"rt":1475.9450000710785,"stimulus":"img/00928.png","slider_start":4,"response":3,"trial_type":"image-slider-response","trial_index":7,"time_elapsed":132253,"internal_node_id":"0.0-3.0-0.4","subject_id":"5f407fa7efc14a1c973b17e9","study_id":"605e2a800ccfa0c8e820d869","session_id":"6062209870f942c09baa6cc3"},{"rt":1484.1499999165535,"stimulus":"img/00521.png","slider_start":4,"response":2,"trial_type":"image-slider-response","trial_index":8,"time_elapsed":133738,"internal_node_id":"0.0-3.0-0.5","subject_id":"5f407fa7efc14a1c973b17e9","study_id":"605e2a800ccfa0c8e820d869","session_id":"6062209870f942c09baa6cc3"},{"rt":1310.7050000689924,"stimulus":"img/00799.png","slider_start":4,"response":2,"trial_type":"image-slider-response","trial_index":9,"time_elapsed":135050,"internal_node_id":"0.0-3.0-0.6","subject_id":"5f407fa7efc14a1c973b17e9","study_id":"605e2a800ccfa0c8e820d869","session_id":"6062209870f942c09baa6cc3"},{"rt":1478.1349999830127,"stimulus":"img/00078.png","slider_start":4,"response":1,"trial_type":"image-slider-response","trial_index":10,"time_elapsed":136529,"internal_node_id":"0.0-3.0-0.7","subject_id":"5f407fa7efc14a1c973b17e9","study_id":"605e2a800ccfa0c8e820d869","session_id":"6062209870f942c09baa6cc3"},{"rt":1571.3100000284612,"stimulus":"img/00496.png","slider_start":4,"response":2,"trial_type":"image-slider-response","trial_index":11,"time_elapsed":138102,"internal_node_id":"0.0-3.0-0.8","subject_id":"5f407fa7efc14a1c973b17e9","study_id":"605e2a800ccfa0c8e820d869","session_id":"6062209870f942c09baa6cc3"},{"rt":1338.2149999961257,"stimulus":"img/00689.png","slider_start":4,"response":2,"trial_type":"image-slider-response","trial_index":12,"time_elapsed":139441,"internal_node_id":"0.0-3.0-0.9","subject_id":"5f407fa7efc14a1c973b17e9","study_id":"605e2a800ccfa0c8e820d869","session_id":"6062209870f942c09baa6cc3"},{"rt":1369.539999985136,"stimulus":"img/00780.png","slider_start":4,"response":2,"trial_type":"image-slider-response","trial_index":13,"time_elapsed":140812,"internal_node_id":"0.0-3.0-0.10","subject_id":"5f407fa7efc14a1c973b17e9","study_id":"605e2a800ccfa0c8e820d869","session_id":"6062209870f942c09baa6cc3"},{"rt":1394.9449999490753,"stimulus":"img/00708.png","slider_start":4,"response":1,"trial_type":"image-slider-response","trial_index":14,"time_elapsed":142208,"internal_node_id":"0.0-3.0-0.11","subject_id":"5f407fa7efc14a1c973b17e9","study_id":"605e2a800ccfa0c8e820d869","session_id":"6062209870f942c09baa6cc3"},{"rt":1975.7949999766424,"stimulus":"img/00809.png","slider_start":4,"response":1,"trial_type":"image-slider-response","trial_index":15,"time_elapsed":144186,"internal_node_id":"0.0-3.0-0.12","subject_id":"5f407fa7efc14a1c973b17e9","study_id":"605e2a800ccfa0c8e820d869","session_id":"6062209870f942c09baa6cc3"},{"rt":1452.2449999349192,"stimulus":"img/00478.png","slider_start":4,"response":2,"trial_type":"image-slider-response","trial_index":16,"time_elapsed":145639,"internal_node_id":"0.0-3.0-0.13","subject_id":"5f407fa7efc14a1c973b17e9","study_id":"605e2a800ccfa0c8e820d869","session_id":"6062209870f942c09baa6cc3"},{"rt":2084.294999949634,"stimulus":"img/00982.png","slider_start":4,"response":1,"trial_type":"image-slider-response","trial_index":17,"time_elapsed":147724,"internal_node_id":"0.0-3.0-0.14","subject_id":"5f407fa7efc14a1c973b17e9","study_id":"605e2a800ccfa0c8e820d869","session_id":"6062209870f942c09baa6cc3"},{"rt":1360.9149999683723,"stimulus":"img/00439.png","slider_start":4,"response":2,"trial_type":"image-slider-response","trial_index":18,"time_elapsed":149086,"internal_node_id":"0.0-3.0-0.15","subject_id":"5f407fa7efc14a1c973b17e9","study_id":"605e2a800ccfa0c8e820d869","session_id":"6062209870f942c09baa6cc3"},{"rt":1550.0050000846386,"stimulus":"img/00023.png","slider_start":4,"response":2,"trial_type":"image-slider-response","trial_index":19,"time_elapsed":150638,"internal_node_id":"0.0-3.0-0.16","subject_id":"5f407fa7efc14a1c973b17e9","study_id":"605e2a800ccfa0c8e820d869","session_id":"6062209870f942c09baa6cc3"},{"rt":1481.2400001101196,"stimulus":"img/00688.png","slider_start":4,"response":1,"trial_type":"image-slider-response","trial_index":20,"time_elapsed":152120,"internal_node_id":"0.0-3.0-0.17","subject_id":"5f407fa7efc14a1c973b17e9","study_id":"605e2a800ccfa0c8e820d869","session_id":"6062209870f942c09baa6cc3"},{"rt":1439.7899999748915,"stimulus":"img/00115.png","slider_start":4,"response":1,"trial_type":"image-slider-response","trial_index":21,"time_elapsed":153561,"internal_node_id":"0.0-3.0-0.18","subject_id":"5f407fa7efc14a1c973b17e9","study_id":"605e2a800ccfa0c8e820d869","session_id":"6062209870f942c09baa6cc3"},{"rt":1654.0300000924617,"stimulus":"img/00793.png","slider_start":4,"response":2,"trial_type":"image-slider-response","trial_index":22,"time_elapsed":155216,"internal_node_id":"0.0-3.0-0.19","subject_id":"5f407fa7efc14a1c973b17e9","study_id":"605e2a800ccfa0c8e820d869","session_id":"6062209870f942c09baa6cc3"},{"rt":1738.6100000003353,"stimulus":"img/00986.png","slider_start":4,"response":1,"trial_type":"image-slider-response","trial_index":23,"time_elapsed":156956,"internal_node_id":"0.0-3.0-0.20","subject_id":"5f407fa7efc14a1c973b17e9","study_id":"605e2a800ccfa0c8e820d869","session_id":"6062209870f942c09baa6cc3"},{"rt":1388.124999939464,"stimulus":"img/00693.png","slider_start":4,"response":2,"trial_type":"image-slider-response","trial_index":24,"time_elapsed":158345,"internal_node_id":"0.0-3.0-0.21","subject_id":"5f407fa7efc14a1c973b17e9","study_id":"605e2a800ccfa0c8e820d869","session_id":"6062209870f942c09baa6cc3"},{"rt":1574.5099999476224,"stimulus":"img/00623.png","slider_start":4,"response":1,"trial_type":"image-slider-response","trial_index":25,"time_elapsed":159921,"internal_node_id":"0.0-3.0-0.22","subject_id":"5f407fa7efc14a1c973b17e9","study_id":"605e2a800ccfa0c8e820d869","session_id":"6062209870f942c09baa6cc3"},{"rt":1577.6449999539182,"stimulus":"img/00564.png","slider_start":4,"response":2,"trial_type":"image-slider-response","trial_index":26,"time_elapsed":161500,"internal_node_id":"0.0-3.0-0.23","subject_id":"5f407fa7efc14a1c973b17e9","study_id":"605e2a800ccfa0c8e820d869","session_id":"6062209870f942c09baa6cc3"},{"rt":1965.1900000171736,"stimulus":"img/00543.png","slider_start":4,"response":1,"trial_type":"image-slider-response","trial_index":27,"time_elapsed":163466,"internal_node_id":"0.0-3.0-0.24","subject_id":"5f407fa7efc14a1c973b17e9","study_id":"605e2a800ccfa0c8e820d869","session_id":"6062209870f942c09baa6cc3"},{"rt":1393.7600000062957,"stimulus":"img/00742.png","slider_start":4,"response":2,"trial_type":"image-slider-response","trial_index":28,"time_elapsed":164861,"internal_node_id":"0.0-3.0-0.25","subject_id":"5f407fa7efc14a1c973b17e9","study_id":"605e2a800ccfa0c8e820d869","session_id":"6062209870f942c09baa6cc3"},{"rt":1768.335000029765,"stimulus":"img/00731.png","slider_start":4,"response":2,"trial_type":"image-slider-response","trial_index":29,"time_elapsed":166631,"internal_node_id":"0.0-3.0-0.26","subject_id":"5f407fa7efc14a1c973b17e9","study_id":"605e2a800ccfa0c8e820d869","session_id":"6062209870f942c09baa6cc3"},{"rt":1592.174999997951,"stimulus":"img/00440.png","slider_start":4,"response":2,"trial_type":"image-slider-response","trial_index":30,"time_elapsed":168224,"internal_node_id":"0.0-3.0-0.27","subject_id":"5f407fa7efc14a1c973b17e9","study_id":"605e2a800ccfa0c8e820d869","session_id":"6062209870f942c09baa6cc3"},{"rt":1456.0549999587238,"stimulus":"img/00545.png","slider_start":4,"response":2,"trial_type":"image-slider-response","trial_index":31,"time_elapsed":169681,"internal_node_id":"0.0-3.0-0.28","subject_id":"5f407fa7efc14a1c973b17e9","study_id":"605e2a800ccfa0c8e820d869","session_id":"6062209870f942c09baa6cc3"},{"rt":1421.6749999905005,"stimulus":"img/00456.png","slider_start":4,"response":1,"trial_type":"image-slider-response","trial_index":32,"time_elapsed":171104,"internal_node_id":"0.0-3.0-0.29","subject_id":"5f407fa7efc14a1c973b17e9","study_id":"605e2a800ccfa0c8e820d869","session_id":"6062209870f942c09baa6cc3"},{"rt":1316.690000006929,"stimulus":"img/00404.png","slider_start":4,"response":2,"trial_type":"image-slider-response","trial_index":33,"time_elapsed":172422,"internal_node_id":"0.0-3.0-0.30","subject_id":"5f407fa7efc14a1c973b17e9","study_id":"605e2a800ccfa0c8e820d869","session_id":"6062209870f942c09baa6cc3"},{"rt":1280.5800000205636,"stimulus":"img/00603.png","slider_start":4,"response":1,"trial_type":"image-slider-response","trial_index":34,"time_elapsed":173704,"internal_node_id":"0.0-3.0-0.31","subject_id":"5f407fa7efc14a1c973b17e9","study_id":"605e2a800ccfa0c8e820d869","session_id":"6062209870f942c09baa6cc3"},{"rt":1819.6849999949336,"stimulus":"img/00879.png","slider_start":4,"response":1,"trial_type":"image-slider-response","trial_index":35,"time_elapsed":175525,"internal_node_id":"0.0-3.0-0.32","subject_id":"5f407fa7efc14a1c973b17e9","study_id":"605e2a800ccfa0c8e820d869","session_id":"6062209870f942c09baa6cc3"},{"rt":1302.1149999694899,"stimulus":"img/00114.png","slider_start":4,"response":1,"trial_type":"image-slider-response","trial_index":36,"time_elapsed":176828,"internal_node_id":"0.0-3.0-0.33","subject_id":"5f407fa7efc14a1c973b17e9","study_id":"605e2a800ccfa0c8e820d869","session_id":"6062209870f942c09baa6cc3"},{"rt":1338.259999989532,"stimulus":"img/00055.png","slider_start":4,"response":1,"trial_type":"image-slider-response","trial_index":37,"time_elapsed":178168,"internal_node_id":"0.0-3.0-0.34","subject_id":"5f407fa7efc14a1c973b17e9","study_id":"605e2a800ccfa0c8e820d869","session_id":"6062209870f942c09baa6cc3"},{"rt":1659.1849999967963,"stimulus":"img/00554.png","slider_start":4,"response":1,"trial_type":"image-slider-response","trial_index":38,"time_elapsed":179828,"internal_node_id":"0.0-3.0-0.35","subject_id":"5f407fa7efc14a1c973b17e9","study_id":"605e2a800ccfa0c8e820d869","session_id":"6062209870f942c09baa6cc3"},{"rt":1495.5700000282377,"stimulus":"img/00825.png","slider_start":4,"response":1,"trial_type":"image-slider-response","trial_index":39,"time_elapsed":181325,"internal_node_id":"0.0-3.0-0.36","subject_id":"5f407fa7efc14a1c973b17e9","study_id":"605e2a800ccfa0c8e820d869","session_id":"6062209870f942c09baa6cc3"},{"rt":1467.0250000199303,"stimulus":"img/00618.png","slider_start":4,"response":1,"trial_type":"image-slider-response","trial_index":40,"time_elapsed":182793,"internal_node_id":"0.0-3.0-0.37","subject_id":"5f407fa7efc14a1c973b17e9","study_id":"605e2a800ccfa0c8e820d869","session_id":"6062209870f942c09baa6cc3"},{"rt":1971.3599999668077,"stimulus":"img/00481.png","slider_start":4,"response":1,"trial_type":"image-slider-response","trial_index":41,"time_elapsed":184766,"internal_node_id":"0.0-3.0-0.38","subject_id":"5f407fa7efc14a1c973b17e9","study_id":"605e2a800ccfa0c8e820d869","session_id":"6062209870f942c09baa6cc3"},{"rt":1294.0899999812245,"stimulus":"img/00406.png","slider_start":4,"response":1,"trial_type":"image-slider-response","trial_index":42,"time_elapsed":186061,"internal_node_id":"0.0-3.0-0.39","subject_id":"5f407fa7efc14a1c973b17e9","study_id":"605e2a800ccfa0c8e820d869","session_id":"6062209870f942c09baa6cc3"},{"rt":1370.1650000875816,"stimulus":"img/00042.png","slider_start":4,"response":2,"trial_type":"image-slider-response","trial_index":43,"time_elapsed":187433,"internal_node_id":"0.0-3.0-0.40","subject_id":"5f407fa7efc14a1c973b17e9","study_id":"605e2a800ccfa0c8e820d869","session_id":"6062209870f942c09baa6cc3"},{"rt":6109.895000001416,"stimulus":"img/00012.png","slider_start":4,"response":2,"trial_type":"image-slider-response","trial_index":44,"time_elapsed":193544,"internal_node_id":"0.0-3.0-0.41","subject_id":"5f407fa7efc14a1c973b17e9","study_id":"605e2a800ccfa0c8e820d869","session_id":"6062209870f942c09baa6cc3"},{"rt":1322.4649999756366,"stimulus":"img/00789.png","slider_start":4,"response":1,"trial_type":"image-slider-response","trial_index":45,"time_elapsed":194869,"internal_node_id":"0.0-3.0-0.42","subject_id":"5f407fa7efc14a1c973b17e9","study_id":"605e2a800ccfa0c8e820d869","session_id":"6062209870f942c09baa6cc3"},{"rt":1488.6350000742823,"stimulus":"img/00903.png","slider_start":4,"response":1,"trial_type":"image-slider-response","trial_index":46,"time_elapsed":196358,"internal_node_id":"0.0-3.0-0.43","subject_id":"5f407fa7efc14a1c973b17e9","study_id":"605e2a800ccfa0c8e820d869","session_id":"6062209870f942c09baa6cc3"},{"rt":1375.2450000029057,"stimulus":"img/00113.png","slider_start":4,"response":1,"trial_type":"image-slider-response","trial_index":47,"time_elapsed":197735,"internal_node_id":"0.0-3.0-0.44","subject_id":"5f407fa7efc14a1c973b17e9","study_id":"605e2a800ccfa0c8e820d869","session_id":"6062209870f942c09baa6cc3"},{"rt":1376.589999999851,"stimulus":"img/00926.png","slider_start":4,"response":1,"trial_type":"image-slider-response","trial_index":48,"time_elapsed":199113,"internal_node_id":"0.0-3.0-0.45","subject_id":"5f407fa7efc14a1c973b17e9","study_id":"605e2a800ccfa0c8e820d869","session_id":"6062209870f942c09baa6cc3"},{"rt":1284.6800000406802,"stimulus":"img/00464.png","slider_start":4,"response":1,"trial_type":"image-slider-response","trial_index":49,"time_elapsed":200399,"internal_node_id":"0.0-3.0-0.46","subject_id":"5f407fa7efc14a1c973b17e9","study_id":"605e2a800ccfa0c8e820d869","session_id":"6062209870f942c09baa6cc3"},{"rt":2063.839999958873,"stimulus":"img/00691.png","slider_start":4,"response":1,"trial_type":"image-slider-response","trial_index":50,"time_elapsed":202464,"internal_node_id":"0.0-3.0-0.47","subject_id":"5f407fa7efc14a1c973b17e9","study_id":"605e2a800ccfa0c8e820d869","session_id":"6062209870f942c09baa6cc3"},{"rt":1243.7649999046698,"stimulus":"img/00848.png","slider_start":4,"response":1,"trial_type":"image-slider-response","trial_index":51,"time_elapsed":203709,"internal_node_id":"0.0-3.0-0.48","subject_id":"5f407fa7efc14a1c973b17e9","study_id":"605e2a800ccfa0c8e820d869","session_id":"6062209870f942c09baa6cc3"},{"rt":1245.9150000941008,"stimulus":"img/00059.png","slider_start":4,"response":1,"trial_type":"image-slider-response","trial_index":52,"time_elapsed":204956,"internal_node_id":"0.0-3.0-0.49","subject_id":"5f407fa7efc14a1c973b17e9","study_id":"605e2a800ccfa0c8e820d869","session_id":"6062209870f942c09baa6cc3"},{"rt":1182.1299999719486,"stimulus":"img/00016.png","slider_start":4,"response":1,"trial_type":"image-slider-response","trial_index":53,"time_elapsed":206139,"internal_node_id":"0.0-3.0-0.50","subject_id":"5f407fa7efc14a1c973b17e9","study_id":"605e2a800ccfa0c8e820d869","session_id":"6062209870f942c09baa6cc3"},{"rt":1648.420000099577,"stimulus":"img/00744.png","slider_start":4,"response":1,"trial_type":"image-slider-response","trial_index":54,"time_elapsed":207789,"internal_node_id":"0.0-3.0-0.51","subject_id":"5f407fa7efc14a1c973b17e9","study_id":"605e2a800ccfa0c8e820d869","session_id":"6062209870f942c09baa6cc3"},{"rt":1728.609999991022,"stimulus":"img/00779.png","slider_start":4,"response":1,"trial_type":"image-slider-response","trial_index":55,"time_elapsed":209519,"internal_node_id":"0.0-3.0-0.52","subject_id":"5f407fa7efc14a1c973b17e9","study_id":"605e2a800ccfa0c8e820d869","session_id":"6062209870f942c09baa6cc3"},{"rt":1506.0049999738112,"stimulus":"img/00048.png","slider_start":4,"response":1,"trial_type":"image-slider-response","trial_index":56,"time_elapsed":211026,"internal_node_id":"0.0-3.0-0.53","subject_id":"5f407fa7efc14a1c973b17e9","study_id":"605e2a800ccfa0c8e820d869","session_id":"6062209870f942c09baa6cc3"},{"rt":1364.7749999072403,"stimulus":"img/00405.png","slider_start":4,"response":1,"trial_type":"image-slider-response","trial_index":57,"time_elapsed":212392,"internal_node_id":"0.0-3.0-0.54","subject_id":"5f407fa7efc14a1c973b17e9","study_id":"605e2a800ccfa0c8e820d869","session_id":"6062209870f942c09baa6cc3"},{"rt":1274.0350000094622,"stimulus":"img/00722.png","slider_start":4,"response":1,"trial_type":"image-slider-response","trial_index":58,"time_elapsed":213667,"internal_node_id":"0.0-3.0-0.55","subject_id":"5f407fa7efc14a1c973b17e9","study_id":"605e2a800ccfa0c8e820d869","session_id":"6062209870f942c09baa6cc3"},{"rt":1608.6049999576062,"stimulus":"img/00432.png","slider_start":4,"response":1,"trial_type":"image-slider-response","trial_index":59,"time_elapsed":215277,"internal_node_id":"0.0-3.0-0.56","subject_id":"5f407fa7efc14a1c973b17e9","study_id":"605e2a800ccfa0c8e820d869","session_id":"6062209870f942c09baa6cc3"},{"rt":1472.6599999703467,"stimulus":"img/00469.png","slider_start":4,"response":1,"trial_type":"image-slider-response","trial_index":60,"time_elapsed":216751,"internal_node_id":"0.0-3.0-0.57","subject_id":"5f407fa7efc14a1c973b17e9","study_id":"605e2a800ccfa0c8e820d869","session_id":"6062209870f942c09baa6cc3"},{"rt":1472.45500003919,"stimulus":"img/00631.png","slider_start":4,"response":1,"trial_type":"image-slider-response","trial_index":61,"time_elapsed":218224,"internal_node_id":"0.0-3.0-0.58","subject_id":"5f407fa7efc14a1c973b17e9","study_id":"605e2a800ccfa0c8e820d869","session_id":"6062209870f942c09baa6cc3"},{"rt":1115.265000029467,"stimulus":"img/00811.png","slider_start":4,"response":1,"trial_type":"image-slider-response","trial_index":62,"time_elapsed":219341,"internal_node_id":"0.0-3.0-0.59","subject_id":"5f407fa7efc14a1c973b17e9","study_id":"605e2a800ccfa0c8e820d869","session_id":"6062209870f942c09baa6cc3"},{"rt":2035.1299999747425,"stimulus":"img/00756.png","slider_start":4,"response":1,"trial_type":"image-slider-response","trial_index":63,"time_elapsed":221377,"internal_node_id":"0.0-3.0-0.60","subject_id":"5f407fa7efc14a1c973b17e9","study_id":"605e2a800ccfa0c8e820d869","session_id":"6062209870f942c09baa6cc3"},{"rt":1300.829999963753,"stimulus":"img/00462.png","slider_start":4,"response":1,"trial_type":"image-slider-response","trial_index":64,"time_elapsed":222679,"internal_node_id":"0.0-3.0-0.61","subject_id":"5f407fa7efc14a1c973b17e9","study_id":"605e2a800ccfa0c8e820d869","session_id":"6062209870f942c09baa6cc3"},{"rt":1516.0549998981878,"stimulus":"img/40.png","slider_start":4,"response":1,"trial_type":"image-slider-response","trial_index":65,"time_elapsed":224196,"internal_node_id":"0.0-3.0-0.62","subject_id":"5f407fa7efc14a1c973b17e9","study_id":"605e2a800ccfa0c8e820d869","session_id":"6062209870f942c09baa6cc3"},{"rt":1301.5150000574067,"stimulus":"img/00790.png","slider_start":4,"response":1,"trial_type":"image-slider-response","trial_index":66,"time_elapsed":225499,"internal_node_id":"0.0-3.0-0.63","subject_id":"5f407fa7efc14a1c973b17e9","study_id":"605e2a800ccfa0c8e820d869","session_id":"6062209870f942c09baa6cc3"},{"rt":1136.6649999981746,"stimulus":"img/00489.png","slider_start":4,"response":1,"trial_type":"image-slider-response","trial_index":67,"time_elapsed":226637,"internal_node_id":"0.0-3.0-0.64","subject_id":"5f407fa7efc14a1c973b17e9","study_id":"605e2a800ccfa0c8e820d869","session_id":"6062209870f942c09baa6cc3"},{"rt":1288.6299999663606,"stimulus":"img/00428.png","slider_start":4,"response":1,"trial_type":"image-slider-response","trial_index":68,"time_elapsed":227927,"internal_node_id":"0.0-3.0-0.65","subject_id":"5f407fa7efc14a1c973b17e9","study_id":"605e2a800ccfa0c8e820d869","session_id":"6062209870f942c09baa6cc3"},{"rt":1773.7099999794737,"stimulus":"img/00576.png","slider_start":4,"response":1,"trial_type":"image-slider-response","trial_index":69,"time_elapsed":229702,"internal_node_id":"0.0-3.0-0.66","subject_id":"5f407fa7efc14a1c973b17e9","study_id":"605e2a800ccfa0c8e820d869","session_id":"6062209870f942c09baa6cc3"},{"rt":1384.0049999998882,"stimulus":"img/00988.png","slider_start":4,"response":1,"trial_type":"image-slider-response","trial_index":70,"time_elapsed":231087,"internal_node_id":"0.0-3.0-0.67","subject_id":"5f407fa7efc14a1c973b17e9","study_id":"605e2a800ccfa0c8e820d869","session_id":"6062209870f942c09baa6cc3"},{"rt":1156.7400000058115,"stimulus":"img/00761.png","slider_start":4,"response":1,"trial_type":"image-slider-response","trial_index":71,"time_elapsed":232245,"internal_node_id":"0.0-3.0-0.68","subject_id":"5f407fa7efc14a1c973b17e9","study_id":"605e2a800ccfa0c8e820d869","session_id":"6062209870f942c09baa6cc3"},{"rt":1515.529999975115,"stimulus":"img/00956.png","slider_start":4,"response":2,"trial_type":"image-slider-response","trial_index":72,"time_elapsed":233762,"internal_node_id":"0.0-3.0-0.69","subject_id":"5f407fa7efc14a1c973b17e9","study_id":"605e2a800ccfa0c8e820d869","session_id":"6062209870f942c09baa6cc3"},{"rt":1250.3799999831244,"stimulus":"img/00854.png","slider_start":4,"response":1,"trial_type":"image-slider-response","trial_index":73,"time_elapsed":235013,"internal_node_id":"0.0-3.0-0.70","subject_id":"5f407fa7efc14a1c973b17e9","study_id":"605e2a800ccfa0c8e820d869","session_id":"6062209870f942c09baa6cc3"},{"rt":1395.4150000354275,"stimulus":"img/00413.png","slider_start":4,"response":2,"trial_type":"image-slider-response","trial_index":74,"time_elapsed":236410,"internal_node_id":"0.0-3.0-0.71","subject_id":"5f407fa7efc14a1c973b17e9","study_id":"605e2a800ccfa0c8e820d869","session_id":"6062209870f942c09baa6cc3"},{"rt":1217.4949999898672,"stimulus":"img/00913.png","slider_start":4,"response":1,"trial_type":"image-slider-response","trial_index":75,"time_elapsed":237629,"internal_node_id":"0.0-3.0-0.72","subject_id":"5f407fa7efc14a1c973b17e9","study_id":"605e2a800ccfa0c8e820d869","session_id":"6062209870f942c09baa6cc3"},{"rt":1223.9399999380112,"stimulus":"img/00797.png","slider_start":4,"response":1,"trial_type":"image-slider-response","trial_index":76,"time_elapsed":238854,"internal_node_id":"0.0-3.0-0.73","subject_id":"5f407fa7efc14a1c973b17e9","study_id":"605e2a800ccfa0c8e820d869","session_id":"6062209870f942c09baa6cc3"},{"rt":4049.085000064224,"stimulus":"img/00041.png","slider_start":4,"response":5,"trial_type":"image-slider-response","trial_index":77,"time_elapsed":242904,"internal_node_id":"0.0-3.0-0.74","subject_id":"5f407fa7efc14a1c973b17e9","study_id":"605e2a800ccfa0c8e820d869","session_id":"6062209870f942c09baa6cc3"},{"rt":1320.8299999823794,"stimulus":"img/00029.png","slider_start":4,"response":1,"trial_type":"image-slider-response","trial_index":78,"time_elapsed":244227,"internal_node_id":"0.0-3.0-0.75","subject_id":"5f407fa7efc14a1c973b17e9","study_id":"605e2a800ccfa0c8e820d869","session_id":"6062209870f942c09baa6cc3"},{"rt":1467.3099999781698,"stimulus":"img/00951.png","slider_start":4,"response":1,"trial_type":"image-slider-response","trial_index":79,"time_elapsed":245695,"internal_node_id":"0.0-3.0-0.76","subject_id":"5f407fa7efc14a1c973b17e9","study_id":"605e2a800ccfa0c8e820d869","session_id":"6062209870f942c09baa6cc3"},{"rt":1476.325000054203,"stimulus":"img/00401.png","slider_start":4,"response":1,"trial_type":"image-slider-response","trial_index":80,"time_elapsed":247173,"internal_node_id":"0.0-3.0-0.77","subject_id":"5f407fa7efc14a1c973b17e9","study_id":"605e2a800ccfa0c8e820d869","session_id":"6062209870f942c09baa6cc3"},{"rt":2146.3549999753013,"stimulus":"img/00878.png","slider_start":4,"response":1,"trial_type":"image-slider-response","trial_index":81,"time_elapsed":249320,"internal_node_id":"0.0-3.0-0.78","subject_id":"5f407fa7efc14a1c973b17e9","study_id":"605e2a800ccfa0c8e820d869","session_id":"6062209870f942c09baa6cc3"},{"rt":1552.4049999658018,"stimulus":"img/00460.png","slider_start":4,"response":1,"trial_type":"image-slider-response","trial_index":82,"time_elapsed":250874,"internal_node_id":"0.0-3.0-0.79","subject_id":"5f407fa7efc14a1c973b17e9","study_id":"605e2a800ccfa0c8e820d869","session_id":"6062209870f942c09baa6cc3"},{"rt":1333.8349999394268,"stimulus":"img/00126.png","slider_start":4,"response":1,"trial_type":"image-slider-response","trial_index":83,"time_elapsed":252209,"internal_node_id":"0.0-3.0-0.80","subject_id":"5f407fa7efc14a1c973b17e9","study_id":"605e2a800ccfa0c8e820d869","session_id":"6062209870f942c09baa6cc3"},{"rt":1980.6650000391528,"stimulus":"img/00853.png","slider_start":4,"response":2,"trial_type":"image-slider-response","trial_index":84,"time_elapsed":254190,"internal_node_id":"0.0-3.0-0.81","subject_id":"5f407fa7efc14a1c973b17e9","study_id":"605e2a800ccfa0c8e820d869","session_id":"6062209870f942c09baa6cc3"},{"rt":4608.735000016168,"stimulus":"img/00902.png","slider_start":4,"response":4,"trial_type":"image-slider-response","trial_index":85,"time_elapsed":258800,"internal_node_id":"0.0-3.0-0.82","subject_id":"5f407fa7efc14a1c973b17e9","study_id":"605e2a800ccfa0c8e820d869","session_id":"6062209870f942c09baa6cc3"},{"rt":1607.2400000412017,"stimulus":"img/00747.png","slider_start":4,"response":1,"trial_type":"image-slider-response","trial_index":86,"time_elapsed":260409,"internal_node_id":"0.0-3.0-0.83","subject_id":"5f407fa7efc14a1c973b17e9","study_id":"605e2a800ccfa0c8e820d869","session_id":"6062209870f942c09baa6cc3"},{"rt":2377.3199999704957,"stimulus":"img/00842.png","slider_start":4,"response":2,"trial_type":"image-slider-response","trial_index":87,"time_elapsed":262788,"internal_node_id":"0.0-3.0-0.84","subject_id":"5f407fa7efc14a1c973b17e9","study_id":"605e2a800ccfa0c8e820d869","session_id":"6062209870f942c09baa6cc3"},{"rt":1185.4449999518692,"stimulus":"img/00989.png","slider_start":4,"response":1,"trial_type":"image-slider-response","trial_index":88,"time_elapsed":263975,"internal_node_id":"0.0-3.0-0.85","subject_id":"5f407fa7efc14a1c973b17e9","study_id":"605e2a800ccfa0c8e820d869","session_id":"6062209870f942c09baa6cc3"},{"rt":1415.8250000327826,"stimulus":"img/00592.png","slider_start":4,"response":1,"trial_type":"image-slider-response","trial_index":89,"time_elapsed":265392,"internal_node_id":"0.0-3.0-0.86","subject_id":"5f407fa7efc14a1c973b17e9","study_id":"605e2a800ccfa0c8e820d869","session_id":"6062209870f942c09baa6cc3"},{"rt":1435.3050000499934,"stimulus":"img/00896.png","slider_start":4,"response":2,"trial_type":"image-slider-response","trial_index":90,"time_elapsed":266828,"internal_node_id":"0.0-3.0-0.87","subject_id":"5f407fa7efc14a1c973b17e9","study_id":"605e2a800ccfa0c8e820d869","session_id":"6062209870f942c09baa6cc3"},{"rt":1351.4649999560788,"stimulus":"img/00052.png","slider_start":4,"response":1,"trial_type":"image-slider-response","trial_index":91,"time_elapsed":268181,"internal_node_id":"0.0-3.0-0.88","subject_id":"5f407fa7efc14a1c973b17e9","study_id":"605e2a800ccfa0c8e820d869","session_id":"6062209870f942c09baa6cc3"},{"rt":4821.959999972023,"stimulus":"img/00100.png","slider_start":4,"response":1,"trial_type":"image-slider-response","trial_index":92,"time_elapsed":273004,"internal_node_id":"0.0-3.0-0.89","subject_id":"5f407fa7efc14a1c973b17e9","study_id":"605e2a800ccfa0c8e820d869","session_id":"6062209870f942c09baa6cc3"},{"rt":1676.5700000105426,"stimulus":"img/00130.png","slider_start":4,"response":1,"trial_type":"image-slider-response","trial_index":93,"time_elapsed":274682,"internal_node_id":"0.0-3.0-0.90","subject_id":"5f407fa7efc14a1c973b17e9","study_id":"605e2a800ccfa0c8e820d869","session_id":"6062209870f942c09baa6cc3"},{"rt":1810.7200000667945,"stimulus":"img/00105.png","slider_start":4,"response":1,"trial_type":"image-slider-response","trial_index":94,"time_elapsed":276494,"internal_node_id":"0.0-3.0-0.91","subject_id":"5f407fa7efc14a1c973b17e9","study_id":"605e2a800ccfa0c8e820d869","session_id":"6062209870f942c09baa6cc3"},{"rt":1554.9599999794737,"stimulus":"img/00511.png","slider_start":4,"response":1,"trial_type":"image-slider-response","trial_index":95,"time_elapsed":278050,"internal_node_id":"0.0-3.0-0.92","subject_id":"5f407fa7efc14a1c973b17e9","study_id":"605e2a800ccfa0c8e820d869","session_id":"6062209870f942c09baa6cc3"},{"rt":5062.879999983124,"stimulus":"img/00998.png","slider_start":4,"response":3,"trial_type":"image-slider-response","trial_index":96,"time_elapsed":283115,"internal_node_id":"0.0-3.0-0.93","subject_id":"5f407fa7efc14a1c973b17e9","study_id":"605e2a800ccfa0c8e820d869","session_id":"6062209870f942c09baa6cc3"},{"rt":1493.4849999845028,"stimulus":"img/00973.png","slider_start":4,"response":1,"trial_type":"image-slider-response","trial_index":97,"time_elapsed":284610,"internal_node_id":"0.0-3.0-0.94","subject_id":"5f407fa7efc14a1c973b17e9","study_id":"605e2a800ccfa0c8e820d869","session_id":"6062209870f942c09baa6cc3"},{"rt":1296.5149999363348,"stimulus":"img/00967.png","slider_start":4,"response":1,"trial_type":"image-slider-response","trial_index":98,"time_elapsed":285908,"internal_node_id":"0.0-3.0-0.95","subject_id":"5f407fa7efc14a1c973b17e9","study_id":"605e2a800ccfa0c8e820d869","session_id":"6062209870f942c09baa6cc3"},{"rt":1277.0099999615923,"stimulus":"img/00466.png","slider_start":4,"response":1,"trial_type":"image-slider-response","trial_index":99,"time_elapsed":287186,"internal_node_id":"0.0-3.0-0.96","subject_id":"5f407fa7efc14a1c973b17e9","study_id":"605e2a800ccfa0c8e820d869","session_id":"6062209870f942c09baa6cc3"},{"rt":2491.755000082776,"stimulus":"img/00006.png","slider_start":4,"response":1,"trial_type":"image-slider-response","trial_index":100,"time_elapsed":289679,"internal_node_id":"0.0-3.0-0.97","subject_id":"5f407fa7efc14a1c973b17e9","study_id":"605e2a800ccfa0c8e820d869","session_id":"6062209870f942c09baa6cc3"},{"rt":1347.334999940358,"stimulus":"img/00949.png","slider_start":4,"response":1,"trial_type":"image-slider-response","trial_index":101,"time_elapsed":291028,"internal_node_id":"0.0-3.0-0.98","subject_id":"5f407fa7efc14a1c973b17e9","study_id":"605e2a800ccfa0c8e820d869","session_id":"6062209870f942c09baa6cc3"},{"rt":1252.1249999990687,"stimulus":"img/00418.png","slider_start":4,"response":1,"trial_type":"image-slider-response","trial_index":102,"time_elapsed":292281,"internal_node_id":"0.0-3.0-0.99","subject_id":"5f407fa7efc14a1c973b17e9","study_id":"605e2a800ccfa0c8e820d869","session_id":"6062209870f942c09baa6cc3"},{"rt":1191.1450000479817,"stimulus":"img/00995.png","slider_start":4,"response":1,"trial_type":"image-slider-response","trial_index":103,"time_elapsed":293473,"internal_node_id":"0.0-3.0-0.100","subject_id":"5f407fa7efc14a1c973b17e9","study_id":"605e2a800ccfa0c8e820d869","session_id":"6062209870f942c09baa6cc3"},{"rt":1261.4799999864772,"stimulus":"img/00483.png","slider_start":4,"response":1,"trial_type":"image-slider-response","trial_index":104,"time_elapsed":294736,"internal_node_id":"0.0-3.0-0.101","subject_id":"5f407fa7efc14a1c973b17e9","study_id":"605e2a800ccfa0c8e820d869","session_id":"6062209870f942c09baa6cc3"},{"rt":1298.975000041537,"stimulus":"img/00755.png","slider_start":4,"response":1,"trial_type":"image-slider-response","trial_index":105,"time_elapsed":296036,"internal_node_id":"0.0-3.0-0.102","subject_id":"5f407fa7efc14a1c973b17e9","study_id":"605e2a800ccfa0c8e820d869","session_id":"6062209870f942c09baa6cc3"},{"rt":1319.749999907799,"stimulus":"img/00561.png","slider_start":4,"response":1,"trial_type":"image-slider-response","trial_index":106,"time_elapsed":297357,"internal_node_id":"0.0-3.0-0.103","subject_id":"5f407fa7efc14a1c973b17e9","study_id":"605e2a800ccfa0c8e820d869","session_id":"6062209870f942c09baa6cc3"},{"rt":1359.6449999604374,"stimulus":"img/00764.png","slider_start":4,"response":1,"trial_type":"image-slider-response","trial_index":107,"time_elapsed":298718,"internal_node_id":"0.0-3.0-0.104","subject_id":"5f407fa7efc14a1c973b17e9","study_id":"605e2a800ccfa0c8e820d869","session_id":"6062209870f942c09baa6cc3"},{"rt":1561.6750000044703,"stimulus":"img/00833.png","slider_start":4,"response":1,"trial_type":"image-slider-response","trial_index":108,"time_elapsed":300281,"internal_node_id":"0.0-3.0-0.105","subject_id":"5f407fa7efc14a1c973b17e9","study_id":"605e2a800ccfa0c8e820d869","session_id":"6062209870f942c09baa6cc3"},{"rt":1587.3450000071898,"stimulus":"img/00037.png","slider_start":4,"response":1,"trial_type":"image-slider-response","trial_index":109,"time_elapsed":301871,"internal_node_id":"0.0-3.0-0.106","subject_id":"5f407fa7efc14a1c973b17e9","study_id":"605e2a800ccfa0c8e820d869","session_id":"6062209870f942c09baa6cc3"},{"rt":1188.4000001009554,"stimulus":"img/00815.png","slider_start":4,"response":1,"trial_type":"image-slider-response","trial_index":110,"time_elapsed":303060,"internal_node_id":"0.0-3.0-0.107","subject_id":"5f407fa7efc14a1c973b17e9","study_id":"605e2a800ccfa0c8e820d869","session_id":"6062209870f942c09baa6cc3"},{"rt":1170.189999975264,"stimulus":"img/00817.png","slider_start":4,"response":1,"trial_type":"image-slider-response","trial_index":111,"time_elapsed":304232,"internal_node_id":"0.0-3.0-0.108","subject_id":"5f407fa7efc14a1c973b17e9","study_id":"605e2a800ccfa0c8e820d869","session_id":"6062209870f942c09baa6cc3"},{"rt":1228.4100000979379,"stimulus":"img/00718.png","slider_start":4,"response":1,"trial_type":"image-slider-response","trial_index":112,"time_elapsed":305462,"internal_node_id":"0.0-3.0-0.109","subject_id":"5f407fa7efc14a1c973b17e9","study_id":"605e2a800ccfa0c8e820d869","session_id":"6062209870f942c09baa6cc3"},{"rt":1341.480000060983,"stimulus":"img/00957.png","slider_start":4,"response":1,"trial_type":"image-slider-response","trial_index":113,"time_elapsed":306804,"internal_node_id":"0.0-3.0-0.110","subject_id":"5f407fa7efc14a1c973b17e9","study_id":"605e2a800ccfa0c8e820d869","session_id":"6062209870f942c09baa6cc3"},{"rt":1226.1700000381097,"stimulus":"img/00508.png","slider_start":4,"response":1,"trial_type":"image-slider-response","trial_index":114,"time_elapsed":308032,"internal_node_id":"0.0-3.0-0.111","subject_id":"5f407fa7efc14a1c973b17e9","study_id":"605e2a800ccfa0c8e820d869","session_id":"6062209870f942c09baa6cc3"},{"rt":1384.2949999962002,"stimulus":"img/00064.png","slider_start":4,"response":1,"trial_type":"image-slider-response","trial_index":115,"time_elapsed":309417,"internal_node_id":"0.0-3.0-0.112","subject_id":"5f407fa7efc14a1c973b17e9","study_id":"605e2a800ccfa0c8e820d869","session_id":"6062209870f942c09baa6cc3"},{"rt":3667.159999953583,"stimulus":"img/00101.png","slider_start":4,"response":1,"trial_type":"image-slider-response","trial_index":116,"time_elapsed":313086,"internal_node_id":"0.0-3.0-0.113","subject_id":"5f407fa7efc14a1c973b17e9","study_id":"605e2a800ccfa0c8e820d869","session_id":"6062209870f942c09baa6cc3"},{"rt":1135.8349999645725,"stimulus":"img/00522.png","slider_start":4,"response":1,"trial_type":"image-slider-response","trial_index":117,"time_elapsed":314223,"internal_node_id":"0.0-3.0-0.114","subject_id":"5f407fa7efc14a1c973b17e9","study_id":"605e2a800ccfa0c8e820d869","session_id":"6062209870f942c09baa6cc3"},{"rt":1092.1000000089407,"stimulus":"img/00841.png","slider_start":4,"response":1,"trial_type":"image-slider-response","trial_index":118,"time_elapsed":315316,"internal_node_id":"0.0-3.0-0.115","subject_id":"5f407fa7efc14a1c973b17e9","study_id":"605e2a800ccfa0c8e820d869","session_id":"6062209870f942c09baa6cc3"},{"rt":1138.6300000594929,"stimulus":"img/00447.png","slider_start":4,"response":1,"trial_type":"image-slider-response","trial_index":119,"time_elapsed":316456,"internal_node_id":"0.0-3.0-0.116","subject_id":"5f407fa7efc14a1c973b17e9","study_id":"605e2a800ccfa0c8e820d869","session_id":"6062209870f942c09baa6cc3"},{"rt":1131.2550000147894,"stimulus":"img/00822.png","slider_start":4,"response":1,"trial_type":"image-slider-response","trial_index":120,"time_elapsed":317588,"internal_node_id":"0.0-3.0-0.117","subject_id":"5f407fa7efc14a1c973b17e9","study_id":"605e2a800ccfa0c8e820d869","session_id":"6062209870f942c09baa6cc3"},{"rt":1286.3799999468029,"stimulus":"img/00930.png","slider_start":4,"response":1,"trial_type":"image-slider-response","trial_index":121,"time_elapsed":318876,"internal_node_id":"0.0-3.0-0.118","subject_id":"5f407fa7efc14a1c973b17e9","study_id":"605e2a800ccfa0c8e820d869","session_id":"6062209870f942c09baa6cc3"},{"rt":1040.6900000525638,"stimulus":"img/00752.png","slider_start":4,"response":1,"trial_type":"image-slider-response","trial_index":122,"time_elapsed":319918,"internal_node_id":"0.0-3.0-0.119","subject_id":"5f407fa7efc14a1c973b17e9","study_id":"605e2a800ccfa0c8e820d869","session_id":"6062209870f942c09baa6cc3"},{"rt":1308.0799999879673,"stimulus":"img/00690.png","slider_start":4,"response":1,"trial_type":"image-slider-response","trial_index":123,"time_elapsed":321228,"internal_node_id":"0.0-3.0-0.120","subject_id":"5f407fa7efc14a1c973b17e9","study_id":"605e2a800ccfa0c8e820d869","session_id":"6062209870f942c09baa6cc3"},{"rt":1169.564999989234,"stimulus":"img/00570.png","slider_start":4,"response":1,"trial_type":"image-slider-response","trial_index":124,"time_elapsed":322399,"internal_node_id":"0.0-3.0-0.121","subject_id":"5f407fa7efc14a1c973b17e9","study_id":"605e2a800ccfa0c8e820d869","session_id":"6062209870f942c09baa6cc3"},{"rt":1487.7799999667332,"stimulus":"img/00499.png","slider_start":4,"response":1,"trial_type":"image-slider-response","trial_index":125,"time_elapsed":323887,"internal_node_id":"0.0-3.0-0.122","subject_id":"5f407fa7efc14a1c973b17e9","study_id":"605e2a800ccfa0c8e820d869","session_id":"6062209870f942c09baa6cc3"},{"rt":1248.545000096783,"stimulus":"img/00040.png","slider_start":4,"response":2,"trial_type":"image-slider-response","trial_index":126,"time_elapsed":325137,"internal_node_id":"0.0-3.0-0.123","subject_id":"5f407fa7efc14a1c973b17e9","study_id":"605e2a800ccfa0c8e820d869","session_id":"6062209870f942c09baa6cc3"},{"rt":1507.7750000637025,"stimulus":"img/00549.png","slider_start":4,"response":1,"trial_type":"image-slider-response","trial_index":127,"time_elapsed":326646,"internal_node_id":"0.0-3.0-0.124","subject_id":"5f407fa7efc14a1c973b17e9","study_id":"605e2a800ccfa0c8e820d869","session_id":"6062209870f942c09baa6cc3"},{"rt":1379.1749998927116,"stimulus":"img/00644.png","slider_start":4,"response":1,"trial_type":"image-slider-response","trial_index":128,"time_elapsed":328026,"internal_node_id":"0.0-3.0-0.125","subject_id":"5f407fa7efc14a1c973b17e9","study_id":"605e2a800ccfa0c8e820d869","session_id":"6062209870f942c09baa6cc3"},{"rt":1464.5399999571964,"stimulus":"img/00810.png","slider_start":4,"response":1,"trial_type":"image-slider-response","trial_index":129,"time_elapsed":329492,"internal_node_id":"0.0-3.0-0.126","subject_id":"5f407fa7efc14a1c973b17e9","study_id":"605e2a800ccfa0c8e820d869","session_id":"6062209870f942c09baa6cc3"},{"rt":1519.9850000208244,"stimulus":"img/00581.png","slider_start":4,"response":1,"trial_type":"image-slider-response","trial_index":130,"time_elapsed":331013,"internal_node_id":"0.0-3.0-0.127","subject_id":"5f407fa7efc14a1c973b17e9","study_id":"605e2a800ccfa0c8e820d869","session_id":"6062209870f942c09baa6cc3"},{"rt":1226.589999976568,"stimulus":"img/00991.png","slider_start":4,"response":2,"trial_type":"image-slider-response","trial_index":131,"time_elapsed":332241,"internal_node_id":"0.0-3.0-0.128","subject_id":"5f407fa7efc14a1c973b17e9","study_id":"605e2a800ccfa0c8e820d869","session_id":"6062209870f942c09baa6cc3"},{"rt":1262.1649999637157,"stimulus":"img/00077.png","slider_start":4,"response":2,"trial_type":"image-slider-response","trial_index":132,"time_elapsed":333504,"internal_node_id":"0.0-3.0-0.129","subject_id":"5f407fa7efc14a1c973b17e9","study_id":"605e2a800ccfa0c8e820d869","session_id":"6062209870f942c09baa6cc3"},{"rt":1389.8499999195337,"stimulus":"img/00015.png","slider_start":4,"response":1,"trial_type":"image-slider-response","trial_index":133,"time_elapsed":334895,"internal_node_id":"0.0-3.0-0.130","subject_id":"5f407fa7efc14a1c973b17e9","study_id":"605e2a800ccfa0c8e820d869","session_id":"6062209870f942c09baa6cc3"},{"rt":1249.5500000659376,"stimulus":"img/00437.png","slider_start":4,"response":1,"trial_type":"image-slider-response","trial_index":134,"time_elapsed":336146,"internal_node_id":"0.0-3.0-0.131","subject_id":"5f407fa7efc14a1c973b17e9","study_id":"605e2a800ccfa0c8e820d869","session_id":"6062209870f942c09baa6cc3"},{"rt":1188.910000026226,"stimulus":"img/00791.png","slider_start":4,"response":1,"trial_type":"image-slider-response","trial_index":135,"time_elapsed":337336,"internal_node_id":"0.0-3.0-0.132","subject_id":"5f407fa7efc14a1c973b17e9","study_id":"605e2a800ccfa0c8e820d869","session_id":"6062209870f942c09baa6cc3"},{"rt":1127.4399999529123,"stimulus":"img/00011.png","slider_start":4,"response":1,"trial_type":"image-slider-response","trial_index":136,"time_elapsed":338465,"internal_node_id":"0.0-3.0-0.133","subject_id":"5f407fa7efc14a1c973b17e9","study_id":"605e2a800ccfa0c8e820d869","session_id":"6062209870f942c09baa6cc3"},{"rt":1153.760000015609,"stimulus":"img/00748.png","slider_start":4,"response":1,"trial_type":"image-slider-response","trial_index":137,"time_elapsed":339620,"internal_node_id":"0.0-3.0-0.134","subject_id":"5f407fa7efc14a1c973b17e9","study_id":"605e2a800ccfa0c8e820d869","session_id":"6062209870f942c09baa6cc3"},{"rt":1445.1300000073388,"stimulus":"img/00479.png","slider_start":4,"response":1,"trial_type":"image-slider-response","trial_index":138,"time_elapsed":341066,"internal_node_id":"0.0-3.0-0.135","subject_id":"5f407fa7efc14a1c973b17e9","study_id":"605e2a800ccfa0c8e820d869","session_id":"6062209870f942c09baa6cc3"},{"rt":1252.2999999346212,"stimulus":"img/00503.png","slider_start":4,"response":1,"trial_type":"image-slider-response","trial_index":139,"time_elapsed":342320,"internal_node_id":"0.0-3.0-0.136","subject_id":"5f407fa7efc14a1c973b17e9","study_id":"605e2a800ccfa0c8e820d869","session_id":"6062209870f942c09baa6cc3"},{"rt":4305.254999897443,"stimulus":"img/00018.png","slider_start":4,"response":1,"trial_type":"image-slider-response","trial_index":140,"time_elapsed":346626,"internal_node_id":"0.0-3.0-0.137","subject_id":"5f407fa7efc14a1c973b17e9","study_id":"605e2a800ccfa0c8e820d869","session_id":"6062209870f942c09baa6cc3"},{"rt":1644.8099999688566,"stimulus":"img/00127.png","slider_start":4,"response":1,"trial_type":"image-slider-response","trial_index":141,"time_elapsed":348272,"internal_node_id":"0.0-3.0-0.138","subject_id":"5f407fa7efc14a1c973b17e9","study_id":"605e2a800ccfa0c8e820d869","session_id":"6062209870f942c09baa6cc3"},{"rt":1282.0800000336021,"stimulus":"img/00600.png","slider_start":4,"response":1,"trial_type":"image-slider-response","trial_index":142,"time_elapsed":349556,"internal_node_id":"0.0-3.0-0.139","subject_id":"5f407fa7efc14a1c973b17e9","study_id":"605e2a800ccfa0c8e820d869","session_id":"6062209870f942c09baa6cc3"},{"rt":1738.0899999989197,"stimulus":"img/00472.png","slider_start":4,"response":1,"trial_type":"image-slider-response","trial_index":143,"time_elapsed":351296,"internal_node_id":"0.0-3.0-0.140","subject_id":"5f407fa7efc14a1c973b17e9","study_id":"605e2a800ccfa0c8e820d869","session_id":"6062209870f942c09baa6cc3"},{"rt":1102.3699999786913,"stimulus":"img/00542.png","slider_start":4,"response":1,"trial_type":"image-slider-response","trial_index":144,"time_elapsed":352399,"internal_node_id":"0.0-3.0-0.141","subject_id":"5f407fa7efc14a1c973b17e9","study_id":"605e2a800ccfa0c8e820d869","session_id":"6062209870f942c09baa6cc3"},{"rt":1415.4599999310449,"stimulus":"img/00093.png","slider_start":4,"response":1,"trial_type":"image-slider-response","trial_index":145,"time_elapsed":353816,"internal_node_id":"0.0-3.0-0.142","subject_id":"5f407fa7efc14a1c973b17e9","study_id":"605e2a800ccfa0c8e820d869","session_id":"6062209870f942c09baa6cc3"},{"rt":1384.1099999845028,"stimulus":"img/00415.png","slider_start":4,"response":1,"trial_type":"image-slider-response","trial_index":146,"time_elapsed":355201,"internal_node_id":"0.0-3.0-0.143","subject_id":"5f407fa7efc14a1c973b17e9","study_id":"605e2a800ccfa0c8e820d869","session_id":"6062209870f942c09baa6cc3"},{"rt":1528.9600000251085,"stimulus":"img/00785.png","slider_start":4,"response":1,"trial_type":"image-slider-response","trial_index":147,"time_elapsed":356731,"internal_node_id":"0.0-3.0-0.144","subject_id":"5f407fa7efc14a1c973b17e9","study_id":"605e2a800ccfa0c8e820d869","session_id":"6062209870f942c09baa6cc3"},{"rt":2993.6049999669194,"stimulus":"img/00122.png","slider_start":4,"response":1,"trial_type":"image-slider-response","trial_index":148,"time_elapsed":359726,"internal_node_id":"0.0-3.0-0.145","subject_id":"5f407fa7efc14a1c973b17e9","study_id":"605e2a800ccfa0c8e820d869","session_id":"6062209870f942c09baa6cc3"},{"rt":1513.8949999818578,"stimulus":"img/00850.png","slider_start":4,"response":1,"trial_type":"image-slider-response","trial_index":149,"time_elapsed":361241,"internal_node_id":"0.0-3.0-0.146","subject_id":"5f407fa7efc14a1c973b17e9","study_id":"605e2a800ccfa0c8e820d869","session_id":"6062209870f942c09baa6cc3"},{"rt":1097.3099999828264,"stimulus":"img/00801.png","slider_start":4,"response":1,"trial_type":"image-slider-response","trial_index":150,"time_elapsed":362340,"internal_node_id":"0.0-3.0-0.147","subject_id":"5f407fa7efc14a1c973b17e9","study_id":"605e2a800ccfa0c8e820d869","session_id":"6062209870f942c09baa6cc3"},{"rt":1485.1400000043213,"stimulus":"img/00612.png","slider_start":4,"response":1,"trial_type":"image-slider-response","trial_index":151,"time_elapsed":363826,"internal_node_id":"0.0-3.0-0.148","subject_id":"5f407fa7efc14a1c973b17e9","study_id":"605e2a800ccfa0c8e820d869","session_id":"6062209870f942c09baa6cc3"},{"rt":1068.5649999650195,"stimulus":"img/00504.png","slider_start":4,"response":1,"trial_type":"image-slider-response","trial_index":152,"time_elapsed":364896,"internal_node_id":"0.0-3.0-0.149","subject_id":"5f407fa7efc14a1c973b17e9","study_id":"605e2a800ccfa0c8e820d869","session_id":"6062209870f942c09baa6cc3"},{"rt":1097.1150000113994,"stimulus":"img/00629.png","slider_start":4,"response":1,"trial_type":"image-slider-response","trial_index":153,"time_elapsed":365994,"internal_node_id":"0.0-3.0-0.150","subject_id":"5f407fa7efc14a1c973b17e9","study_id":"605e2a800ccfa0c8e820d869","session_id":"6062209870f942c09baa6cc3"},{"rt":2037.9599999869242,"stimulus":"img/00760.png","slider_start":4,"response":1,"trial_type":"image-slider-response","trial_index":154,"time_elapsed":368033,"internal_node_id":"0.0-3.0-0.151","subject_id":"5f407fa7efc14a1c973b17e9","study_id":"605e2a800ccfa0c8e820d869","session_id":"6062209870f942c09baa6cc3"},{"rt":1459.8400000249967,"stimulus":"img/00759.png","slider_start":4,"response":2,"trial_type":"image-slider-response","trial_index":155,"time_elapsed":369494,"internal_node_id":"0.0-3.0-0.152","subject_id":"5f407fa7efc14a1c973b17e9","study_id":"605e2a800ccfa0c8e820d869","session_id":"6062209870f942c09baa6cc3"},{"rt":1073.644999996759,"stimulus":"img/00559.png","slider_start":4,"response":1,"trial_type":"image-slider-response","trial_index":156,"time_elapsed":370569,"internal_node_id":"0.0-3.0-0.153","subject_id":"5f407fa7efc14a1c973b17e9","study_id":"605e2a800ccfa0c8e820d869","session_id":"6062209870f942c09baa6cc3"},{"rt":933.6249999469146,"stimulus":"img/00525.png","slider_start":4,"response":1,"trial_type":"image-slider-response","trial_index":157,"time_elapsed":371504,"internal_node_id":"0.0-3.0-0.154","subject_id":"5f407fa7efc14a1c973b17e9","study_id":"605e2a800ccfa0c8e820d869","session_id":"6062209870f942c09baa6cc3"},{"rt":1063.869999954477,"stimulus":"img/00424.png","slider_start":4,"response":1,"trial_type":"image-slider-response","trial_index":158,"time_elapsed":372569,"internal_node_id":"0.0-3.0-0.155","subject_id":"5f407fa7efc14a1c973b17e9","study_id":"605e2a800ccfa0c8e820d869","session_id":"6062209870f942c09baa6cc3"},{"rt":774.6899999910966,"stimulus":"img/00898.png","slider_start":4,"response":1,"trial_type":"image-slider-response","trial_index":159,"time_elapsed":373345,"internal_node_id":"0.0-3.0-0.156","subject_id":"5f407fa7efc14a1c973b17e9","study_id":"605e2a800ccfa0c8e820d869","session_id":"6062209870f942c09baa6cc3"},{"rt":1654.1300000390038,"stimulus":"img/00507.png","slider_start":4,"response":1,"trial_type":"image-slider-response","trial_index":160,"time_elapsed":375001,"internal_node_id":"0.0-3.0-0.157","subject_id":"5f407fa7efc14a1c973b17e9","study_id":"605e2a800ccfa0c8e820d869","session_id":"6062209870f942c09baa6cc3"},{"rt":1177.9650000389665,"stimulus":"img/00454.png","slider_start":4,"response":1,"trial_type":"image-slider-response","trial_index":161,"time_elapsed":376180,"internal_node_id":"0.0-3.0-0.158","subject_id":"5f407fa7efc14a1c973b17e9","study_id":"605e2a800ccfa0c8e820d869","session_id":"6062209870f942c09baa6cc3"},{"rt":839.7699999623001,"stimulus":"img/00569.png","slider_start":4,"response":1,"trial_type":"image-slider-response","trial_index":162,"time_elapsed":377021,"internal_node_id":"0.0-3.0-0.159","subject_id":"5f407fa7efc14a1c973b17e9","study_id":"605e2a800ccfa0c8e820d869","session_id":"6062209870f942c09baa6cc3"},{"rt":2674.225000082515,"stimulus":"img/00427.png","slider_start":4,"response":5,"trial_type":"image-slider-response","trial_index":163,"time_elapsed":379696,"internal_node_id":"0.0-3.0-0.160","subject_id":"5f407fa7efc14a1c973b17e9","study_id":"605e2a800ccfa0c8e820d869","session_id":"6062209870f942c09baa6cc3"},{"rt":1487.3300000326708,"stimulus":"img/00686.png","slider_start":4,"response":1,"trial_type":"image-slider-response","trial_index":164,"time_elapsed":381185,"internal_node_id":"0.0-3.0-0.161","subject_id":"5f407fa7efc14a1c973b17e9","study_id":"605e2a800ccfa0c8e820d869","session_id":"6062209870f942c09baa6cc3"},{"rt":1150.595000013709,"stimulus":"img/00768.png","slider_start":4,"response":1,"trial_type":"image-slider-response","trial_index":165,"time_elapsed":382336,"internal_node_id":"0.0-3.0-0.162","subject_id":"5f407fa7efc14a1c973b17e9","study_id":"605e2a800ccfa0c8e820d869","session_id":"6062209870f942c09baa6cc3"},{"rt":3022.194999968633,"stimulus":"img/00860.png","slider_start":4,"response":1,"trial_type":"image-slider-response","trial_index":166,"time_elapsed":385360,"internal_node_id":"0.0-3.0-0.163","subject_id":"5f407fa7efc14a1c973b17e9","study_id":"605e2a800ccfa0c8e820d869","session_id":"6062209870f942c09baa6cc3"},{"rt":2783.339999965392,"stimulus":"img/00082.png","slider_start":4,"response":1,"trial_type":"image-slider-response","trial_index":167,"time_elapsed":388144,"internal_node_id":"0.0-3.0-0.164","subject_id":"5f407fa7efc14a1c973b17e9","study_id":"605e2a800ccfa0c8e820d869","session_id":"6062209870f942c09baa6cc3"},{"rt":1117.7450000541285,"stimulus":"img/00002.png","slider_start":4,"response":1,"trial_type":"image-slider-response","trial_index":168,"time_elapsed":389264,"internal_node_id":"0.0-3.0-0.165","subject_id":"5f407fa7efc14a1c973b17e9","study_id":"605e2a800ccfa0c8e820d869","session_id":"6062209870f942c09baa6cc3"},{"rt":1299.2899999953806,"stimulus":"img/00587.png","slider_start":4,"response":1,"trial_type":"image-slider-response","trial_index":169,"time_elapsed":390565,"internal_node_id":"0.0-3.0-0.166","subject_id":"5f407fa7efc14a1c973b17e9","study_id":"605e2a800ccfa0c8e820d869","session_id":"6062209870f942c09baa6cc3"},{"rt":996.6199999907985,"stimulus":"img/00045.png","slider_start":4,"response":1,"trial_type":"image-slider-response","trial_index":170,"time_elapsed":391562,"internal_node_id":"0.0-3.0-0.167","subject_id":"5f407fa7efc14a1c973b17e9","study_id":"605e2a800ccfa0c8e820d869","session_id":"6062209870f942c09baa6cc3"},{"rt":1198.8050000509247,"stimulus":"img/00563.png","slider_start":4,"response":1,"trial_type":"image-slider-response","trial_index":171,"time_elapsed":392763,"internal_node_id":"0.0-3.0-0.168","subject_id":"5f407fa7efc14a1c973b17e9","study_id":"605e2a800ccfa0c8e820d869","session_id":"6062209870f942c09baa6cc3"},{"rt":976.6499999677762,"stimulus":"img/00867.png","slider_start":4,"response":1,"trial_type":"image-slider-response","trial_index":172,"time_elapsed":393741,"internal_node_id":"0.0-3.0-0.169","subject_id":"5f407fa7efc14a1c973b17e9","study_id":"605e2a800ccfa0c8e820d869","session_id":"6062209870f942c09baa6cc3"},{"rt":1242.5799999618903,"stimulus":"img/00594.png","slider_start":4,"response":1,"trial_type":"image-slider-response","trial_index":173,"time_elapsed":394985,"internal_node_id":"0.0-3.0-0.170","subject_id":"5f407fa7efc14a1c973b17e9","study_id":"605e2a800ccfa0c8e820d869","session_id":"6062209870f942c09baa6cc3"},{"rt":1778.5499999299645,"stimulus":"img/00129.png","slider_start":4,"response":2,"trial_type":"image-slider-response","trial_index":174,"time_elapsed":396764,"internal_node_id":"0.0-3.0-0.171","subject_id":"5f407fa7efc14a1c973b17e9","study_id":"605e2a800ccfa0c8e820d869","session_id":"6062209870f942c09baa6cc3"}]