[{"rt":669.315000064671,"stimulus":"Welcome to the experiment. Press any key to begin.","response":"g","trial_type":"html-keyboard-response","trial_index":0,"time_elapsed":671,"internal_node_id":"0.0-0.0","subject_id":"6055fd41b11f943acfb2e778","study_id":"605e2a800ccfa0c8e820d869","session_id":"606220962105b2b7c5751e5a"},{"rt":2484.385000076145,"stimulus":"\n        <p>In this experiment, a face will appear on-screen.</p><p> <strong>Rate the face on a 1 - 7 scale based on how attractive he / she is.</strong> </p>\n        </div>\n        <p>Press any key to begin.</p>\n      ","response":"h","trial_type":"html-keyboard-response","trial_index":1,"time_elapsed":3156,"internal_node_id":"0.0-1.0","subject_id":"6055fd41b11f943acfb2e778","study_id":"605e2a800ccfa0c8e820d869","session_id":"606220962105b2b7c5751e5a"},{"success":true,"timeout":false,"failed_images":[],"failed_audio":[],"failed_video":[],"trial_type":"preload","trial_index":2,"time_elapsed":36571,"internal_node_id":"0.0-2.0","subject_id":"6055fd41b11f943acfb2e778","study_id":"605e2a800ccfa0c8e820d869","session_id":"606220962105b2b7c5751e5a"},{"rt":9438.710000133142,"stimulus":"img/00472.png","slider_start":4,"response":2,"trial_type":"image-slider-response","trial_index":3,"time_elapsed":46018,"internal_node_id":"0.0-3.0-0.0","subject_id":"6055fd41b11f943acfb2e778","study_id":"605e2a800ccfa0c8e820d869","session_id":"606220962105b2b7c5751e5a"},{"rt":3900.6649998482317,"stimulus":"img/00854.png","slider_start":4,"response":4,"trial_type":"image-slider-response","trial_index":4,"time_elapsed":49921,"internal_node_id":"0.0-3.0-0.1","subject_id":"6055fd41b11f943acfb2e778","study_id":"605e2a800ccfa0c8e820d869","session_id":"606220962105b2b7c5751e5a"},{"rt":2503.34500009194,"stimulus":"img/00600.png","slider_start":4,"response":2,"trial_type":"image-slider-response","trial_index":5,"time_elapsed":52427,"internal_node_id":"0.0-3.0-0.2","subject_id":"6055fd41b11f943acfb2e778","study_id":"605e2a800ccfa0c8e820d869","session_id":"606220962105b2b7c5751e5a"},{"rt":2667.9349998012185,"stimulus":"img/00896.png","slider_start":4,"response":2,"trial_type":"image-slider-response","trial_index":6,"time_elapsed":55096,"internal_node_id":"0.0-3.0-0.3","subject_id":"6055fd41b11f943acfb2e778","study_id":"605e2a800ccfa0c8e820d869","session_id":"606220962105b2b7c5751e5a"},{"rt":3011.5799999330193,"stimulus":"img/00569.png","slider_start":4,"response":1,"trial_type":"image-slider-response","trial_index":7,"time_elapsed":58110,"internal_node_id":"0.0-3.0-0.4","subject_id":"6055fd41b11f943acfb2e778","study_id":"605e2a800ccfa0c8e820d869","session_id":"606220962105b2b7c5751e5a"},{"rt":4199.930000118911,"stimulus":"img/00077.png","slider_start":4,"response":2,"trial_type":"image-slider-response","trial_index":8,"time_elapsed":62312,"internal_node_id":"0.0-3.0-0.5","subject_id":"6055fd41b11f943acfb2e778","study_id":"605e2a800ccfa0c8e820d869","session_id":"606220962105b2b7c5751e5a"},{"rt":2198.325000004843,"stimulus":"img/00052.png","slider_start":4,"response":2,"trial_type":"image-slider-response","trial_index":9,"time_elapsed":64513,"internal_node_id":"0.0-3.0-0.6","subject_id":"6055fd41b11f943acfb2e778","study_id":"605e2a800ccfa0c8e820d869","session_id":"606220962105b2b7c5751e5a"},{"rt":2511.3850000780076,"stimulus":"img/00462.png","slider_start":4,"response":4,"trial_type":"image-slider-response","trial_index":10,"time_elapsed":67027,"internal_node_id":"0.0-3.0-0.7","subject_id":"6055fd41b11f943acfb2e778","study_id":"605e2a800ccfa0c8e820d869","session_id":"606220962105b2b7c5751e5a"},{"rt":1943.4299999848008,"stimulus":"img/00499.png","slider_start":4,"response":1,"trial_type":"image-slider-response","trial_index":11,"time_elapsed":68972,"internal_node_id":"0.0-3.0-0.8","subject_id":"6055fd41b11f943acfb2e778","study_id":"605e2a800ccfa0c8e820d869","session_id":"606220962105b2b7c5751e5a"},{"rt":3236.274999799207,"stimulus":"img/00040.png","slider_start":4,"response":3,"trial_type":"image-slider-response","trial_index":12,"time_elapsed":72210,"internal_node_id":"0.0-3.0-0.9","subject_id":"6055fd41b11f943acfb2e778","study_id":"605e2a800ccfa0c8e820d869","session_id":"606220962105b2b7c5751e5a"},{"rt":2102.0800000987947,"stimulus":"img/00780.png","slider_start":4,"response":2,"trial_type":"image-slider-response","trial_index":13,"time_elapsed":74314,"internal_node_id":"0.0-3.0-0.10","subject_id":"6055fd41b11f943acfb2e778","study_id":"605e2a800ccfa0c8e820d869","session_id":"606220962105b2b7c5751e5a"},{"rt":7908.5399999748915,"stimulus":"img/00105.png","slider_start":4,"response":4,"trial_type":"image-slider-response","trial_index":14,"time_elapsed":82225,"internal_node_id":"0.0-3.0-0.11","subject_id":"6055fd41b11f943acfb2e778","study_id":"605e2a800ccfa0c8e820d869","session_id":"606220962105b2b7c5751e5a"},{"rt":3371.000000042841,"stimulus":"img/00744.png","slider_start":4,"response":3,"trial_type":"image-slider-response","trial_index":15,"time_elapsed":85598,"internal_node_id":"0.0-3.0-0.12","subject_id":"6055fd41b11f943acfb2e778","study_id":"605e2a800ccfa0c8e820d869","session_id":"606220962105b2b7c5751e5a"},{"rt":2950.2749999519438,"stimulus":"img/00878.png","slider_start":4,"response":3,"trial_type":"image-slider-response","trial_index":16,"time_elapsed":88550,"internal_node_id":"0.0-3.0-0.13","subject_id":"6055fd41b11f943acfb2e778","study_id":"605e2a800ccfa0c8e820d869","session_id":"606220962105b2b7c5751e5a"},{"rt":2067.6349999848753,"stimulus":"img/00093.png","slider_start":4,"response":2,"trial_type":"image-slider-response","trial_index":17,"time_elapsed":90620,"internal_node_id":"0.0-3.0-0.14","subject_id":"6055fd41b11f943acfb2e778","study_id":"605e2a800ccfa0c8e820d869","session_id":"606220962105b2b7c5751e5a"},{"rt":2508.8299999479204,"stimulus":"img/00064.png","slider_start":4,"response":1,"trial_type":"image-slider-response","trial_index":18,"time_elapsed":93130,"internal_node_id":"0.0-3.0-0.15","subject_id":"6055fd41b11f943acfb2e778","study_id":"605e2a800ccfa0c8e820d869","session_id":"606220962105b2b7c5751e5a"},{"rt":2746.229999931529,"stimulus":"img/00018.png","slider_start":4,"response":3,"trial_type":"image-slider-response","trial_index":19,"time_elapsed":95878,"internal_node_id":"0.0-3.0-0.16","subject_id":"6055fd41b11f943acfb2e778","study_id":"605e2a800ccfa0c8e820d869","session_id":"606220962105b2b7c5751e5a"},{"rt":3067.994999932125,"stimulus":"img/00015.png","slider_start":4,"response":1,"trial_type":"image-slider-response","trial_index":20,"time_elapsed":98948,"internal_node_id":"0.0-3.0-0.17","subject_id":"6055fd41b11f943acfb2e778","study_id":"605e2a800ccfa0c8e820d869","session_id":"606220962105b2b7c5751e5a"},{"rt":3353.520000120625,"stimulus":"img/00773.png","slider_start":4,"response":5,"trial_type":"image-slider-response","trial_index":21,"time_elapsed":102304,"internal_node_id":"0.0-3.0-0.18","subject_id":"6055fd41b11f943acfb2e778","study_id":"605e2a800ccfa0c8e820d869","session_id":"606220962105b2b7c5751e5a"},{"rt":4877.775000175461,"stimulus":"img/00603.png","slider_start":4,"response":2,"trial_type":"image-slider-response","trial_index":22,"time_elapsed":107185,"internal_node_id":"0.0-3.0-0.19","subject_id":"6055fd41b11f943acfb2e778","study_id":"605e2a800ccfa0c8e820d869","session_id":"606220962105b2b7c5751e5a"},{"rt":3296.4099999517202,"stimulus":"img/00508.png","slider_start":4,"response":3,"trial_type":"image-slider-response","trial_index":23,"time_elapsed":110483,"internal_node_id":"0.0-3.0-0.20","subject_id":"6055fd41b11f943acfb2e778","study_id":"605e2a800ccfa0c8e820d869","session_id":"606220962105b2b7c5751e5a"},{"rt":5234.704999951646,"stimulus":"img/00489.png","slider_start":4,"response":1,"trial_type":"image-slider-response","trial_index":24,"time_elapsed":115719,"internal_node_id":"0.0-3.0-0.21","subject_id":"6055fd41b11f943acfb2e778","study_id":"605e2a800ccfa0c8e820d869","session_id":"606220962105b2b7c5751e5a"},{"rt":4618.634999962524,"stimulus":"img/00029.png","slider_start":4,"response":1,"trial_type":"image-slider-response","trial_index":25,"time_elapsed":120339,"internal_node_id":"0.0-3.0-0.22","subject_id":"6055fd41b11f943acfb2e778","study_id":"605e2a800ccfa0c8e820d869","session_id":"606220962105b2b7c5751e5a"},{"rt":2709.5349999144673,"stimulus":"img/00561.png","slider_start":4,"response":2,"trial_type":"image-slider-response","trial_index":26,"time_elapsed":123051,"internal_node_id":"0.0-3.0-0.23","subject_id":"6055fd41b11f943acfb2e778","study_id":"605e2a800ccfa0c8e820d869","session_id":"606220962105b2b7c5751e5a"},{"rt":2685.3249999694526,"stimulus":"img/00755.png","slider_start":4,"response":3,"trial_type":"image-slider-response","trial_index":27,"time_elapsed":125739,"internal_node_id":"0.0-3.0-0.24","subject_id":"6055fd41b11f943acfb2e778","study_id":"605e2a800ccfa0c8e820d869","session_id":"606220962105b2b7c5751e5a"},{"rt":2168.0250000208616,"stimulus":"img/00759.png","slider_start":4,"response":1,"trial_type":"image-slider-response","trial_index":28,"time_elapsed":127909,"internal_node_id":"0.0-3.0-0.25","subject_id":"6055fd41b11f943acfb2e778","study_id":"605e2a800ccfa0c8e820d869","session_id":"606220962105b2b7c5751e5a"},{"rt":7480.009999824688,"stimulus":"img/00082.png","slider_start":4,"response":4,"trial_type":"image-slider-response","trial_index":29,"time_elapsed":135391,"internal_node_id":"0.0-3.0-0.26","subject_id":"6055fd41b11f943acfb2e778","study_id":"605e2a800ccfa0c8e820d869","session_id":"606220962105b2b7c5751e5a"},{"rt":3071.525000035763,"stimulus":"img/00903.png","slider_start":4,"response":6,"trial_type":"image-slider-response","trial_index":30,"time_elapsed":138465,"internal_node_id":"0.0-3.0-0.27","subject_id":"6055fd41b11f943acfb2e778","study_id":"605e2a800ccfa0c8e820d869","session_id":"606220962105b2b7c5751e5a"},{"rt":2381.8099999334663,"stimulus":"img/00793.png","slider_start":4,"response":2,"trial_type":"image-slider-response","trial_index":31,"time_elapsed":140849,"internal_node_id":"0.0-3.0-0.28","subject_id":"6055fd41b11f943acfb2e778","study_id":"605e2a800ccfa0c8e820d869","session_id":"606220962105b2b7c5751e5a"},{"rt":2348.17499993369,"stimulus":"img/00995.png","slider_start":4,"response":3,"trial_type":"image-slider-response","trial_index":32,"time_elapsed":143199,"internal_node_id":"0.0-3.0-0.29","subject_id":"6055fd41b11f943acfb2e778","study_id":"605e2a800ccfa0c8e820d869","session_id":"606220962105b2b7c5751e5a"},{"rt":2024.4249999523163,"stimulus":"img/00810.png","slider_start":4,"response":1,"trial_type":"image-slider-response","trial_index":33,"time_elapsed":145225,"internal_node_id":"0.0-3.0-0.30","subject_id":"6055fd41b11f943acfb2e778","study_id":"605e2a800ccfa0c8e820d869","session_id":"606220962105b2b7c5751e5a"},{"rt":2158.7300000246614,"stimulus":"img/00592.png","slider_start":4,"response":4,"trial_type":"image-slider-response","trial_index":34,"time_elapsed":147385,"internal_node_id":"0.0-3.0-0.31","subject_id":"6055fd41b11f943acfb2e778","study_id":"605e2a800ccfa0c8e820d869","session_id":"606220962105b2b7c5751e5a"},{"rt":2071.9549998175353,"stimulus":"img/00432.png","slider_start":4,"response":7,"trial_type":"image-slider-response","trial_index":35,"time_elapsed":149459,"internal_node_id":"0.0-3.0-0.32","subject_id":"6055fd41b11f943acfb2e778","study_id":"605e2a800ccfa0c8e820d869","session_id":"606220962105b2b7c5751e5a"},{"rt":2781.9600000511855,"stimulus":"img/00037.png","slider_start":4,"response":4,"trial_type":"image-slider-response","trial_index":36,"time_elapsed":152243,"internal_node_id":"0.0-3.0-0.33","subject_id":"6055fd41b11f943acfb2e778","study_id":"605e2a800ccfa0c8e820d869","session_id":"606220962105b2b7c5751e5a"},{"rt":3576.115000061691,"stimulus":"img/00731.png","slider_start":4,"response":3,"trial_type":"image-slider-response","trial_index":37,"time_elapsed":155821,"internal_node_id":"0.0-3.0-0.34","subject_id":"6055fd41b11f943acfb2e778","study_id":"605e2a800ccfa0c8e820d869","session_id":"606220962105b2b7c5751e5a"},{"rt":5769.52000008896,"stimulus":"img/00100.png","slider_start":4,"response":3,"trial_type":"image-slider-response","trial_index":38,"time_elapsed":161593,"internal_node_id":"0.0-3.0-0.35","subject_id":"6055fd41b11f943acfb2e778","study_id":"605e2a800ccfa0c8e820d869","session_id":"606220962105b2b7c5751e5a"},{"rt":1697.3099999595433,"stimulus":"img/00850.png","slider_start":4,"response":1,"trial_type":"image-slider-response","trial_index":39,"time_elapsed":163293,"internal_node_id":"0.0-3.0-0.36","subject_id":"6055fd41b11f943acfb2e778","study_id":"605e2a800ccfa0c8e820d869","session_id":"606220962105b2b7c5751e5a"},{"rt":1435.249999864027,"stimulus":"img/00748.png","slider_start":4,"response":1,"trial_type":"image-slider-response","trial_index":40,"time_elapsed":164730,"internal_node_id":"0.0-3.0-0.37","subject_id":"6055fd41b11f943acfb2e778","study_id":"605e2a800ccfa0c8e820d869","session_id":"606220962105b2b7c5751e5a"},{"rt":2349.695000099018,"stimulus":"img/00406.png","slider_start":4,"response":2,"trial_type":"image-slider-response","trial_index":41,"time_elapsed":167081,"internal_node_id":"0.0-3.0-0.38","subject_id":"6055fd41b11f943acfb2e778","study_id":"605e2a800ccfa0c8e820d869","session_id":"606220962105b2b7c5751e5a"},{"rt":1436.1799999605864,"stimulus":"img/00464.png","slider_start":4,"response":1,"trial_type":"image-slider-response","trial_index":42,"time_elapsed":168519,"internal_node_id":"0.0-3.0-0.39","subject_id":"6055fd41b11f943acfb2e778","study_id":"605e2a800ccfa0c8e820d869","session_id":"606220962105b2b7c5751e5a"},{"rt":1653.7500000558794,"stimulus":"img/00127.png","slider_start":4,"response":3,"trial_type":"image-slider-response","trial_index":43,"time_elapsed":170175,"internal_node_id":"0.0-3.0-0.40","subject_id":"6055fd41b11f943acfb2e778","study_id":"605e2a800ccfa0c8e820d869","session_id":"606220962105b2b7c5751e5a"},{"rt":1316.7049998883158,"stimulus":"img/00511.png","slider_start":4,"response":4,"trial_type":"image-slider-response","trial_index":44,"time_elapsed":171493,"internal_node_id":"0.0-3.0-0.41","subject_id":"6055fd41b11f943acfb2e778","study_id":"605e2a800ccfa0c8e820d869","session_id":"606220962105b2b7c5751e5a"},{"rt":3910.1250001695007,"stimulus":"img/00522.png","slider_start":4,"response":6,"trial_type":"image-slider-response","trial_index":45,"time_elapsed":175405,"internal_node_id":"0.0-3.0-0.42","subject_id":"6055fd41b11f943acfb2e778","study_id":"605e2a800ccfa0c8e820d869","session_id":"606220962105b2b7c5751e5a"},{"rt":2737.459999974817,"stimulus":"img/00809.png","slider_start":4,"response":2,"trial_type":"image-slider-response","trial_index":46,"time_elapsed":178145,"internal_node_id":"0.0-3.0-0.43","subject_id":"6055fd41b11f943acfb2e778","study_id":"605e2a800ccfa0c8e820d869","session_id":"606220962105b2b7c5751e5a"},{"rt":2107.994999969378,"stimulus":"img/00424.png","slider_start":4,"response":4,"trial_type":"image-slider-response","trial_index":47,"time_elapsed":180255,"internal_node_id":"0.0-3.0-0.44","subject_id":"6055fd41b11f943acfb2e778","study_id":"605e2a800ccfa0c8e820d869","session_id":"606220962105b2b7c5751e5a"},{"rt":3060.1449999958277,"stimulus":"img/00618.png","slider_start":4,"response":5,"trial_type":"image-slider-response","trial_index":48,"time_elapsed":183317,"internal_node_id":"0.0-3.0-0.45","subject_id":"6055fd41b11f943acfb2e778","study_id":"605e2a800ccfa0c8e820d869","session_id":"606220962105b2b7c5751e5a"},{"rt":2165.495000081137,"stimulus":"img/00841.png","slider_start":4,"response":3,"trial_type":"image-slider-response","trial_index":49,"time_elapsed":185485,"internal_node_id":"0.0-3.0-0.46","subject_id":"6055fd41b11f943acfb2e778","study_id":"605e2a800ccfa0c8e820d869","session_id":"606220962105b2b7c5751e5a"},{"rt":2410.1449998561293,"stimulus":"img/00521.png","slider_start":4,"response":1,"trial_type":"image-slider-response","trial_index":50,"time_elapsed":187897,"internal_node_id":"0.0-3.0-0.47","subject_id":"6055fd41b11f943acfb2e778","study_id":"605e2a800ccfa0c8e820d869","session_id":"606220962105b2b7c5751e5a"},{"rt":8455.989999929443,"stimulus":"img/00686.png","slider_start":4,"response":3,"trial_type":"image-slider-response","trial_index":51,"time_elapsed":196355,"internal_node_id":"0.0-3.0-0.48","subject_id":"6055fd41b11f943acfb2e778","study_id":"605e2a800ccfa0c8e820d869","session_id":"606220962105b2b7c5751e5a"},{"rt":3873.2549999840558,"stimulus":"img/00570.png","slider_start":4,"response":4,"trial_type":"image-slider-response","trial_index":52,"time_elapsed":200231,"internal_node_id":"0.0-3.0-0.49","subject_id":"6055fd41b11f943acfb2e778","study_id":"605e2a800ccfa0c8e820d869","session_id":"606220962105b2b7c5751e5a"},{"rt":1871.820000000298,"stimulus":"img/00988.png","slider_start":4,"response":1,"trial_type":"image-slider-response","trial_index":53,"time_elapsed":202105,"internal_node_id":"0.0-3.0-0.50","subject_id":"6055fd41b11f943acfb2e778","study_id":"605e2a800ccfa0c8e820d869","session_id":"606220962105b2b7c5751e5a"},{"rt":4697.845000075176,"stimulus":"img/00481.png","slider_start":4,"response":3,"trial_type":"image-slider-response","trial_index":54,"time_elapsed":206805,"internal_node_id":"0.0-3.0-0.51","subject_id":"6055fd41b11f943acfb2e778","study_id":"605e2a800ccfa0c8e820d869","session_id":"606220962105b2b7c5751e5a"},{"rt":2597.234999993816,"stimulus":"img/00768.png","slider_start":4,"response":2,"trial_type":"image-slider-response","trial_index":55,"time_elapsed":209405,"internal_node_id":"0.0-3.0-0.52","subject_id":"6055fd41b11f943acfb2e778","study_id":"605e2a800ccfa0c8e820d869","session_id":"606220962105b2b7c5751e5a"},{"rt":2020.689999917522,"stimulus":"img/00998.png","slider_start":4,"response":3,"trial_type":"image-slider-response","trial_index":56,"time_elapsed":211427,"internal_node_id":"0.0-3.0-0.53","subject_id":"6055fd41b11f943acfb2e778","study_id":"605e2a800ccfa0c8e820d869","session_id":"606220962105b2b7c5751e5a"},{"rt":3362.005000002682,"stimulus":"img/00928.png","slider_start":4,"response":3,"trial_type":"image-slider-response","trial_index":57,"time_elapsed":214791,"internal_node_id":"0.0-3.0-0.54","subject_id":"6055fd41b11f943acfb2e778","study_id":"605e2a800ccfa0c8e820d869","session_id":"606220962105b2b7c5751e5a"},{"rt":2181.2449998687953,"stimulus":"img/00949.png","slider_start":4,"response":2,"trial_type":"image-slider-response","trial_index":58,"time_elapsed":216974,"internal_node_id":"0.0-3.0-0.55","subject_id":"6055fd41b11f943acfb2e778","study_id":"605e2a800ccfa0c8e820d869","session_id":"606220962105b2b7c5751e5a"},{"rt":1780.0249999854714,"stimulus":"img/00612.png","slider_start":4,"response":1,"trial_type":"image-slider-response","trial_index":59,"time_elapsed":218756,"internal_node_id":"0.0-3.0-0.56","subject_id":"6055fd41b11f943acfb2e778","study_id":"605e2a800ccfa0c8e820d869","session_id":"606220962105b2b7c5751e5a"},{"rt":2891.3900000043213,"stimulus":"img/00428.png","slider_start":4,"response":4,"trial_type":"image-slider-response","trial_index":60,"time_elapsed":221649,"internal_node_id":"0.0-3.0-0.57","subject_id":"6055fd41b11f943acfb2e778","study_id":"605e2a800ccfa0c8e820d869","session_id":"606220962105b2b7c5751e5a"},{"rt":2337.8800000064075,"stimulus":"img/00440.png","slider_start":4,"response":3,"trial_type":"image-slider-response","trial_index":61,"time_elapsed":223989,"internal_node_id":"0.0-3.0-0.58","subject_id":"6055fd41b11f943acfb2e778","study_id":"605e2a800ccfa0c8e820d869","session_id":"606220962105b2b7c5751e5a"},{"rt":2749.779999954626,"stimulus":"img/00785.png","slider_start":4,"response":4,"trial_type":"image-slider-response","trial_index":62,"time_elapsed":226741,"internal_node_id":"0.0-3.0-0.59","subject_id":"6055fd41b11f943acfb2e778","study_id":"605e2a800ccfa0c8e820d869","session_id":"606220962105b2b7c5751e5a"},{"rt":3656.569999875501,"stimulus":"img/00041.png","slider_start":4,"response":5,"trial_type":"image-slider-response","trial_index":63,"time_elapsed":230399,"internal_node_id":"0.0-3.0-0.60","subject_id":"6055fd41b11f943acfb2e778","study_id":"605e2a800ccfa0c8e820d869","session_id":"606220962105b2b7c5751e5a"},{"rt":2321.6450000181794,"stimulus":"img/00691.png","slider_start":4,"response":4,"trial_type":"image-slider-response","trial_index":64,"time_elapsed":232723,"internal_node_id":"0.0-3.0-0.61","subject_id":"6055fd41b11f943acfb2e778","study_id":"605e2a800ccfa0c8e820d869","session_id":"606220962105b2b7c5751e5a"},{"rt":2396.7800000682473,"stimulus":"img/00113.png","slider_start":4,"response":2,"trial_type":"image-slider-response","trial_index":65,"time_elapsed":235121,"internal_node_id":"0.0-3.0-0.62","subject_id":"6055fd41b11f943acfb2e778","study_id":"605e2a800ccfa0c8e820d869","session_id":"606220962105b2b7c5751e5a"},{"rt":2673.969999887049,"stimulus":"img/00016.png","slider_start":4,"response":1,"trial_type":"image-slider-response","trial_index":66,"time_elapsed":237797,"internal_node_id":"0.0-3.0-0.63","subject_id":"6055fd41b11f943acfb2e778","study_id":"605e2a800ccfa0c8e820d869","session_id":"606220962105b2b7c5751e5a"},{"rt":1391.8949998915195,"stimulus":"img/00689.png","slider_start":4,"response":4,"trial_type":"image-slider-response","trial_index":67,"time_elapsed":239191,"internal_node_id":"0.0-3.0-0.64","subject_id":"6055fd41b11f943acfb2e778","study_id":"605e2a800ccfa0c8e820d869","session_id":"606220962105b2b7c5751e5a"},{"rt":1608.6949999444187,"stimulus":"img/00817.png","slider_start":4,"response":1,"trial_type":"image-slider-response","trial_index":68,"time_elapsed":240801,"internal_node_id":"0.0-3.0-0.65","subject_id":"6055fd41b11f943acfb2e778","study_id":"605e2a800ccfa0c8e820d869","session_id":"606220962105b2b7c5751e5a"},{"rt":1907.8450000379235,"stimulus":"img/00413.png","slider_start":4,"response":3,"trial_type":"image-slider-response","trial_index":69,"time_elapsed":242711,"internal_node_id":"0.0-3.0-0.66","subject_id":"6055fd41b11f943acfb2e778","study_id":"605e2a800ccfa0c8e820d869","session_id":"606220962105b2b7c5751e5a"},{"rt":1832.2350000962615,"stimulus":"img/00822.png","slider_start":4,"response":3,"trial_type":"image-slider-response","trial_index":70,"time_elapsed":244545,"internal_node_id":"0.0-3.0-0.67","subject_id":"6055fd41b11f943acfb2e778","study_id":"605e2a800ccfa0c8e820d869","session_id":"606220962105b2b7c5751e5a"},{"rt":1793.769999872893,"stimulus":"img/00059.png","slider_start":4,"response":3,"trial_type":"image-slider-response","trial_index":71,"time_elapsed":246341,"internal_node_id":"0.0-3.0-0.68","subject_id":"6055fd41b11f943acfb2e778","study_id":"605e2a800ccfa0c8e820d869","session_id":"606220962105b2b7c5751e5a"},{"rt":7096.3049998972565,"stimulus":"img/00973.png","slider_start":4,"response":2,"trial_type":"image-slider-response","trial_index":72,"time_elapsed":253439,"internal_node_id":"0.0-3.0-0.69","subject_id":"6055fd41b11f943acfb2e778","study_id":"605e2a800ccfa0c8e820d869","session_id":"606220962105b2b7c5751e5a"},{"rt":4999.530000146478,"stimulus":"img/00002.png","slider_start":4,"response":3,"trial_type":"image-slider-response","trial_index":73,"time_elapsed":258441,"internal_node_id":"0.0-3.0-0.70","subject_id":"6055fd41b11f943acfb2e778","study_id":"605e2a800ccfa0c8e820d869","session_id":"606220962105b2b7c5751e5a"},{"rt":4227.34500002116,"stimulus":"img/00122.png","slider_start":4,"response":5,"trial_type":"image-slider-response","trial_index":74,"time_elapsed":262671,"internal_node_id":"0.0-3.0-0.71","subject_id":"6055fd41b11f943acfb2e778","study_id":"605e2a800ccfa0c8e820d869","session_id":"606220962105b2b7c5751e5a"},{"rt":4049.0399999544024,"stimulus":"img/00478.png","slider_start":4,"response":3,"trial_type":"image-slider-response","trial_index":75,"time_elapsed":266723,"internal_node_id":"0.0-3.0-0.72","subject_id":"6055fd41b11f943acfb2e778","study_id":"605e2a800ccfa0c8e820d869","session_id":"606220962105b2b7c5751e5a"},{"rt":1700.554999988526,"stimulus":"img/00587.png","slider_start":4,"response":4,"trial_type":"image-slider-response","trial_index":76,"time_elapsed":268425,"internal_node_id":"0.0-3.0-0.73","subject_id":"6055fd41b11f943acfb2e778","study_id":"605e2a800ccfa0c8e820d869","session_id":"606220962105b2b7c5751e5a"},{"rt":3744.895000010729,"stimulus":"img/00842.png","slider_start":4,"response":6,"trial_type":"image-slider-response","trial_index":77,"time_elapsed":272171,"internal_node_id":"0.0-3.0-0.74","subject_id":"6055fd41b11f943acfb2e778","study_id":"605e2a800ccfa0c8e820d869","session_id":"606220962105b2b7c5751e5a"},{"rt":3083.4250000771135,"stimulus":"img/00405.png","slider_start":4,"response":5,"trial_type":"image-slider-response","trial_index":78,"time_elapsed":275257,"internal_node_id":"0.0-3.0-0.75","subject_id":"6055fd41b11f943acfb2e778","study_id":"605e2a800ccfa0c8e820d869","session_id":"606220962105b2b7c5751e5a"},{"rt":2575.484999921173,"stimulus":"img/00693.png","slider_start":4,"response":1,"trial_type":"image-slider-response","trial_index":79,"time_elapsed":277835,"internal_node_id":"0.0-3.0-0.76","subject_id":"6055fd41b11f943acfb2e778","study_id":"605e2a800ccfa0c8e820d869","session_id":"606220962105b2b7c5751e5a"},{"rt":3925.569999963045,"stimulus":"img/00957.png","slider_start":4,"response":2,"trial_type":"image-slider-response","trial_index":80,"time_elapsed":281763,"internal_node_id":"0.0-3.0-0.77","subject_id":"6055fd41b11f943acfb2e778","study_id":"605e2a800ccfa0c8e820d869","session_id":"606220962105b2b7c5751e5a"},{"rt":2297.7350000292063,"stimulus":"img/00989.png","slider_start":4,"response":3,"trial_type":"image-slider-response","trial_index":81,"time_elapsed":284063,"internal_node_id":"0.0-3.0-0.78","subject_id":"6055fd41b11f943acfb2e778","study_id":"605e2a800ccfa0c8e820d869","session_id":"606220962105b2b7c5751e5a"},{"rt":3386.075000045821,"stimulus":"img/00879.png","slider_start":4,"response":3,"trial_type":"image-slider-response","trial_index":82,"time_elapsed":287451,"internal_node_id":"0.0-3.0-0.79","subject_id":"6055fd41b11f943acfb2e778","study_id":"605e2a800ccfa0c8e820d869","session_id":"606220962105b2b7c5751e5a"},{"rt":3177.075000014156,"stimulus":"img/00564.png","slider_start":4,"response":3,"trial_type":"image-slider-response","trial_index":83,"time_elapsed":290630,"internal_node_id":"0.0-3.0-0.80","subject_id":"6055fd41b11f943acfb2e778","study_id":"605e2a800ccfa0c8e820d869","session_id":"606220962105b2b7c5751e5a"},{"rt":2295.094999950379,"stimulus":"img/00460.png","slider_start":4,"response":3,"trial_type":"image-slider-response","trial_index":84,"time_elapsed":292926,"internal_node_id":"0.0-3.0-0.81","subject_id":"6055fd41b11f943acfb2e778","study_id":"605e2a800ccfa0c8e820d869","session_id":"606220962105b2b7c5751e5a"},{"rt":1589.570000069216,"stimulus":"img/00991.png","slider_start":4,"response":3,"trial_type":"image-slider-response","trial_index":85,"time_elapsed":294518,"internal_node_id":"0.0-3.0-0.82","subject_id":"6055fd41b11f943acfb2e778","study_id":"605e2a800ccfa0c8e820d869","session_id":"606220962105b2b7c5751e5a"},{"rt":3215.715000173077,"stimulus":"img/00543.png","slider_start":4,"response":2,"trial_type":"image-slider-response","trial_index":86,"time_elapsed":297736,"internal_node_id":"0.0-3.0-0.83","subject_id":"6055fd41b11f943acfb2e778","study_id":"605e2a800ccfa0c8e820d869","session_id":"606220962105b2b7c5751e5a"},{"rt":2024.5450001675636,"stimulus":"img/00742.png","slider_start":4,"response":3,"trial_type":"image-slider-response","trial_index":87,"time_elapsed":299762,"internal_node_id":"0.0-3.0-0.84","subject_id":"6055fd41b11f943acfb2e778","study_id":"605e2a800ccfa0c8e820d869","session_id":"606220962105b2b7c5751e5a"},{"rt":1645.6800000742078,"stimulus":"img/00078.png","slider_start":4,"response":3,"trial_type":"image-slider-response","trial_index":88,"time_elapsed":301410,"internal_node_id":"0.0-3.0-0.85","subject_id":"6055fd41b11f943acfb2e778","study_id":"605e2a800ccfa0c8e820d869","session_id":"606220962105b2b7c5751e5a"},{"rt":2238.4750000201166,"stimulus":"img/00756.png","slider_start":4,"response":4,"trial_type":"image-slider-response","trial_index":89,"time_elapsed":303650,"internal_node_id":"0.0-3.0-0.86","subject_id":"6055fd41b11f943acfb2e778","study_id":"605e2a800ccfa0c8e820d869","session_id":"606220962105b2b7c5751e5a"},{"rt":2197.799999965355,"stimulus":"img/00115.png","slider_start":4,"response":2,"trial_type":"image-slider-response","trial_index":90,"time_elapsed":305850,"internal_node_id":"0.0-3.0-0.87","subject_id":"6055fd41b11f943acfb2e778","study_id":"605e2a800ccfa0c8e820d869","session_id":"606220962105b2b7c5751e5a"},{"rt":2194.7600001003593,"stimulus":"img/00594.png","slider_start":4,"response":3,"trial_type":"image-slider-response","trial_index":91,"time_elapsed":308046,"internal_node_id":"0.0-3.0-0.88","subject_id":"6055fd41b11f943acfb2e778","study_id":"605e2a800ccfa0c8e820d869","session_id":"606220962105b2b7c5751e5a"},{"rt":2488.619999960065,"stimulus":"img/00011.png","slider_start":4,"response":2,"trial_type":"image-slider-response","trial_index":92,"time_elapsed":310537,"internal_node_id":"0.0-3.0-0.89","subject_id":"6055fd41b11f943acfb2e778","study_id":"605e2a800ccfa0c8e820d869","session_id":"606220962105b2b7c5751e5a"},{"rt":2534.809999866411,"stimulus":"img/00951.png","slider_start":4,"response":2,"trial_type":"image-slider-response","trial_index":93,"time_elapsed":313074,"internal_node_id":"0.0-3.0-0.90","subject_id":"6055fd41b11f943acfb2e778","study_id":"605e2a800ccfa0c8e820d869","session_id":"606220962105b2b7c5751e5a"},{"rt":2749.5949999429286,"stimulus":"img/40.png","slider_start":4,"response":1,"trial_type":"image-slider-response","trial_index":94,"time_elapsed":315827,"internal_node_id":"0.0-3.0-0.91","subject_id":"6055fd41b11f943acfb2e778","study_id":"605e2a800ccfa0c8e820d869","session_id":"606220962105b2b7c5751e5a"},{"rt":2203.6800000350922,"stimulus":"img/00853.png","slider_start":4,"response":3,"trial_type":"image-slider-response","trial_index":95,"time_elapsed":318032,"internal_node_id":"0.0-3.0-0.92","subject_id":"6055fd41b11f943acfb2e778","study_id":"605e2a800ccfa0c8e820d869","session_id":"606220962105b2b7c5751e5a"},{"rt":1884.8300001118332,"stimulus":"img/00055.png","slider_start":4,"response":4,"trial_type":"image-slider-response","trial_index":96,"time_elapsed":319918,"internal_node_id":"0.0-3.0-0.93","subject_id":"6055fd41b11f943acfb2e778","study_id":"605e2a800ccfa0c8e820d869","session_id":"606220962105b2b7c5751e5a"},{"rt":3929.5899998396635,"stimulus":"img/00797.png","slider_start":4,"response":3,"trial_type":"image-slider-response","trial_index":97,"time_elapsed":323850,"internal_node_id":"0.0-3.0-0.94","subject_id":"6055fd41b11f943acfb2e778","study_id":"605e2a800ccfa0c8e820d869","session_id":"606220962105b2b7c5751e5a"},{"rt":3071.6450000181794,"stimulus":"img/00761.png","slider_start":4,"response":5,"trial_type":"image-slider-response","trial_index":98,"time_elapsed":326924,"internal_node_id":"0.0-3.0-0.95","subject_id":"6055fd41b11f943acfb2e778","study_id":"605e2a800ccfa0c8e820d869","session_id":"606220962105b2b7c5751e5a"},{"rt":2266.635000007227,"stimulus":"img/00956.png","slider_start":4,"response":3,"trial_type":"image-slider-response","trial_index":99,"time_elapsed":329192,"internal_node_id":"0.0-3.0-0.96","subject_id":"6055fd41b11f943acfb2e778","study_id":"605e2a800ccfa0c8e820d869","session_id":"606220962105b2b7c5751e5a"},{"rt":3262.180000077933,"stimulus":"img/00799.png","slider_start":4,"response":3,"trial_type":"image-slider-response","trial_index":100,"time_elapsed":332456,"internal_node_id":"0.0-3.0-0.97","subject_id":"6055fd41b11f943acfb2e778","study_id":"605e2a800ccfa0c8e820d869","session_id":"606220962105b2b7c5751e5a"},{"rt":2158.0000000540167,"stimulus":"img/00926.png","slider_start":4,"response":3,"trial_type":"image-slider-response","trial_index":101,"time_elapsed":334616,"internal_node_id":"0.0-3.0-0.98","subject_id":"6055fd41b11f943acfb2e778","study_id":"605e2a800ccfa0c8e820d869","session_id":"606220962105b2b7c5751e5a"},{"rt":1849.940000101924,"stimulus":"img/00438.png","slider_start":4,"response":2,"trial_type":"image-slider-response","trial_index":102,"time_elapsed":336468,"internal_node_id":"0.0-3.0-0.99","subject_id":"6055fd41b11f943acfb2e778","study_id":"605e2a800ccfa0c8e820d869","session_id":"606220962105b2b7c5751e5a"},{"rt":1602.174999890849,"stimulus":"img/00456.png","slider_start":4,"response":1,"trial_type":"image-slider-response","trial_index":103,"time_elapsed":338072,"internal_node_id":"0.0-3.0-0.100","subject_id":"6055fd41b11f943acfb2e778","study_id":"605e2a800ccfa0c8e820d869","session_id":"606220962105b2b7c5751e5a"},{"rt":1995.8750000223517,"stimulus":"img/00048.png","slider_start":4,"response":1,"trial_type":"image-slider-response","trial_index":104,"time_elapsed":340070,"internal_node_id":"0.0-3.0-0.101","subject_id":"6055fd41b11f943acfb2e778","study_id":"605e2a800ccfa0c8e820d869","session_id":"606220962105b2b7c5751e5a"},{"rt":2202.2000001743436,"stimulus":"img/00902.png","slider_start":4,"response":1,"trial_type":"image-slider-response","trial_index":105,"time_elapsed":342274,"internal_node_id":"0.0-3.0-0.102","subject_id":"6055fd41b11f943acfb2e778","study_id":"605e2a800ccfa0c8e820d869","session_id":"606220962105b2b7c5751e5a"},{"rt":2387.074999976903,"stimulus":"img/00644.png","slider_start":4,"response":2,"trial_type":"image-slider-response","trial_index":106,"time_elapsed":344664,"internal_node_id":"0.0-3.0-0.103","subject_id":"6055fd41b11f943acfb2e778","study_id":"605e2a800ccfa0c8e820d869","session_id":"606220962105b2b7c5751e5a"},{"rt":11308.904999867082,"stimulus":"img/00023.png","slider_start":4,"response":2,"trial_type":"image-slider-response","trial_index":107,"time_elapsed":355974,"internal_node_id":"0.0-3.0-0.104","subject_id":"6055fd41b11f943acfb2e778","study_id":"605e2a800ccfa0c8e820d869","session_id":"606220962105b2b7c5751e5a"},{"rt":3131.3549999613315,"stimulus":"img/00549.png","slider_start":4,"response":1,"trial_type":"image-slider-response","trial_index":108,"time_elapsed":359108,"internal_node_id":"0.0-3.0-0.105","subject_id":"6055fd41b11f943acfb2e778","study_id":"605e2a800ccfa0c8e820d869","session_id":"606220962105b2b7c5751e5a"},{"rt":1122.2500000149012,"stimulus":"img/00631.png","slider_start":4,"response":4,"trial_type":"image-slider-response","trial_index":109,"time_elapsed":360232,"internal_node_id":"0.0-3.0-0.106","subject_id":"6055fd41b11f943acfb2e778","study_id":"605e2a800ccfa0c8e820d869","session_id":"606220962105b2b7c5751e5a"},{"rt":4883.834999985993,"stimulus":"img/00801.png","slider_start":4,"response":3,"trial_type":"image-slider-response","trial_index":110,"time_elapsed":365118,"internal_node_id":"0.0-3.0-0.107","subject_id":"6055fd41b11f943acfb2e778","study_id":"605e2a800ccfa0c8e820d869","session_id":"606220962105b2b7c5751e5a"},{"rt":1997.6299998816103,"stimulus":"img/00747.png","slider_start":4,"response":4,"trial_type":"image-slider-response","trial_index":111,"time_elapsed":367118,"internal_node_id":"0.0-3.0-0.108","subject_id":"6055fd41b11f943acfb2e778","study_id":"605e2a800ccfa0c8e820d869","session_id":"606220962105b2b7c5751e5a"},{"rt":2676.244999980554,"stimulus":"img/00447.png","slider_start":4,"response":3,"trial_type":"image-slider-response","trial_index":112,"time_elapsed":369797,"internal_node_id":"0.0-3.0-0.109","subject_id":"6055fd41b11f943acfb2e778","study_id":"605e2a800ccfa0c8e820d869","session_id":"606220962105b2b7c5751e5a"},{"rt":2113.009999971837,"stimulus":"img/00503.png","slider_start":4,"response":2,"trial_type":"image-slider-response","trial_index":113,"time_elapsed":371912,"internal_node_id":"0.0-3.0-0.110","subject_id":"6055fd41b11f943acfb2e778","study_id":"605e2a800ccfa0c8e820d869","session_id":"606220962105b2b7c5751e5a"},{"rt":2484.8750000819564,"stimulus":"img/00545.png","slider_start":4,"response":2,"trial_type":"image-slider-response","trial_index":114,"time_elapsed":374398,"internal_node_id":"0.0-3.0-0.111","subject_id":"6055fd41b11f943acfb2e778","study_id":"605e2a800ccfa0c8e820d869","session_id":"606220962105b2b7c5751e5a"},{"rt":1979.1049999184906,"stimulus":"img/00764.png","slider_start":4,"response":1,"trial_type":"image-slider-response","trial_index":115,"time_elapsed":376380,"internal_node_id":"0.0-3.0-0.112","subject_id":"6055fd41b11f943acfb2e778","study_id":"605e2a800ccfa0c8e820d869","session_id":"606220962105b2b7c5751e5a"},{"rt":2858.405000064522,"stimulus":"img/00079.png","slider_start":4,"response":1,"trial_type":"image-slider-response","trial_index":116,"time_elapsed":379240,"internal_node_id":"0.0-3.0-0.113","subject_id":"6055fd41b11f943acfb2e778","study_id":"605e2a800ccfa0c8e820d869","session_id":"606220962105b2b7c5751e5a"},{"rt":7739.62500016205,"stimulus":"img/00042.png","slider_start":4,"response":3,"trial_type":"image-slider-response","trial_index":117,"time_elapsed":386982,"internal_node_id":"0.0-3.0-0.114","subject_id":"6055fd41b11f943acfb2e778","study_id":"605e2a800ccfa0c8e820d869","session_id":"606220962105b2b7c5751e5a"},{"rt":2933.1750001292676,"stimulus":"img/00930.png","slider_start":4,"response":3,"trial_type":"image-slider-response","trial_index":118,"time_elapsed":389916,"internal_node_id":"0.0-3.0-0.115","subject_id":"6055fd41b11f943acfb2e778","study_id":"605e2a800ccfa0c8e820d869","session_id":"606220962105b2b7c5751e5a"},{"rt":2056.2849999405444,"stimulus":"img/00789.png","slider_start":4,"response":2,"trial_type":"image-slider-response","trial_index":119,"time_elapsed":391975,"internal_node_id":"0.0-3.0-0.116","subject_id":"6055fd41b11f943acfb2e778","study_id":"605e2a800ccfa0c8e820d869","session_id":"606220962105b2b7c5751e5a"},{"rt":2609.5900000073016,"stimulus":"img/00427.png","slider_start":4,"response":4,"trial_type":"image-slider-response","trial_index":120,"time_elapsed":394586,"internal_node_id":"0.0-3.0-0.117","subject_id":"6055fd41b11f943acfb2e778","study_id":"605e2a800ccfa0c8e820d869","session_id":"606220962105b2b7c5751e5a"},{"rt":3573.5900001600385,"stimulus":"img/00790.png","slider_start":4,"response":2,"trial_type":"image-slider-response","trial_index":121,"time_elapsed":398162,"internal_node_id":"0.0-3.0-0.118","subject_id":"6055fd41b11f943acfb2e778","study_id":"605e2a800ccfa0c8e820d869","session_id":"606220962105b2b7c5751e5a"},{"rt":2181.4300001133233,"stimulus":"img/00469.png","slider_start":4,"response":2,"trial_type":"image-slider-response","trial_index":122,"time_elapsed":400346,"internal_node_id":"0.0-3.0-0.119","subject_id":"6055fd41b11f943acfb2e778","study_id":"605e2a800ccfa0c8e820d869","session_id":"606220962105b2b7c5751e5a"},{"rt":1924.2000000085682,"stimulus":"img/00563.png","slider_start":4,"response":1,"trial_type":"image-slider-response","trial_index":123,"time_elapsed":402272,"internal_node_id":"0.0-3.0-0.120","subject_id":"6055fd41b11f943acfb2e778","study_id":"605e2a800ccfa0c8e820d869","session_id":"606220962105b2b7c5751e5a"},{"rt":1875.884999986738,"stimulus":"img/00722.png","slider_start":4,"response":3,"trial_type":"image-slider-response","trial_index":124,"time_elapsed":404150,"internal_node_id":"0.0-3.0-0.121","subject_id":"6055fd41b11f943acfb2e778","study_id":"605e2a800ccfa0c8e820d869","session_id":"606220962105b2b7c5751e5a"},{"rt":1714.0150000341237,"stimulus":"img/00982.png","slider_start":4,"response":1,"trial_type":"image-slider-response","trial_index":125,"time_elapsed":405866,"internal_node_id":"0.0-3.0-0.122","subject_id":"6055fd41b11f943acfb2e778","study_id":"605e2a800ccfa0c8e820d869","session_id":"606220962105b2b7c5751e5a"},{"rt":2766.035000095144,"stimulus":"img/00483.png","slider_start":4,"response":2,"trial_type":"image-slider-response","trial_index":126,"time_elapsed":408635,"internal_node_id":"0.0-3.0-0.123","subject_id":"6055fd41b11f943acfb2e778","study_id":"605e2a800ccfa0c8e820d869","session_id":"606220962105b2b7c5751e5a"},{"rt":2031.1050000600517,"stimulus":"img/00860.png","slider_start":4,"response":1,"trial_type":"image-slider-response","trial_index":127,"time_elapsed":410668,"internal_node_id":"0.0-3.0-0.124","subject_id":"6055fd41b11f943acfb2e778","study_id":"605e2a800ccfa0c8e820d869","session_id":"606220962105b2b7c5751e5a"},{"rt":1920.464999973774,"stimulus":"img/00752.png","slider_start":4,"response":1,"trial_type":"image-slider-response","trial_index":128,"time_elapsed":412591,"internal_node_id":"0.0-3.0-0.125","subject_id":"6055fd41b11f943acfb2e778","study_id":"605e2a800ccfa0c8e820d869","session_id":"606220962105b2b7c5751e5a"},{"rt":3477.835000026971,"stimulus":"img/00833.png","slider_start":4,"response":2,"trial_type":"image-slider-response","trial_index":129,"time_elapsed":416071,"internal_node_id":"0.0-3.0-0.126","subject_id":"6055fd41b11f943acfb2e778","study_id":"605e2a800ccfa0c8e820d869","session_id":"606220962105b2b7c5751e5a"},{"rt":2415.760000003502,"stimulus":"img/00045.png","slider_start":4,"response":2,"trial_type":"image-slider-response","trial_index":130,"time_elapsed":418489,"internal_node_id":"0.0-3.0-0.127","subject_id":"6055fd41b11f943acfb2e778","study_id":"605e2a800ccfa0c8e820d869","session_id":"606220962105b2b7c5751e5a"},{"rt":1269.889999879524,"stimulus":"img/00623.png","slider_start":4,"response":4,"trial_type":"image-slider-response","trial_index":131,"time_elapsed":419761,"internal_node_id":"0.0-3.0-0.128","subject_id":"6055fd41b11f943acfb2e778","study_id":"605e2a800ccfa0c8e820d869","session_id":"606220962105b2b7c5751e5a"},{"rt":4686.155000003055,"stimulus":"img/00967.png","slider_start":4,"response":2,"trial_type":"image-slider-response","trial_index":132,"time_elapsed":424449,"internal_node_id":"0.0-3.0-0.129","subject_id":"6055fd41b11f943acfb2e778","study_id":"605e2a800ccfa0c8e820d869","session_id":"606220962105b2b7c5751e5a"},{"rt":2697.36500014551,"stimulus":"img/00986.png","slider_start":4,"response":3,"trial_type":"image-slider-response","trial_index":133,"time_elapsed":427149,"internal_node_id":"0.0-3.0-0.130","subject_id":"6055fd41b11f943acfb2e778","study_id":"605e2a800ccfa0c8e820d869","session_id":"606220962105b2b7c5751e5a"},{"rt":1725.8199998177588,"stimulus":"img/00867.png","slider_start":4,"response":1,"trial_type":"image-slider-response","trial_index":134,"time_elapsed":428877,"internal_node_id":"0.0-3.0-0.131","subject_id":"6055fd41b11f943acfb2e778","study_id":"605e2a800ccfa0c8e820d869","session_id":"606220962105b2b7c5751e5a"},{"rt":2444.114999845624,"stimulus":"img/00437.png","slider_start":4,"response":3,"trial_type":"image-slider-response","trial_index":135,"time_elapsed":431323,"internal_node_id":"0.0-3.0-0.132","subject_id":"6055fd41b11f943acfb2e778","study_id":"605e2a800ccfa0c8e820d869","session_id":"606220962105b2b7c5751e5a"},{"rt":1971.9799999147654,"stimulus":"img/00690.png","slider_start":4,"response":4,"trial_type":"image-slider-response","trial_index":136,"time_elapsed":433297,"internal_node_id":"0.0-3.0-0.133","subject_id":"6055fd41b11f943acfb2e778","study_id":"605e2a800ccfa0c8e820d869","session_id":"606220962105b2b7c5751e5a"},{"rt":3469.705000054091,"stimulus":"img/00012.png","slider_start":4,"response":3,"trial_type":"image-slider-response","trial_index":137,"time_elapsed":436769,"internal_node_id":"0.0-3.0-0.134","subject_id":"6055fd41b11f943acfb2e778","study_id":"605e2a800ccfa0c8e820d869","session_id":"606220962105b2b7c5751e5a"},{"rt":1907.575000077486,"stimulus":"img/00129.png","slider_start":4,"response":3,"trial_type":"image-slider-response","trial_index":138,"time_elapsed":438678,"internal_node_id":"0.0-3.0-0.135","subject_id":"6055fd41b11f943acfb2e778","study_id":"605e2a800ccfa0c8e820d869","session_id":"606220962105b2b7c5751e5a"},{"rt":3208.515000063926,"stimulus":"img/00507.png","slider_start":4,"response":3,"trial_type":"image-slider-response","trial_index":139,"time_elapsed":441889,"internal_node_id":"0.0-3.0-0.136","subject_id":"6055fd41b11f943acfb2e778","study_id":"605e2a800ccfa0c8e820d869","session_id":"606220962105b2b7c5751e5a"},{"rt":3825.9499999694526,"stimulus":"img/00629.png","slider_start":4,"response":2,"trial_type":"image-slider-response","trial_index":140,"time_elapsed":445717,"internal_node_id":"0.0-3.0-0.137","subject_id":"6055fd41b11f943acfb2e778","study_id":"605e2a800ccfa0c8e820d869","session_id":"606220962105b2b7c5751e5a"},{"rt":2771.2949998676777,"stimulus":"img/00130.png","slider_start":4,"response":3,"trial_type":"image-slider-response","trial_index":141,"time_elapsed":448490,"internal_node_id":"0.0-3.0-0.138","subject_id":"6055fd41b11f943acfb2e778","study_id":"605e2a800ccfa0c8e820d869","session_id":"606220962105b2b7c5751e5a"},{"rt":1913.5050000622869,"stimulus":"img/00401.png","slider_start":4,"response":1,"trial_type":"image-slider-response","trial_index":142,"time_elapsed":450407,"internal_node_id":"0.0-3.0-0.139","subject_id":"6055fd41b11f943acfb2e778","study_id":"605e2a800ccfa0c8e820d869","session_id":"606220962105b2b7c5751e5a"},{"rt":2301.7699997872114,"stimulus":"img/00688.png","slider_start":4,"response":5,"trial_type":"image-slider-response","trial_index":143,"time_elapsed":452710,"internal_node_id":"0.0-3.0-0.140","subject_id":"6055fd41b11f943acfb2e778","study_id":"605e2a800ccfa0c8e820d869","session_id":"606220962105b2b7c5751e5a"},{"rt":2691.219999920577,"stimulus":"img/00653.png","slider_start":4,"response":3,"trial_type":"image-slider-response","trial_index":144,"time_elapsed":455403,"internal_node_id":"0.0-3.0-0.141","subject_id":"6055fd41b11f943acfb2e778","study_id":"605e2a800ccfa0c8e820d869","session_id":"606220962105b2b7c5751e5a"},{"rt":2139.5799999590963,"stimulus":"img/00101.png","slider_start":4,"response":1,"trial_type":"image-slider-response","trial_index":145,"time_elapsed":457545,"internal_node_id":"0.0-3.0-0.142","subject_id":"6055fd41b11f943acfb2e778","study_id":"605e2a800ccfa0c8e820d869","session_id":"606220962105b2b7c5751e5a"},{"rt":1947.9950000531971,"stimulus":"img/00898.png","slider_start":4,"response":1,"trial_type":"image-slider-response","trial_index":146,"time_elapsed":459495,"internal_node_id":"0.0-3.0-0.143","subject_id":"6055fd41b11f943acfb2e778","study_id":"605e2a800ccfa0c8e820d869","session_id":"606220962105b2b7c5751e5a"},{"rt":2054.0400000754744,"stimulus":"img/00913.png","slider_start":4,"response":1,"trial_type":"image-slider-response","trial_index":147,"time_elapsed":461551,"internal_node_id":"0.0-3.0-0.144","subject_id":"6055fd41b11f943acfb2e778","study_id":"605e2a800ccfa0c8e820d869","session_id":"606220962105b2b7c5751e5a"},{"rt":2095.8300000056624,"stimulus":"img/00006.png","slider_start":4,"response":1,"trial_type":"image-slider-response","trial_index":148,"time_elapsed":463649,"internal_node_id":"0.0-3.0-0.145","subject_id":"6055fd41b11f943acfb2e778","study_id":"605e2a800ccfa0c8e820d869","session_id":"606220962105b2b7c5751e5a"},{"rt":2944.984999950975,"stimulus":"img/00114.png","slider_start":4,"response":1,"trial_type":"image-slider-response","trial_index":149,"time_elapsed":466597,"internal_node_id":"0.0-3.0-0.146","subject_id":"6055fd41b11f943acfb2e778","study_id":"605e2a800ccfa0c8e820d869","session_id":"606220962105b2b7c5751e5a"},{"rt":1860.7300000730902,"stimulus":"img/00554.png","slider_start":4,"response":1,"trial_type":"image-slider-response","trial_index":150,"time_elapsed":468459,"internal_node_id":"0.0-3.0-0.147","subject_id":"6055fd41b11f943acfb2e778","study_id":"605e2a800ccfa0c8e820d869","session_id":"606220962105b2b7c5751e5a"},{"rt":2174.464999930933,"stimulus":"img/00581.png","slider_start":4,"response":1,"trial_type":"image-slider-response","trial_index":151,"time_elapsed":470636,"internal_node_id":"0.0-3.0-0.148","subject_id":"6055fd41b11f943acfb2e778","study_id":"605e2a800ccfa0c8e820d869","session_id":"606220962105b2b7c5751e5a"},{"rt":1753.1000000890344,"stimulus":"img/00718.png","slider_start":4,"response":1,"trial_type":"image-slider-response","trial_index":152,"time_elapsed":472390,"internal_node_id":"0.0-3.0-0.149","subject_id":"6055fd41b11f943acfb2e778","study_id":"605e2a800ccfa0c8e820d869","session_id":"606220962105b2b7c5751e5a"},{"rt":3522.110000019893,"stimulus":"img/00708.png","slider_start":4,"response":3,"trial_type":"image-slider-response","trial_index":153,"time_elapsed":475914,"internal_node_id":"0.0-3.0-0.150","subject_id":"6055fd41b11f943acfb2e778","study_id":"605e2a800ccfa0c8e820d869","session_id":"606220962105b2b7c5751e5a"},{"rt":1879.7300001606345,"stimulus":"img/00439.png","slider_start":4,"response":1,"trial_type":"image-slider-response","trial_index":154,"time_elapsed":477796,"internal_node_id":"0.0-3.0-0.151","subject_id":"6055fd41b11f943acfb2e778","study_id":"605e2a800ccfa0c8e820d869","session_id":"606220962105b2b7c5751e5a"},{"rt":2599.595000036061,"stimulus":"img/00126.png","slider_start":4,"response":1,"trial_type":"image-slider-response","trial_index":155,"time_elapsed":480398,"internal_node_id":"0.0-3.0-0.152","subject_id":"6055fd41b11f943acfb2e778","study_id":"605e2a800ccfa0c8e820d869","session_id":"606220962105b2b7c5751e5a"},{"rt":2613.870000001043,"stimulus":"img/00779.png","slider_start":4,"response":1,"trial_type":"image-slider-response","trial_index":156,"time_elapsed":483014,"internal_node_id":"0.0-3.0-0.153","subject_id":"6055fd41b11f943acfb2e778","study_id":"605e2a800ccfa0c8e820d869","session_id":"606220962105b2b7c5751e5a"},{"rt":3581.9749999791384,"stimulus":"img/00404.png","slider_start":4,"response":3,"trial_type":"image-slider-response","trial_index":157,"time_elapsed":486598,"internal_node_id":"0.0-3.0-0.154","subject_id":"6055fd41b11f943acfb2e778","study_id":"605e2a800ccfa0c8e820d869","session_id":"606220962105b2b7c5751e5a"},{"rt":4250.99499989301,"stimulus":"img/00418.png","slider_start":4,"response":2,"trial_type":"image-slider-response","trial_index":158,"time_elapsed":490852,"internal_node_id":"0.0-3.0-0.155","subject_id":"6055fd41b11f943acfb2e778","study_id":"605e2a800ccfa0c8e820d869","session_id":"606220962105b2b7c5751e5a"},{"rt":3357.6849999371916,"stimulus":"img/00791.png","slider_start":4,"response":1,"trial_type":"image-slider-response","trial_index":159,"time_elapsed":494212,"internal_node_id":"0.0-3.0-0.156","subject_id":"6055fd41b11f943acfb2e778","study_id":"605e2a800ccfa0c8e820d869","session_id":"606220962105b2b7c5751e5a"},{"rt":2888.7650000397116,"stimulus":"img/00559.png","slider_start":4,"response":3,"trial_type":"image-slider-response","trial_index":160,"time_elapsed":497102,"internal_node_id":"0.0-3.0-0.157","subject_id":"6055fd41b11f943acfb2e778","study_id":"605e2a800ccfa0c8e820d869","session_id":"606220962105b2b7c5751e5a"},{"rt":2357.9400000162423,"stimulus":"img/00542.png","slider_start":4,"response":3,"trial_type":"image-slider-response","trial_index":161,"time_elapsed":499462,"internal_node_id":"0.0-3.0-0.158","subject_id":"6055fd41b11f943acfb2e778","study_id":"605e2a800ccfa0c8e820d869","session_id":"606220962105b2b7c5751e5a"},{"rt":3247.800000011921,"stimulus":"img/00466.png","slider_start":4,"response":1,"trial_type":"image-slider-response","trial_index":162,"time_elapsed":502712,"internal_node_id":"0.0-3.0-0.159","subject_id":"6055fd41b11f943acfb2e778","study_id":"605e2a800ccfa0c8e820d869","session_id":"606220962105b2b7c5751e5a"},{"rt":2054.3549999129027,"stimulus":"img/00825.png","slider_start":4,"response":4,"trial_type":"image-slider-response","trial_index":163,"time_elapsed":504768,"internal_node_id":"0.0-3.0-0.160","subject_id":"6055fd41b11f943acfb2e778","study_id":"605e2a800ccfa0c8e820d869","session_id":"606220962105b2b7c5751e5a"},{"rt":2302.099999971688,"stimulus":"img/00504.png","slider_start":4,"response":2,"trial_type":"image-slider-response","trial_index":164,"time_elapsed":507072,"internal_node_id":"0.0-3.0-0.161","subject_id":"6055fd41b11f943acfb2e778","study_id":"605e2a800ccfa0c8e820d869","session_id":"606220962105b2b7c5751e5a"},{"rt":2701.9400000572205,"stimulus":"img/00576.png","slider_start":4,"response":4,"trial_type":"image-slider-response","trial_index":165,"time_elapsed":509776,"internal_node_id":"0.0-3.0-0.162","subject_id":"6055fd41b11f943acfb2e778","study_id":"605e2a800ccfa0c8e820d869","session_id":"606220962105b2b7c5751e5a"},{"rt":3322.169999824837,"stimulus":"img/00479.png","slider_start":4,"response":3,"trial_type":"image-slider-response","trial_index":166,"time_elapsed":513100,"internal_node_id":"0.0-3.0-0.163","subject_id":"6055fd41b11f943acfb2e778","study_id":"605e2a800ccfa0c8e820d869","session_id":"606220962105b2b7c5751e5a"},{"rt":1971.4299999177456,"stimulus":"img/00815.png","slider_start":4,"response":2,"trial_type":"image-slider-response","trial_index":167,"time_elapsed":515074,"internal_node_id":"0.0-3.0-0.164","subject_id":"6055fd41b11f943acfb2e778","study_id":"605e2a800ccfa0c8e820d869","session_id":"606220962105b2b7c5751e5a"},{"rt":4928.044999949634,"stimulus":"img/00415.png","slider_start":4,"response":3,"trial_type":"image-slider-response","trial_index":168,"time_elapsed":520004,"internal_node_id":"0.0-3.0-0.165","subject_id":"6055fd41b11f943acfb2e778","study_id":"605e2a800ccfa0c8e820d869","session_id":"606220962105b2b7c5751e5a"},{"rt":223.3049999922514,"stimulus":"img/00760.png","slider_start":4,"response":4,"trial_type":"image-slider-response","trial_index":169,"time_elapsed":520230,"internal_node_id":"0.0-3.0-0.166","subject_id":"6055fd41b11f943acfb2e778","study_id":"605e2a800ccfa0c8e820d869","session_id":"606220962105b2b7c5751e5a"},{"rt":4896.660000085831,"stimulus":"img/00848.png","slider_start":4,"response":3,"trial_type":"image-slider-response","trial_index":170,"time_elapsed":525129,"internal_node_id":"0.0-3.0-0.167","subject_id":"6055fd41b11f943acfb2e778","study_id":"605e2a800ccfa0c8e820d869","session_id":"606220962105b2b7c5751e5a"},{"rt":4113.115000072867,"stimulus":"img/00454.png","slider_start":4,"response":3,"trial_type":"image-slider-response","trial_index":171,"time_elapsed":529245,"internal_node_id":"0.0-3.0-0.168","subject_id":"6055fd41b11f943acfb2e778","study_id":"605e2a800ccfa0c8e820d869","session_id":"606220962105b2b7c5751e5a"},{"rt":4141.444999957457,"stimulus":"img/00525.png","slider_start":4,"response":2,"trial_type":"image-slider-response","trial_index":172,"time_elapsed":533389,"internal_node_id":"0.0-3.0-0.169","subject_id":"6055fd41b11f943acfb2e778","study_id":"605e2a800ccfa0c8e820d869","session_id":"606220962105b2b7c5751e5a"},{"rt":4153.220000211149,"stimulus":"img/00811.png","slider_start":4,"response":1,"trial_type":"image-slider-response","trial_index":173,"time_elapsed":537545,"internal_node_id":"0.0-3.0-0.170","subject_id":"6055fd41b11f943acfb2e778","study_id":"605e2a800ccfa0c8e820d869","session_id":"606220962105b2b7c5751e5a"},{"rt":1976.0449999012053,"stimulus":"img/00496.png","slider_start":4,"response":3,"trial_type":"image-slider-response","trial_index":174,"time_elapsed":539525,"internal_node_id":"0.0-3.0-0.171","subject_id":"6055fd41b11f943acfb2e778","study_id":"605e2a800ccfa0c8e820d869","session_id":"606220962105b2b7c5751e5a"}]