[{"rt":2415.0749999680556,"stimulus":"Welcome to the experiment. Press any key to begin.","response":"a","trial_type":"html-keyboard-response","trial_index":0,"time_elapsed":2416,"internal_node_id":"0.0-0.0","subject_id":"5eb9c778d06cf60ef8ed5a7b","study_id":"605e2a800ccfa0c8e820d869","session_id":"606213a3aba8bfdc3a635a89"},{"rt":4312.335000024177,"stimulus":"\n        <p>In this experiment, a face will appear on-screen.</p><p> <strong>Rate the face on a 1 - 7 scale based on how attractive he / she is.</strong> </p>\n        </div>\n        <p>Press any key to begin.</p>\n      ","response":" ","trial_type":"html-keyboard-response","trial_index":1,"time_elapsed":6729,"internal_node_id":"0.0-1.0","subject_id":"5eb9c778d06cf60ef8ed5a7b","study_id":"605e2a800ccfa0c8e820d869","session_id":"606213a3aba8bfdc3a635a89"},{"success":true,"timeout":false,"failed_images":[],"failed_audio":[],"failed_video":[],"trial_type":"preload","trial_index":2,"time_elapsed":34804,"internal_node_id":"0.0-2.0","subject_id":"5eb9c778d06cf60ef8ed5a7b","study_id":"605e2a800ccfa0c8e820d869","session_id":"606213a3aba8bfdc3a635a89"},{"rt":20027.430000016466,"stimulus":"img/00791.png","slider_start":4,"response":3,"trial_type":"image-slider-response","trial_index":3,"time_elapsed":54838,"internal_node_id":"0.0-3.0-0.0","subject_id":"5eb9c778d06cf60ef8ed5a7b","study_id":"605e2a800ccfa0c8e820d869","session_id":"606213a3aba8bfdc3a635a89"},{"rt":3931.3400000100955,"stimulus":"img/00504.png","slider_start":4,"response":3,"trial_type":"image-slider-response","trial_index":4,"time_elapsed":58771,"internal_node_id":"0.0-3.0-0.1","subject_id":"5eb9c778d06cf60ef8ed5a7b","study_id":"605e2a800ccfa0c8e820d869","session_id":"606213a3aba8bfdc3a635a89"},{"rt":3085.010000038892,"stimulus":"img/00815.png","slider_start":4,"response":4,"trial_type":"image-slider-response","trial_index":5,"time_elapsed":61857,"internal_node_id":"0.0-3.0-0.2","subject_id":"5eb9c778d06cf60ef8ed5a7b","study_id":"605e2a800ccfa0c8e820d869","session_id":"606213a3aba8bfdc3a635a89"},{"rt":5001.080000016373,"stimulus":"img/00561.png","slider_start":4,"response":2,"trial_type":"image-slider-response","trial_index":6,"time_elapsed":66860,"internal_node_id":"0.0-3.0-0.3","subject_id":"5eb9c778d06cf60ef8ed5a7b","study_id":"605e2a800ccfa0c8e820d869","session_id":"606213a3aba8bfdc3a635a89"},{"rt":3232.8299999935552,"stimulus":"img/00854.png","slider_start":4,"response":4,"trial_type":"image-slider-response","trial_index":7,"time_elapsed":70094,"internal_node_id":"0.0-3.0-0.4","subject_id":"5eb9c778d06cf60ef8ed5a7b","study_id":"605e2a800ccfa0c8e820d869","session_id":"606213a3aba8bfdc3a635a89"},{"rt":3122.060000023339,"stimulus":"img/00418.png","slider_start":4,"response":4,"trial_type":"image-slider-response","trial_index":8,"time_elapsed":73217,"internal_node_id":"0.0-3.0-0.5","subject_id":"5eb9c778d06cf60ef8ed5a7b","study_id":"605e2a800ccfa0c8e820d869","session_id":"606213a3aba8bfdc3a635a89"},{"rt":8885.295000043698,"stimulus":"img/00576.png","slider_start":4,"response":6,"trial_type":"image-slider-response","trial_index":9,"time_elapsed":82104,"internal_node_id":"0.0-3.0-0.6","subject_id":"5eb9c778d06cf60ef8ed5a7b","study_id":"605e2a800ccfa0c8e820d869","session_id":"606213a3aba8bfdc3a635a89"},{"rt":4262.930000026245,"stimulus":"img/00982.png","slider_start":4,"response":3,"trial_type":"image-slider-response","trial_index":10,"time_elapsed":86369,"internal_node_id":"0.0-3.0-0.7","subject_id":"5eb9c778d06cf60ef8ed5a7b","study_id":"605e2a800ccfa0c8e820d869","session_id":"606213a3aba8bfdc3a635a89"},{"rt":4274.059999966994,"stimulus":"img/00545.png","slider_start":4,"response":4,"trial_type":"image-slider-response","trial_index":11,"time_elapsed":90644,"internal_node_id":"0.0-3.0-0.8","subject_id":"5eb9c778d06cf60ef8ed5a7b","study_id":"605e2a800ccfa0c8e820d869","session_id":"606213a3aba8bfdc3a635a89"},{"rt":3572.8200000012293,"stimulus":"img/00833.png","slider_start":4,"response":4,"trial_type":"image-slider-response","trial_index":12,"time_elapsed":94218,"internal_node_id":"0.0-3.0-0.9","subject_id":"5eb9c778d06cf60ef8ed5a7b","study_id":"605e2a800ccfa0c8e820d869","session_id":"606213a3aba8bfdc3a635a89"},{"rt":2952.7750000124797,"stimulus":"img/00748.png","slider_start":4,"response":3,"trial_type":"image-slider-response","trial_index":13,"time_elapsed":97173,"internal_node_id":"0.0-3.0-0.10","subject_id":"5eb9c778d06cf60ef8ed5a7b","study_id":"605e2a800ccfa0c8e820d869","session_id":"606213a3aba8bfdc3a635a89"},{"rt":2670.864999992773,"stimulus":"img/00629.png","slider_start":4,"response":4,"trial_type":"image-slider-response","trial_index":14,"time_elapsed":99845,"internal_node_id":"0.0-3.0-0.11","subject_id":"5eb9c778d06cf60ef8ed5a7b","study_id":"605e2a800ccfa0c8e820d869","session_id":"606213a3aba8bfdc3a635a89"},{"rt":4753.194999997504,"stimulus":"img/00623.png","slider_start":4,"response":6,"trial_type":"image-slider-response","trial_index":15,"time_elapsed":104599,"internal_node_id":"0.0-3.0-0.12","subject_id":"5eb9c778d06cf60ef8ed5a7b","study_id":"605e2a800ccfa0c8e820d869","session_id":"606213a3aba8bfdc3a635a89"},{"rt":6446.159999992233,"stimulus":"img/00012.png","slider_start":4,"response":5,"trial_type":"image-slider-response","trial_index":16,"time_elapsed":111047,"internal_node_id":"0.0-3.0-0.13","subject_id":"5eb9c778d06cf60ef8ed5a7b","study_id":"605e2a800ccfa0c8e820d869","session_id":"606213a3aba8bfdc3a635a89"},{"rt":5912.03000000678,"stimulus":"img/00006.png","slider_start":4,"response":5,"trial_type":"image-slider-response","trial_index":17,"time_elapsed":116960,"internal_node_id":"0.0-3.0-0.14","subject_id":"5eb9c778d06cf60ef8ed5a7b","study_id":"605e2a800ccfa0c8e820d869","session_id":"606213a3aba8bfdc3a635a89"},{"rt":3303.790000034496,"stimulus":"img/00002.png","slider_start":4,"response":5,"trial_type":"image-slider-response","trial_index":18,"time_elapsed":120266,"internal_node_id":"0.0-3.0-0.15","subject_id":"5eb9c778d06cf60ef8ed5a7b","study_id":"605e2a800ccfa0c8e820d869","session_id":"606213a3aba8bfdc3a635a89"},{"rt":3535.115000035148,"stimulus":"img/00059.png","slider_start":4,"response":6,"trial_type":"image-slider-response","trial_index":19,"time_elapsed":123802,"internal_node_id":"0.0-3.0-0.16","subject_id":"5eb9c778d06cf60ef8ed5a7b","study_id":"605e2a800ccfa0c8e820d869","session_id":"606213a3aba8bfdc3a635a89"},{"rt":8369.365000049584,"stimulus":"img/00055.png","slider_start":4,"response":7,"trial_type":"image-slider-response","trial_index":20,"time_elapsed":132173,"internal_node_id":"0.0-3.0-0.17","subject_id":"5eb9c778d06cf60ef8ed5a7b","study_id":"605e2a800ccfa0c8e820d869","session_id":"606213a3aba8bfdc3a635a89"},{"rt":3972.910000011325,"stimulus":"img/00693.png","slider_start":4,"response":4,"trial_type":"image-slider-response","trial_index":21,"time_elapsed":136147,"internal_node_id":"0.0-3.0-0.18","subject_id":"5eb9c778d06cf60ef8ed5a7b","study_id":"605e2a800ccfa0c8e820d869","session_id":"606213a3aba8bfdc3a635a89"},{"rt":2633.84500000393,"stimulus":"img/00761.png","slider_start":4,"response":6,"trial_type":"image-slider-response","trial_index":22,"time_elapsed":138783,"internal_node_id":"0.0-3.0-0.19","subject_id":"5eb9c778d06cf60ef8ed5a7b","study_id":"605e2a800ccfa0c8e820d869","session_id":"606213a3aba8bfdc3a635a89"},{"rt":3083.2599999848753,"stimulus":"img/00853.png","slider_start":4,"response":4,"trial_type":"image-slider-response","trial_index":23,"time_elapsed":141867,"internal_node_id":"0.0-3.0-0.20","subject_id":"5eb9c778d06cf60ef8ed5a7b","study_id":"605e2a800ccfa0c8e820d869","session_id":"606213a3aba8bfdc3a635a89"},{"rt":4946.750000002794,"stimulus":"img/00850.png","slider_start":4,"response":2,"trial_type":"image-slider-response","trial_index":24,"time_elapsed":146816,"internal_node_id":"0.0-3.0-0.21","subject_id":"5eb9c778d06cf60ef8ed5a7b","study_id":"605e2a800ccfa0c8e820d869","session_id":"606213a3aba8bfdc3a635a89"},{"rt":2994.9349999660626,"stimulus":"img/00644.png","slider_start":4,"response":5,"trial_type":"image-slider-response","trial_index":25,"time_elapsed":149812,"internal_node_id":"0.0-3.0-0.22","subject_id":"5eb9c778d06cf60ef8ed5a7b","study_id":"605e2a800ccfa0c8e820d869","session_id":"606213a3aba8bfdc3a635a89"},{"rt":4359.799999976531,"stimulus":"img/00995.png","slider_start":4,"response":4,"trial_type":"image-slider-response","trial_index":26,"time_elapsed":154173,"internal_node_id":"0.0-3.0-0.23","subject_id":"5eb9c778d06cf60ef8ed5a7b","study_id":"605e2a800ccfa0c8e820d869","session_id":"606213a3aba8bfdc3a635a89"},{"rt":2535.7700000167824,"stimulus":"img/00469.png","slider_start":4,"response":5,"trial_type":"image-slider-response","trial_index":27,"time_elapsed":156710,"internal_node_id":"0.0-3.0-0.24","subject_id":"5eb9c778d06cf60ef8ed5a7b","study_id":"605e2a800ccfa0c8e820d869","session_id":"606213a3aba8bfdc3a635a89"},{"rt":3425.115000049118,"stimulus":"img/00793.png","slider_start":4,"response":4,"trial_type":"image-slider-response","trial_index":28,"time_elapsed":160137,"internal_node_id":"0.0-3.0-0.25","subject_id":"5eb9c778d06cf60ef8ed5a7b","study_id":"605e2a800ccfa0c8e820d869","session_id":"606213a3aba8bfdc3a635a89"},{"rt":3665.9500000532717,"stimulus":"img/00718.png","slider_start":4,"response":3,"trial_type":"image-slider-response","trial_index":29,"time_elapsed":163804,"internal_node_id":"0.0-3.0-0.26","subject_id":"5eb9c778d06cf60ef8ed5a7b","study_id":"605e2a800ccfa0c8e820d869","session_id":"606213a3aba8bfdc3a635a89"},{"rt":3466.8649999657646,"stimulus":"img/00928.png","slider_start":4,"response":4,"trial_type":"image-slider-response","trial_index":30,"time_elapsed":167272,"internal_node_id":"0.0-3.0-0.27","subject_id":"5eb9c778d06cf60ef8ed5a7b","study_id":"605e2a800ccfa0c8e820d869","session_id":"606213a3aba8bfdc3a635a89"},{"rt":3385.8650000183843,"stimulus":"img/00570.png","slider_start":4,"response":5,"trial_type":"image-slider-response","trial_index":31,"time_elapsed":170660,"internal_node_id":"0.0-3.0-0.28","subject_id":"5eb9c778d06cf60ef8ed5a7b","study_id":"605e2a800ccfa0c8e820d869","session_id":"606213a3aba8bfdc3a635a89"},{"rt":4436.190000036731,"stimulus":"img/00592.png","slider_start":4,"response":6,"trial_type":"image-slider-response","trial_index":32,"time_elapsed":175097,"internal_node_id":"0.0-3.0-0.29","subject_id":"5eb9c778d06cf60ef8ed5a7b","study_id":"605e2a800ccfa0c8e820d869","session_id":"606213a3aba8bfdc3a635a89"},{"rt":3270.890000043437,"stimulus":"img/00810.png","slider_start":4,"response":3,"trial_type":"image-slider-response","trial_index":33,"time_elapsed":178369,"internal_node_id":"0.0-3.0-0.30","subject_id":"5eb9c778d06cf60ef8ed5a7b","study_id":"605e2a800ccfa0c8e820d869","session_id":"606213a3aba8bfdc3a635a89"},{"rt":3435.040000011213,"stimulus":"img/00405.png","slider_start":4,"response":6,"trial_type":"image-slider-response","trial_index":34,"time_elapsed":181806,"internal_node_id":"0.0-3.0-0.31","subject_id":"5eb9c778d06cf60ef8ed5a7b","study_id":"605e2a800ccfa0c8e820d869","session_id":"606213a3aba8bfdc3a635a89"},{"rt":2526.8550000037067,"stimulus":"img/00913.png","slider_start":4,"response":4,"trial_type":"image-slider-response","trial_index":35,"time_elapsed":184334,"internal_node_id":"0.0-3.0-0.32","subject_id":"5eb9c778d06cf60ef8ed5a7b","study_id":"605e2a800ccfa0c8e820d869","session_id":"606213a3aba8bfdc3a635a89"},{"rt":2399.8549999669194,"stimulus":"img/00688.png","slider_start":4,"response":6,"trial_type":"image-slider-response","trial_index":36,"time_elapsed":186735,"internal_node_id":"0.0-3.0-0.33","subject_id":"5eb9c778d06cf60ef8ed5a7b","study_id":"605e2a800ccfa0c8e820d869","session_id":"606213a3aba8bfdc3a635a89"},{"rt":3807.314999983646,"stimulus":"img/00052.png","slider_start":4,"response":4,"trial_type":"image-slider-response","trial_index":37,"time_elapsed":190543,"internal_node_id":"0.0-3.0-0.34","subject_id":"5eb9c778d06cf60ef8ed5a7b","study_id":"605e2a800ccfa0c8e820d869","session_id":"606213a3aba8bfdc3a635a89"},{"rt":3416.8749999953434,"stimulus":"img/00811.png","slider_start":4,"response":4,"trial_type":"image-slider-response","trial_index":38,"time_elapsed":193962,"internal_node_id":"0.0-3.0-0.35","subject_id":"5eb9c778d06cf60ef8ed5a7b","study_id":"605e2a800ccfa0c8e820d869","session_id":"606213a3aba8bfdc3a635a89"},{"rt":5375.884999986738,"stimulus":"img/00508.png","slider_start":4,"response":5,"trial_type":"image-slider-response","trial_index":39,"time_elapsed":199339,"internal_node_id":"0.0-3.0-0.36","subject_id":"5eb9c778d06cf60ef8ed5a7b","study_id":"605e2a800ccfa0c8e820d869","session_id":"606213a3aba8bfdc3a635a89"},{"rt":5597.08000003593,"stimulus":"img/40.png","slider_start":4,"response":3,"trial_type":"image-slider-response","trial_index":40,"time_elapsed":204938,"internal_node_id":"0.0-3.0-0.37","subject_id":"5eb9c778d06cf60ef8ed5a7b","study_id":"605e2a800ccfa0c8e820d869","session_id":"606213a3aba8bfdc3a635a89"},{"rt":2749.8900000355206,"stimulus":"img/00768.png","slider_start":4,"response":5,"trial_type":"image-slider-response","trial_index":41,"time_elapsed":207689,"internal_node_id":"0.0-3.0-0.38","subject_id":"5eb9c778d06cf60ef8ed5a7b","study_id":"605e2a800ccfa0c8e820d869","session_id":"606213a3aba8bfdc3a635a89"},{"rt":2919.0949999610893,"stimulus":"img/00105.png","slider_start":4,"response":5,"trial_type":"image-slider-response","trial_index":42,"time_elapsed":210609,"internal_node_id":"0.0-3.0-0.39","subject_id":"5eb9c778d06cf60ef8ed5a7b","study_id":"605e2a800ccfa0c8e820d869","session_id":"606213a3aba8bfdc3a635a89"},{"rt":2967.029999999795,"stimulus":"img/00817.png","slider_start":4,"response":4,"trial_type":"image-slider-response","trial_index":43,"time_elapsed":213578,"internal_node_id":"0.0-3.0-0.40","subject_id":"5eb9c778d06cf60ef8ed5a7b","study_id":"605e2a800ccfa0c8e820d869","session_id":"606213a3aba8bfdc3a635a89"},{"rt":5342.0700000133365,"stimulus":"img/00404.png","slider_start":4,"response":3,"trial_type":"image-slider-response","trial_index":44,"time_elapsed":218921,"internal_node_id":"0.0-3.0-0.41","subject_id":"5eb9c778d06cf60ef8ed5a7b","study_id":"605e2a800ccfa0c8e820d869","session_id":"606213a3aba8bfdc3a635a89"},{"rt":2164.679999987129,"stimulus":"img/00113.png","slider_start":4,"response":3,"trial_type":"image-slider-response","trial_index":45,"time_elapsed":221087,"internal_node_id":"0.0-3.0-0.42","subject_id":"5eb9c778d06cf60ef8ed5a7b","study_id":"605e2a800ccfa0c8e820d869","session_id":"606213a3aba8bfdc3a635a89"},{"rt":2940.009999962058,"stimulus":"img/00483.png","slider_start":4,"response":4,"trial_type":"image-slider-response","trial_index":46,"time_elapsed":224028,"internal_node_id":"0.0-3.0-0.43","subject_id":"5eb9c778d06cf60ef8ed5a7b","study_id":"605e2a800ccfa0c8e820d869","session_id":"606213a3aba8bfdc3a635a89"},{"rt":2115.9800000023097,"stimulus":"img/00439.png","slider_start":4,"response":3,"trial_type":"image-slider-response","trial_index":47,"time_elapsed":226146,"internal_node_id":"0.0-3.0-0.44","subject_id":"5eb9c778d06cf60ef8ed5a7b","study_id":"605e2a800ccfa0c8e820d869","session_id":"606213a3aba8bfdc3a635a89"},{"rt":3016.109999967739,"stimulus":"img/00079.png","slider_start":4,"response":3,"trial_type":"image-slider-response","trial_index":48,"time_elapsed":229163,"internal_node_id":"0.0-3.0-0.45","subject_id":"5eb9c778d06cf60ef8ed5a7b","study_id":"605e2a800ccfa0c8e820d869","session_id":"606213a3aba8bfdc3a635a89"},{"rt":1920.719999994617,"stimulus":"img/00460.png","slider_start":4,"response":5,"trial_type":"image-slider-response","trial_index":49,"time_elapsed":231085,"internal_node_id":"0.0-3.0-0.46","subject_id":"5eb9c778d06cf60ef8ed5a7b","study_id":"605e2a800ccfa0c8e820d869","session_id":"606213a3aba8bfdc3a635a89"},{"rt":1846.094999986235,"stimulus":"img/00559.png","slider_start":4,"response":4,"trial_type":"image-slider-response","trial_index":50,"time_elapsed":232932,"internal_node_id":"0.0-3.0-0.47","subject_id":"5eb9c778d06cf60ef8ed5a7b","study_id":"605e2a800ccfa0c8e820d869","session_id":"606213a3aba8bfdc3a635a89"},{"rt":1998.9250000216998,"stimulus":"img/00896.png","slider_start":4,"response":3,"trial_type":"image-slider-response","trial_index":51,"time_elapsed":234932,"internal_node_id":"0.0-3.0-0.48","subject_id":"5eb9c778d06cf60ef8ed5a7b","study_id":"605e2a800ccfa0c8e820d869","session_id":"606213a3aba8bfdc3a635a89"},{"rt":2505.044999998063,"stimulus":"img/00797.png","slider_start":4,"response":4,"trial_type":"image-slider-response","trial_index":52,"time_elapsed":237439,"internal_node_id":"0.0-3.0-0.49","subject_id":"5eb9c778d06cf60ef8ed5a7b","study_id":"605e2a800ccfa0c8e820d869","session_id":"606213a3aba8bfdc3a635a89"},{"rt":2225.010000052862,"stimulus":"img/00428.png","slider_start":4,"response":5,"trial_type":"image-slider-response","trial_index":53,"time_elapsed":239665,"internal_node_id":"0.0-3.0-0.50","subject_id":"5eb9c778d06cf60ef8ed5a7b","study_id":"605e2a800ccfa0c8e820d869","session_id":"606213a3aba8bfdc3a635a89"},{"rt":3500.1249999622814,"stimulus":"img/00860.png","slider_start":4,"response":5,"trial_type":"image-slider-response","trial_index":54,"time_elapsed":243166,"internal_node_id":"0.0-3.0-0.51","subject_id":"5eb9c778d06cf60ef8ed5a7b","study_id":"605e2a800ccfa0c8e820d869","session_id":"606213a3aba8bfdc3a635a89"},{"rt":5512.065000017174,"stimulus":"img/00842.png","slider_start":4,"response":7,"trial_type":"image-slider-response","trial_index":55,"time_elapsed":248680,"internal_node_id":"0.0-3.0-0.52","subject_id":"5eb9c778d06cf60ef8ed5a7b","study_id":"605e2a800ccfa0c8e820d869","session_id":"606213a3aba8bfdc3a635a89"},{"rt":2896.7800000100397,"stimulus":"img/00525.png","slider_start":4,"response":3,"trial_type":"image-slider-response","trial_index":56,"time_elapsed":251578,"internal_node_id":"0.0-3.0-0.53","subject_id":"5eb9c778d06cf60ef8ed5a7b","study_id":"605e2a800ccfa0c8e820d869","session_id":"606213a3aba8bfdc3a635a89"},{"rt":3097.745000035502,"stimulus":"img/00690.png","slider_start":4,"response":6,"trial_type":"image-slider-response","trial_index":57,"time_elapsed":254677,"internal_node_id":"0.0-3.0-0.54","subject_id":"5eb9c778d06cf60ef8ed5a7b","study_id":"605e2a800ccfa0c8e820d869","session_id":"606213a3aba8bfdc3a635a89"},{"rt":2536.985000013374,"stimulus":"img/00456.png","slider_start":4,"response":4,"trial_type":"image-slider-response","trial_index":58,"time_elapsed":257215,"internal_node_id":"0.0-3.0-0.55","subject_id":"5eb9c778d06cf60ef8ed5a7b","study_id":"605e2a800ccfa0c8e820d869","session_id":"606213a3aba8bfdc3a635a89"},{"rt":1929.0000000037253,"stimulus":"img/00789.png","slider_start":4,"response":3,"trial_type":"image-slider-response","trial_index":59,"time_elapsed":259146,"internal_node_id":"0.0-3.0-0.56","subject_id":"5eb9c778d06cf60ef8ed5a7b","study_id":"605e2a800ccfa0c8e820d869","session_id":"606213a3aba8bfdc3a635a89"},{"rt":6490.304999984801,"stimulus":"img/00822.png","slider_start":4,"response":6,"trial_type":"image-slider-response","trial_index":60,"time_elapsed":265637,"internal_node_id":"0.0-3.0-0.57","subject_id":"5eb9c778d06cf60ef8ed5a7b","study_id":"605e2a800ccfa0c8e820d869","session_id":"606213a3aba8bfdc3a635a89"},{"rt":3176.7949999775738,"stimulus":"img/00462.png","slider_start":4,"response":6,"trial_type":"image-slider-response","trial_index":61,"time_elapsed":268815,"internal_node_id":"0.0-3.0-0.58","subject_id":"5eb9c778d06cf60ef8ed5a7b","study_id":"605e2a800ccfa0c8e820d869","session_id":"606213a3aba8bfdc3a635a89"},{"rt":1897.930000035558,"stimulus":"img/00603.png","slider_start":4,"response":4,"trial_type":"image-slider-response","trial_index":62,"time_elapsed":270714,"internal_node_id":"0.0-3.0-0.59","subject_id":"5eb9c778d06cf60ef8ed5a7b","study_id":"605e2a800ccfa0c8e820d869","session_id":"606213a3aba8bfdc3a635a89"},{"rt":2893.0549999931827,"stimulus":"img/00756.png","slider_start":4,"response":5,"trial_type":"image-slider-response","trial_index":63,"time_elapsed":273609,"internal_node_id":"0.0-3.0-0.60","subject_id":"5eb9c778d06cf60ef8ed5a7b","study_id":"605e2a800ccfa0c8e820d869","session_id":"606213a3aba8bfdc3a635a89"},{"rt":2898.9500000025146,"stimulus":"img/00016.png","slider_start":4,"response":2,"trial_type":"image-slider-response","trial_index":64,"time_elapsed":276509,"internal_node_id":"0.0-3.0-0.61","subject_id":"5eb9c778d06cf60ef8ed5a7b","study_id":"605e2a800ccfa0c8e820d869","session_id":"606213a3aba8bfdc3a635a89"},{"rt":4066.0250000073574,"stimulus":"img/00413.png","slider_start":4,"response":4,"trial_type":"image-slider-response","trial_index":65,"time_elapsed":280576,"internal_node_id":"0.0-3.0-0.62","subject_id":"5eb9c778d06cf60ef8ed5a7b","study_id":"605e2a800ccfa0c8e820d869","session_id":"606213a3aba8bfdc3a635a89"},{"rt":1716.5899999672547,"stimulus":"img/00126.png","slider_start":4,"response":4,"trial_type":"image-slider-response","trial_index":66,"time_elapsed":282294,"internal_node_id":"0.0-3.0-0.63","subject_id":"5eb9c778d06cf60ef8ed5a7b","study_id":"605e2a800ccfa0c8e820d869","session_id":"606213a3aba8bfdc3a635a89"},{"rt":2979.3100000242703,"stimulus":"img/00708.png","slider_start":4,"response":5,"trial_type":"image-slider-response","trial_index":67,"time_elapsed":285275,"internal_node_id":"0.0-3.0-0.64","subject_id":"5eb9c778d06cf60ef8ed5a7b","study_id":"605e2a800ccfa0c8e820d869","session_id":"606213a3aba8bfdc3a635a89"},{"rt":5295.050000015181,"stimulus":"img/00115.png","slider_start":4,"response":2,"trial_type":"image-slider-response","trial_index":68,"time_elapsed":290571,"internal_node_id":"0.0-3.0-0.65","subject_id":"5eb9c778d06cf60ef8ed5a7b","study_id":"605e2a800ccfa0c8e820d869","session_id":"606213a3aba8bfdc3a635a89"},{"rt":2059.750000014901,"stimulus":"img/00454.png","slider_start":4,"response":4,"trial_type":"image-slider-response","trial_index":69,"time_elapsed":292632,"internal_node_id":"0.0-3.0-0.66","subject_id":"5eb9c778d06cf60ef8ed5a7b","study_id":"605e2a800ccfa0c8e820d869","session_id":"606213a3aba8bfdc3a635a89"},{"rt":2173.9650000235997,"stimulus":"img/00424.png","slider_start":4,"response":6,"trial_type":"image-slider-response","trial_index":70,"time_elapsed":294808,"internal_node_id":"0.0-3.0-0.67","subject_id":"5eb9c778d06cf60ef8ed5a7b","study_id":"605e2a800ccfa0c8e820d869","session_id":"606213a3aba8bfdc3a635a89"},{"rt":3865.110000013374,"stimulus":"img/00048.png","slider_start":4,"response":2,"trial_type":"image-slider-response","trial_index":71,"time_elapsed":298674,"internal_node_id":"0.0-3.0-0.68","subject_id":"5eb9c778d06cf60ef8ed5a7b","study_id":"605e2a800ccfa0c8e820d869","session_id":"606213a3aba8bfdc3a635a89"},{"rt":2496.134999964852,"stimulus":"img/00773.png","slider_start":4,"response":5,"trial_type":"image-slider-response","trial_index":72,"time_elapsed":301172,"internal_node_id":"0.0-3.0-0.69","subject_id":"5eb9c778d06cf60ef8ed5a7b","study_id":"605e2a800ccfa0c8e820d869","session_id":"606213a3aba8bfdc3a635a89"},{"rt":3162.5549999880604,"stimulus":"img/00956.png","slider_start":4,"response":4,"trial_type":"image-slider-response","trial_index":73,"time_elapsed":304335,"internal_node_id":"0.0-3.0-0.70","subject_id":"5eb9c778d06cf60ef8ed5a7b","study_id":"605e2a800ccfa0c8e820d869","session_id":"606213a3aba8bfdc3a635a89"},{"rt":3870.2850000117905,"stimulus":"img/00479.png","slider_start":4,"response":6,"trial_type":"image-slider-response","trial_index":74,"time_elapsed":308207,"internal_node_id":"0.0-3.0-0.71","subject_id":"5eb9c778d06cf60ef8ed5a7b","study_id":"605e2a800ccfa0c8e820d869","session_id":"606213a3aba8bfdc3a635a89"},{"rt":4565.754999988712,"stimulus":"img/00801.png","slider_start":4,"response":4,"trial_type":"image-slider-response","trial_index":75,"time_elapsed":312774,"internal_node_id":"0.0-3.0-0.72","subject_id":"5eb9c778d06cf60ef8ed5a7b","study_id":"605e2a800ccfa0c8e820d869","session_id":"606213a3aba8bfdc3a635a89"},{"rt":2306.815000018105,"stimulus":"img/00432.png","slider_start":4,"response":7,"trial_type":"image-slider-response","trial_index":76,"time_elapsed":315082,"internal_node_id":"0.0-3.0-0.73","subject_id":"5eb9c778d06cf60ef8ed5a7b","study_id":"605e2a800ccfa0c8e820d869","session_id":"606213a3aba8bfdc3a635a89"},{"rt":6423.784999991767,"stimulus":"img/00780.png","slider_start":4,"response":4,"trial_type":"image-slider-response","trial_index":77,"time_elapsed":321508,"internal_node_id":"0.0-3.0-0.74","subject_id":"5eb9c778d06cf60ef8ed5a7b","study_id":"605e2a800ccfa0c8e820d869","session_id":"606213a3aba8bfdc3a635a89"},{"rt":5340.980000037234,"stimulus":"img/00438.png","slider_start":4,"response":4,"trial_type":"image-slider-response","trial_index":78,"time_elapsed":326850,"internal_node_id":"0.0-3.0-0.75","subject_id":"5eb9c778d06cf60ef8ed5a7b","study_id":"605e2a800ccfa0c8e820d869","session_id":"606213a3aba8bfdc3a635a89"},{"rt":2863.8950000167824,"stimulus":"img/00078.png","slider_start":4,"response":4,"trial_type":"image-slider-response","trial_index":79,"time_elapsed":329716,"internal_node_id":"0.0-3.0-0.76","subject_id":"5eb9c778d06cf60ef8ed5a7b","study_id":"605e2a800ccfa0c8e820d869","session_id":"606213a3aba8bfdc3a635a89"},{"rt":2626.765000051819,"stimulus":"img/00998.png","slider_start":4,"response":4,"trial_type":"image-slider-response","trial_index":80,"time_elapsed":332344,"internal_node_id":"0.0-3.0-0.77","subject_id":"5eb9c778d06cf60ef8ed5a7b","study_id":"605e2a800ccfa0c8e820d869","session_id":"606213a3aba8bfdc3a635a89"},{"rt":3599.110000010114,"stimulus":"img/00521.png","slider_start":4,"response":3,"trial_type":"image-slider-response","trial_index":81,"time_elapsed":335944,"internal_node_id":"0.0-3.0-0.78","subject_id":"5eb9c778d06cf60ef8ed5a7b","study_id":"605e2a800ccfa0c8e820d869","session_id":"606213a3aba8bfdc3a635a89"},{"rt":2189.780000015162,"stimulus":"img/00472.png","slider_start":4,"response":4,"trial_type":"image-slider-response","trial_index":82,"time_elapsed":338136,"internal_node_id":"0.0-3.0-0.79","subject_id":"5eb9c778d06cf60ef8ed5a7b","study_id":"605e2a800ccfa0c8e820d869","session_id":"606213a3aba8bfdc3a635a89"},{"rt":2005.0049999845214,"stimulus":"img/00731.png","slider_start":4,"response":4,"trial_type":"image-slider-response","trial_index":83,"time_elapsed":340142,"internal_node_id":"0.0-3.0-0.80","subject_id":"5eb9c778d06cf60ef8ed5a7b","study_id":"605e2a800ccfa0c8e820d869","session_id":"606213a3aba8bfdc3a635a89"},{"rt":3431.9399999803863,"stimulus":"img/00722.png","slider_start":4,"response":4,"trial_type":"image-slider-response","trial_index":84,"time_elapsed":343575,"internal_node_id":"0.0-3.0-0.81","subject_id":"5eb9c778d06cf60ef8ed5a7b","study_id":"605e2a800ccfa0c8e820d869","session_id":"606213a3aba8bfdc3a635a89"},{"rt":4230.894999986049,"stimulus":"img/00542.png","slider_start":4,"response":4,"trial_type":"image-slider-response","trial_index":85,"time_elapsed":347807,"internal_node_id":"0.0-3.0-0.82","subject_id":"5eb9c778d06cf60ef8ed5a7b","study_id":"605e2a800ccfa0c8e820d869","session_id":"606213a3aba8bfdc3a635a89"},{"rt":4032.9750000382774,"stimulus":"img/00903.png","slider_start":4,"response":5,"trial_type":"image-slider-response","trial_index":86,"time_elapsed":351842,"internal_node_id":"0.0-3.0-0.83","subject_id":"5eb9c778d06cf60ef8ed5a7b","study_id":"605e2a800ccfa0c8e820d869","session_id":"606213a3aba8bfdc3a635a89"},{"rt":1634.7350000287406,"stimulus":"img/00093.png","slider_start":4,"response":4,"trial_type":"image-slider-response","trial_index":87,"time_elapsed":353478,"internal_node_id":"0.0-3.0-0.84","subject_id":"5eb9c778d06cf60ef8ed5a7b","study_id":"605e2a800ccfa0c8e820d869","session_id":"606213a3aba8bfdc3a635a89"},{"rt":2577.8949999948964,"stimulus":"img/00507.png","slider_start":4,"response":4,"trial_type":"image-slider-response","trial_index":88,"time_elapsed":356057,"internal_node_id":"0.0-3.0-0.85","subject_id":"5eb9c778d06cf60ef8ed5a7b","study_id":"605e2a800ccfa0c8e820d869","session_id":"606213a3aba8bfdc3a635a89"},{"rt":3880.204999994021,"stimulus":"img/00489.png","slider_start":4,"response":4,"trial_type":"image-slider-response","trial_index":89,"time_elapsed":359938,"internal_node_id":"0.0-3.0-0.86","subject_id":"5eb9c778d06cf60ef8ed5a7b","study_id":"605e2a800ccfa0c8e820d869","session_id":"606213a3aba8bfdc3a635a89"},{"rt":2261.770000040997,"stimulus":"img/00549.png","slider_start":4,"response":5,"trial_type":"image-slider-response","trial_index":90,"time_elapsed":362202,"internal_node_id":"0.0-3.0-0.87","subject_id":"5eb9c778d06cf60ef8ed5a7b","study_id":"605e2a800ccfa0c8e820d869","session_id":"606213a3aba8bfdc3a635a89"},{"rt":2065.065000031609,"stimulus":"img/00790.png","slider_start":4,"response":5,"trial_type":"image-slider-response","trial_index":91,"time_elapsed":364268,"internal_node_id":"0.0-3.0-0.88","subject_id":"5eb9c778d06cf60ef8ed5a7b","study_id":"605e2a800ccfa0c8e820d869","session_id":"606213a3aba8bfdc3a635a89"},{"rt":2771.9749999814667,"stimulus":"img/00988.png","slider_start":4,"response":4,"trial_type":"image-slider-response","trial_index":92,"time_elapsed":367041,"internal_node_id":"0.0-3.0-0.89","subject_id":"5eb9c778d06cf60ef8ed5a7b","study_id":"605e2a800ccfa0c8e820d869","session_id":"606213a3aba8bfdc3a635a89"},{"rt":2537.7149999840185,"stimulus":"img/00689.png","slider_start":4,"response":5,"trial_type":"image-slider-response","trial_index":93,"time_elapsed":369580,"internal_node_id":"0.0-3.0-0.90","subject_id":"5eb9c778d06cf60ef8ed5a7b","study_id":"605e2a800ccfa0c8e820d869","session_id":"606213a3aba8bfdc3a635a89"},{"rt":1862.0949999894947,"stimulus":"img/00569.png","slider_start":4,"response":4,"trial_type":"image-slider-response","trial_index":94,"time_elapsed":371443,"internal_node_id":"0.0-3.0-0.91","subject_id":"5eb9c778d06cf60ef8ed5a7b","study_id":"605e2a800ccfa0c8e820d869","session_id":"606213a3aba8bfdc3a635a89"},{"rt":5101.190000015777,"stimulus":"img/00752.png","slider_start":4,"response":3,"trial_type":"image-slider-response","trial_index":95,"time_elapsed":376546,"internal_node_id":"0.0-3.0-0.92","subject_id":"5eb9c778d06cf60ef8ed5a7b","study_id":"605e2a800ccfa0c8e820d869","session_id":"606213a3aba8bfdc3a635a89"},{"rt":3112.8850000095554,"stimulus":"img/00082.png","slider_start":4,"response":4,"trial_type":"image-slider-response","trial_index":96,"time_elapsed":379660,"internal_node_id":"0.0-3.0-0.93","subject_id":"5eb9c778d06cf60ef8ed5a7b","study_id":"605e2a800ccfa0c8e820d869","session_id":"606213a3aba8bfdc3a635a89"},{"rt":1602.69500000868,"stimulus":"img/00878.png","slider_start":4,"response":4,"trial_type":"image-slider-response","trial_index":97,"time_elapsed":381264,"internal_node_id":"0.0-3.0-0.94","subject_id":"5eb9c778d06cf60ef8ed5a7b","study_id":"605e2a800ccfa0c8e820d869","session_id":"606213a3aba8bfdc3a635a89"},{"rt":3553.119999996852,"stimulus":"img/00427.png","slider_start":4,"response":7,"trial_type":"image-slider-response","trial_index":98,"time_elapsed":384818,"internal_node_id":"0.0-3.0-0.95","subject_id":"5eb9c778d06cf60ef8ed5a7b","study_id":"605e2a800ccfa0c8e820d869","session_id":"606213a3aba8bfdc3a635a89"},{"rt":3103.14500000095,"stimulus":"img/00129.png","slider_start":4,"response":6,"trial_type":"image-slider-response","trial_index":99,"time_elapsed":387922,"internal_node_id":"0.0-3.0-0.96","subject_id":"5eb9c778d06cf60ef8ed5a7b","study_id":"605e2a800ccfa0c8e820d869","session_id":"606213a3aba8bfdc3a635a89"},{"rt":2487.6499999663793,"stimulus":"img/00618.png","slider_start":4,"response":6,"trial_type":"image-slider-response","trial_index":100,"time_elapsed":390412,"internal_node_id":"0.0-3.0-0.97","subject_id":"5eb9c778d06cf60ef8ed5a7b","study_id":"605e2a800ccfa0c8e820d869","session_id":"606213a3aba8bfdc3a635a89"},{"rt":2402.029999997467,"stimulus":"img/00764.png","slider_start":4,"response":4,"trial_type":"image-slider-response","trial_index":101,"time_elapsed":392815,"internal_node_id":"0.0-3.0-0.98","subject_id":"5eb9c778d06cf60ef8ed5a7b","study_id":"605e2a800ccfa0c8e820d869","session_id":"606213a3aba8bfdc3a635a89"},{"rt":2813.8850000104867,"stimulus":"img/00744.png","slider_start":4,"response":3,"trial_type":"image-slider-response","trial_index":102,"time_elapsed":395630,"internal_node_id":"0.0-3.0-0.99","subject_id":"5eb9c778d06cf60ef8ed5a7b","study_id":"605e2a800ccfa0c8e820d869","session_id":"606213a3aba8bfdc3a635a89"},{"rt":2474.8799999943003,"stimulus":"img/00122.png","slider_start":4,"response":7,"trial_type":"image-slider-response","trial_index":103,"time_elapsed":398106,"internal_node_id":"0.0-3.0-0.100","subject_id":"5eb9c778d06cf60ef8ed5a7b","study_id":"605e2a800ccfa0c8e820d869","session_id":"606213a3aba8bfdc3a635a89"},{"rt":2103.334999992512,"stimulus":"img/00478.png","slider_start":4,"response":4,"trial_type":"image-slider-response","trial_index":104,"time_elapsed":400211,"internal_node_id":"0.0-3.0-0.101","subject_id":"5eb9c778d06cf60ef8ed5a7b","study_id":"605e2a800ccfa0c8e820d869","session_id":"606213a3aba8bfdc3a635a89"},{"rt":2968.5949999839067,"stimulus":"img/00040.png","slider_start":4,"response":3,"trial_type":"image-slider-response","trial_index":105,"time_elapsed":403181,"internal_node_id":"0.0-3.0-0.102","subject_id":"5eb9c778d06cf60ef8ed5a7b","study_id":"605e2a800ccfa0c8e820d869","session_id":"606213a3aba8bfdc3a635a89"},{"rt":2360.6950000394136,"stimulus":"img/00898.png","slider_start":4,"response":3,"trial_type":"image-slider-response","trial_index":106,"time_elapsed":405543,"internal_node_id":"0.0-3.0-0.103","subject_id":"5eb9c778d06cf60ef8ed5a7b","study_id":"605e2a800ccfa0c8e820d869","session_id":"606213a3aba8bfdc3a635a89"},{"rt":5516.360000008717,"stimulus":"img/00779.png","slider_start":4,"response":2,"trial_type":"image-slider-response","trial_index":107,"time_elapsed":411060,"internal_node_id":"0.0-3.0-0.104","subject_id":"5eb9c778d06cf60ef8ed5a7b","study_id":"605e2a800ccfa0c8e820d869","session_id":"606213a3aba8bfdc3a635a89"},{"rt":2298.6800000071526,"stimulus":"img/00902.png","slider_start":4,"response":4,"trial_type":"image-slider-response","trial_index":108,"time_elapsed":413361,"internal_node_id":"0.0-3.0-0.105","subject_id":"5eb9c778d06cf60ef8ed5a7b","study_id":"605e2a800ccfa0c8e820d869","session_id":"606213a3aba8bfdc3a635a89"},{"rt":2423.2199999969453,"stimulus":"img/00101.png","slider_start":4,"response":3,"trial_type":"image-slider-response","trial_index":109,"time_elapsed":415785,"internal_node_id":"0.0-3.0-0.106","subject_id":"5eb9c778d06cf60ef8ed5a7b","study_id":"605e2a800ccfa0c8e820d869","session_id":"606213a3aba8bfdc3a635a89"},{"rt":3975.899999961257,"stimulus":"img/00848.png","slider_start":4,"response":6,"trial_type":"image-slider-response","trial_index":110,"time_elapsed":419762,"internal_node_id":"0.0-3.0-0.107","subject_id":"5eb9c778d06cf60ef8ed5a7b","study_id":"605e2a800ccfa0c8e820d869","session_id":"606213a3aba8bfdc3a635a89"},{"rt":2734.8699999856763,"stimulus":"img/00809.png","slider_start":4,"response":5,"trial_type":"image-slider-response","trial_index":111,"time_elapsed":422498,"internal_node_id":"0.0-3.0-0.108","subject_id":"5eb9c778d06cf60ef8ed5a7b","study_id":"605e2a800ccfa0c8e820d869","session_id":"606213a3aba8bfdc3a635a89"},{"rt":4388.075000024401,"stimulus":"img/00018.png","slider_start":4,"response":5,"trial_type":"image-slider-response","trial_index":112,"time_elapsed":426888,"internal_node_id":"0.0-3.0-0.109","subject_id":"5eb9c778d06cf60ef8ed5a7b","study_id":"605e2a800ccfa0c8e820d869","session_id":"606213a3aba8bfdc3a635a89"},{"rt":2598.649999999907,"stimulus":"img/00406.png","slider_start":4,"response":4,"trial_type":"image-slider-response","trial_index":113,"time_elapsed":429488,"internal_node_id":"0.0-3.0-0.110","subject_id":"5eb9c778d06cf60ef8ed5a7b","study_id":"605e2a800ccfa0c8e820d869","session_id":"606213a3aba8bfdc3a635a89"},{"rt":1875.8899999666028,"stimulus":"img/00415.png","slider_start":4,"response":5,"trial_type":"image-slider-response","trial_index":114,"time_elapsed":431365,"internal_node_id":"0.0-3.0-0.111","subject_id":"5eb9c778d06cf60ef8ed5a7b","study_id":"605e2a800ccfa0c8e820d869","session_id":"606213a3aba8bfdc3a635a89"},{"rt":2070.000000006985,"stimulus":"img/00045.png","slider_start":4,"response":4,"trial_type":"image-slider-response","trial_index":115,"time_elapsed":433436,"internal_node_id":"0.0-3.0-0.112","subject_id":"5eb9c778d06cf60ef8ed5a7b","study_id":"605e2a800ccfa0c8e820d869","session_id":"606213a3aba8bfdc3a635a89"},{"rt":1961.8999999947846,"stimulus":"img/00986.png","slider_start":4,"response":4,"trial_type":"image-slider-response","trial_index":116,"time_elapsed":435400,"internal_node_id":"0.0-3.0-0.113","subject_id":"5eb9c778d06cf60ef8ed5a7b","study_id":"605e2a800ccfa0c8e820d869","session_id":"606213a3aba8bfdc3a635a89"},{"rt":5578.349999967031,"stimulus":"img/00127.png","slider_start":4,"response":4,"trial_type":"image-slider-response","trial_index":117,"time_elapsed":440980,"internal_node_id":"0.0-3.0-0.114","subject_id":"5eb9c778d06cf60ef8ed5a7b","study_id":"605e2a800ccfa0c8e820d869","session_id":"606213a3aba8bfdc3a635a89"},{"rt":2375.6899999571033,"stimulus":"img/00991.png","slider_start":4,"response":4,"trial_type":"image-slider-response","trial_index":118,"time_elapsed":443357,"internal_node_id":"0.0-3.0-0.115","subject_id":"5eb9c778d06cf60ef8ed5a7b","study_id":"605e2a800ccfa0c8e820d869","session_id":"606213a3aba8bfdc3a635a89"},{"rt":3462.050000031013,"stimulus":"img/00023.png","slider_start":4,"response":5,"trial_type":"image-slider-response","trial_index":119,"time_elapsed":446820,"internal_node_id":"0.0-3.0-0.116","subject_id":"5eb9c778d06cf60ef8ed5a7b","study_id":"605e2a800ccfa0c8e820d869","session_id":"606213a3aba8bfdc3a635a89"},{"rt":4036.2049999530427,"stimulus":"img/00041.png","slider_start":4,"response":6,"trial_type":"image-slider-response","trial_index":120,"time_elapsed":450857,"internal_node_id":"0.0-3.0-0.117","subject_id":"5eb9c778d06cf60ef8ed5a7b","study_id":"605e2a800ccfa0c8e820d869","session_id":"606213a3aba8bfdc3a635a89"},{"rt":8168.18500001682,"stimulus":"img/00825.png","slider_start":4,"response":6,"trial_type":"image-slider-response","trial_index":121,"time_elapsed":459027,"internal_node_id":"0.0-3.0-0.118","subject_id":"5eb9c778d06cf60ef8ed5a7b","study_id":"605e2a800ccfa0c8e820d869","session_id":"606213a3aba8bfdc3a635a89"},{"rt":3045.8449999568984,"stimulus":"img/00631.png","slider_start":4,"response":5,"trial_type":"image-slider-response","trial_index":122,"time_elapsed":462074,"internal_node_id":"0.0-3.0-0.119","subject_id":"5eb9c778d06cf60ef8ed5a7b","study_id":"605e2a800ccfa0c8e820d869","session_id":"606213a3aba8bfdc3a635a89"},{"rt":230.60499998973683,"stimulus":"img/00600.png","slider_start":4,"response":4,"trial_type":"image-slider-response","trial_index":123,"time_elapsed":462307,"internal_node_id":"0.0-3.0-0.120","subject_id":"5eb9c778d06cf60ef8ed5a7b","study_id":"605e2a800ccfa0c8e820d869","session_id":"606213a3aba8bfdc3a635a89"},{"rt":7153.0149999889545,"stimulus":"img/00930.png","slider_start":4,"response":5,"trial_type":"image-slider-response","trial_index":124,"time_elapsed":469461,"internal_node_id":"0.0-3.0-0.121","subject_id":"5eb9c778d06cf60ef8ed5a7b","study_id":"605e2a800ccfa0c8e820d869","session_id":"606213a3aba8bfdc3a635a89"},{"rt":3391.79999998305,"stimulus":"img/00973.png","slider_start":4,"response":5,"trial_type":"image-slider-response","trial_index":125,"time_elapsed":472854,"internal_node_id":"0.0-3.0-0.122","subject_id":"5eb9c778d06cf60ef8ed5a7b","study_id":"605e2a800ccfa0c8e820d869","session_id":"606213a3aba8bfdc3a635a89"},{"rt":1769.975000002887,"stimulus":"img/00042.png","slider_start":4,"response":5,"trial_type":"image-slider-response","trial_index":126,"time_elapsed":474626,"internal_node_id":"0.0-3.0-0.123","subject_id":"5eb9c778d06cf60ef8ed5a7b","study_id":"605e2a800ccfa0c8e820d869","session_id":"606213a3aba8bfdc3a635a89"},{"rt":2399.784999957774,"stimulus":"img/00594.png","slider_start":4,"response":5,"trial_type":"image-slider-response","trial_index":127,"time_elapsed":477027,"internal_node_id":"0.0-3.0-0.124","subject_id":"5eb9c778d06cf60ef8ed5a7b","study_id":"605e2a800ccfa0c8e820d869","session_id":"606213a3aba8bfdc3a635a89"},{"rt":1880.925000004936,"stimulus":"img/00554.png","slider_start":4,"response":4,"trial_type":"image-slider-response","trial_index":128,"time_elapsed":478909,"internal_node_id":"0.0-3.0-0.125","subject_id":"5eb9c778d06cf60ef8ed5a7b","study_id":"605e2a800ccfa0c8e820d869","session_id":"606213a3aba8bfdc3a635a89"},{"rt":3048.04999998305,"stimulus":"img/00511.png","slider_start":4,"response":4,"trial_type":"image-slider-response","trial_index":129,"time_elapsed":481958,"internal_node_id":"0.0-3.0-0.126","subject_id":"5eb9c778d06cf60ef8ed5a7b","study_id":"605e2a800ccfa0c8e820d869","session_id":"606213a3aba8bfdc3a635a89"},{"rt":3503.8849999546073,"stimulus":"img/00951.png","slider_start":4,"response":5,"trial_type":"image-slider-response","trial_index":130,"time_elapsed":485463,"internal_node_id":"0.0-3.0-0.127","subject_id":"5eb9c778d06cf60ef8ed5a7b","study_id":"605e2a800ccfa0c8e820d869","session_id":"606213a3aba8bfdc3a635a89"},{"rt":3691.7649999959394,"stimulus":"img/00499.png","slider_start":4,"response":3,"trial_type":"image-slider-response","trial_index":131,"time_elapsed":489157,"internal_node_id":"0.0-3.0-0.128","subject_id":"5eb9c778d06cf60ef8ed5a7b","study_id":"605e2a800ccfa0c8e820d869","session_id":"606213a3aba8bfdc3a635a89"},{"rt":7734.4649999868125,"stimulus":"img/00037.png","slider_start":4,"response":6,"trial_type":"image-slider-response","trial_index":132,"time_elapsed":496893,"internal_node_id":"0.0-3.0-0.129","subject_id":"5eb9c778d06cf60ef8ed5a7b","study_id":"605e2a800ccfa0c8e820d869","session_id":"606213a3aba8bfdc3a635a89"},{"rt":11218.444999947678,"stimulus":"img/00785.png","slider_start":4,"response":5,"trial_type":"image-slider-response","trial_index":133,"time_elapsed":508112,"internal_node_id":"0.0-3.0-0.130","subject_id":"5eb9c778d06cf60ef8ed5a7b","study_id":"605e2a800ccfa0c8e820d869","session_id":"606213a3aba8bfdc3a635a89"},{"rt":2261.774999962654,"stimulus":"img/00466.png","slider_start":4,"response":3,"trial_type":"image-slider-response","trial_index":134,"time_elapsed":510376,"internal_node_id":"0.0-3.0-0.131","subject_id":"5eb9c778d06cf60ef8ed5a7b","study_id":"605e2a800ccfa0c8e820d869","session_id":"606213a3aba8bfdc3a635a89"},{"rt":2639.950000040699,"stimulus":"img/00879.png","slider_start":4,"response":5,"trial_type":"image-slider-response","trial_index":135,"time_elapsed":513017,"internal_node_id":"0.0-3.0-0.132","subject_id":"5eb9c778d06cf60ef8ed5a7b","study_id":"605e2a800ccfa0c8e820d869","session_id":"606213a3aba8bfdc3a635a89"},{"rt":6770.3399999882095,"stimulus":"img/00437.png","slider_start":4,"response":6,"trial_type":"image-slider-response","trial_index":136,"time_elapsed":519788,"internal_node_id":"0.0-3.0-0.133","subject_id":"5eb9c778d06cf60ef8ed5a7b","study_id":"605e2a800ccfa0c8e820d869","session_id":"606213a3aba8bfdc3a635a89"},{"rt":6217.085000011139,"stimulus":"img/00841.png","slider_start":4,"response":7,"trial_type":"image-slider-response","trial_index":137,"time_elapsed":526007,"internal_node_id":"0.0-3.0-0.134","subject_id":"5eb9c778d06cf60ef8ed5a7b","study_id":"605e2a800ccfa0c8e820d869","session_id":"606213a3aba8bfdc3a635a89"},{"rt":2065.684999979567,"stimulus":"img/00949.png","slider_start":4,"response":5,"trial_type":"image-slider-response","trial_index":138,"time_elapsed":528074,"internal_node_id":"0.0-3.0-0.135","subject_id":"5eb9c778d06cf60ef8ed5a7b","study_id":"605e2a800ccfa0c8e820d869","session_id":"606213a3aba8bfdc3a635a89"},{"rt":1597.8500000201166,"stimulus":"img/00447.png","slider_start":4,"response":4,"trial_type":"image-slider-response","trial_index":139,"time_elapsed":529673,"internal_node_id":"0.0-3.0-0.136","subject_id":"5eb9c778d06cf60ef8ed5a7b","study_id":"605e2a800ccfa0c8e820d869","session_id":"606213a3aba8bfdc3a635a89"},{"rt":2744.0199999837205,"stimulus":"img/00989.png","slider_start":4,"response":3,"trial_type":"image-slider-response","trial_index":140,"time_elapsed":532419,"internal_node_id":"0.0-3.0-0.137","subject_id":"5eb9c778d06cf60ef8ed5a7b","study_id":"605e2a800ccfa0c8e820d869","session_id":"606213a3aba8bfdc3a635a89"},{"rt":2528.9800000027753,"stimulus":"img/00747.png","slider_start":4,"response":5,"trial_type":"image-slider-response","trial_index":141,"time_elapsed":534949,"internal_node_id":"0.0-3.0-0.138","subject_id":"5eb9c778d06cf60ef8ed5a7b","study_id":"605e2a800ccfa0c8e820d869","session_id":"606213a3aba8bfdc3a635a89"},{"rt":2838.530000008177,"stimulus":"img/00114.png","slider_start":4,"response":3,"trial_type":"image-slider-response","trial_index":142,"time_elapsed":537789,"internal_node_id":"0.0-3.0-0.139","subject_id":"5eb9c778d06cf60ef8ed5a7b","study_id":"605e2a800ccfa0c8e820d869","session_id":"606213a3aba8bfdc3a635a89"},{"rt":1867.6349999732338,"stimulus":"img/00496.png","slider_start":4,"response":3,"trial_type":"image-slider-response","trial_index":143,"time_elapsed":539658,"internal_node_id":"0.0-3.0-0.140","subject_id":"5eb9c778d06cf60ef8ed5a7b","study_id":"605e2a800ccfa0c8e820d869","session_id":"606213a3aba8bfdc3a635a89"},{"rt":5771.475000015926,"stimulus":"img/00967.png","slider_start":4,"response":2,"trial_type":"image-slider-response","trial_index":144,"time_elapsed":545431,"internal_node_id":"0.0-3.0-0.141","subject_id":"5eb9c778d06cf60ef8ed5a7b","study_id":"605e2a800ccfa0c8e820d869","session_id":"606213a3aba8bfdc3a635a89"},{"rt":3198.7349999835715,"stimulus":"img/00755.png","slider_start":4,"response":4,"trial_type":"image-slider-response","trial_index":145,"time_elapsed":548631,"internal_node_id":"0.0-3.0-0.142","subject_id":"5eb9c778d06cf60ef8ed5a7b","study_id":"605e2a800ccfa0c8e820d869","session_id":"606213a3aba8bfdc3a635a89"},{"rt":2347.010000026785,"stimulus":"img/00799.png","slider_start":4,"response":4,"trial_type":"image-slider-response","trial_index":146,"time_elapsed":550979,"internal_node_id":"0.0-3.0-0.143","subject_id":"5eb9c778d06cf60ef8ed5a7b","study_id":"605e2a800ccfa0c8e820d869","session_id":"606213a3aba8bfdc3a635a89"},{"rt":2627.909999981057,"stimulus":"img/00587.png","slider_start":4,"response":7,"trial_type":"image-slider-response","trial_index":147,"time_elapsed":553608,"internal_node_id":"0.0-3.0-0.144","subject_id":"5eb9c778d06cf60ef8ed5a7b","study_id":"605e2a800ccfa0c8e820d869","session_id":"606213a3aba8bfdc3a635a89"},{"rt":2967.8299999795854,"stimulus":"img/00686.png","slider_start":4,"response":5,"trial_type":"image-slider-response","trial_index":148,"time_elapsed":556578,"internal_node_id":"0.0-3.0-0.145","subject_id":"5eb9c778d06cf60ef8ed5a7b","study_id":"605e2a800ccfa0c8e820d869","session_id":"606213a3aba8bfdc3a635a89"},{"rt":2576.8199999583885,"stimulus":"img/00503.png","slider_start":4,"response":5,"trial_type":"image-slider-response","trial_index":149,"time_elapsed":559156,"internal_node_id":"0.0-3.0-0.146","subject_id":"5eb9c778d06cf60ef8ed5a7b","study_id":"605e2a800ccfa0c8e820d869","session_id":"606213a3aba8bfdc3a635a89"},{"rt":2728.8649999536574,"stimulus":"img/00760.png","slider_start":4,"response":4,"trial_type":"image-slider-response","trial_index":150,"time_elapsed":561886,"internal_node_id":"0.0-3.0-0.147","subject_id":"5eb9c778d06cf60ef8ed5a7b","study_id":"605e2a800ccfa0c8e820d869","session_id":"606213a3aba8bfdc3a635a89"},{"rt":2606.0700000380166,"stimulus":"img/00564.png","slider_start":4,"response":5,"trial_type":"image-slider-response","trial_index":151,"time_elapsed":564494,"internal_node_id":"0.0-3.0-0.148","subject_id":"5eb9c778d06cf60ef8ed5a7b","study_id":"605e2a800ccfa0c8e820d869","session_id":"606213a3aba8bfdc3a635a89"},{"rt":2761.739999987185,"stimulus":"img/00653.png","slider_start":4,"response":5,"trial_type":"image-slider-response","trial_index":152,"time_elapsed":567257,"internal_node_id":"0.0-3.0-0.149","subject_id":"5eb9c778d06cf60ef8ed5a7b","study_id":"605e2a800ccfa0c8e820d869","session_id":"606213a3aba8bfdc3a635a89"},{"rt":4876.144999987446,"stimulus":"img/00742.png","slider_start":4,"response":6,"trial_type":"image-slider-response","trial_index":153,"time_elapsed":572134,"internal_node_id":"0.0-3.0-0.150","subject_id":"5eb9c778d06cf60ef8ed5a7b","study_id":"605e2a800ccfa0c8e820d869","session_id":"606213a3aba8bfdc3a635a89"},{"rt":4385.93500002753,"stimulus":"img/00064.png","slider_start":4,"response":6,"trial_type":"image-slider-response","trial_index":154,"time_elapsed":576522,"internal_node_id":"0.0-3.0-0.151","subject_id":"5eb9c778d06cf60ef8ed5a7b","study_id":"605e2a800ccfa0c8e820d869","session_id":"606213a3aba8bfdc3a635a89"},{"rt":1913.7249999912456,"stimulus":"img/00612.png","slider_start":4,"response":4,"trial_type":"image-slider-response","trial_index":155,"time_elapsed":578437,"internal_node_id":"0.0-3.0-0.152","subject_id":"5eb9c778d06cf60ef8ed5a7b","study_id":"605e2a800ccfa0c8e820d869","session_id":"606213a3aba8bfdc3a635a89"},{"rt":3084.930000011809,"stimulus":"img/00029.png","slider_start":4,"response":3,"trial_type":"image-slider-response","trial_index":156,"time_elapsed":581523,"internal_node_id":"0.0-3.0-0.153","subject_id":"5eb9c778d06cf60ef8ed5a7b","study_id":"605e2a800ccfa0c8e820d869","session_id":"606213a3aba8bfdc3a635a89"},{"rt":2080.774999980349,"stimulus":"img/00581.png","slider_start":4,"response":3,"trial_type":"image-slider-response","trial_index":157,"time_elapsed":583605,"internal_node_id":"0.0-3.0-0.154","subject_id":"5eb9c778d06cf60ef8ed5a7b","study_id":"605e2a800ccfa0c8e820d869","session_id":"606213a3aba8bfdc3a635a89"},{"rt":2757.849999994505,"stimulus":"img/00957.png","slider_start":4,"response":3,"trial_type":"image-slider-response","trial_index":158,"time_elapsed":586364,"internal_node_id":"0.0-3.0-0.155","subject_id":"5eb9c778d06cf60ef8ed5a7b","study_id":"605e2a800ccfa0c8e820d869","session_id":"606213a3aba8bfdc3a635a89"},{"rt":3027.1800000336953,"stimulus":"img/00522.png","slider_start":4,"response":7,"trial_type":"image-slider-response","trial_index":159,"time_elapsed":589393,"internal_node_id":"0.0-3.0-0.156","subject_id":"5eb9c778d06cf60ef8ed5a7b","study_id":"605e2a800ccfa0c8e820d869","session_id":"606213a3aba8bfdc3a635a89"},{"rt":2302.6300000492483,"stimulus":"img/00440.png","slider_start":4,"response":4,"trial_type":"image-slider-response","trial_index":160,"time_elapsed":591697,"internal_node_id":"0.0-3.0-0.157","subject_id":"5eb9c778d06cf60ef8ed5a7b","study_id":"605e2a800ccfa0c8e820d869","session_id":"606213a3aba8bfdc3a635a89"},{"rt":3197.359999991022,"stimulus":"img/00691.png","slider_start":4,"response":6,"trial_type":"image-slider-response","trial_index":161,"time_elapsed":594895,"internal_node_id":"0.0-3.0-0.158","subject_id":"5eb9c778d06cf60ef8ed5a7b","study_id":"605e2a800ccfa0c8e820d869","session_id":"606213a3aba8bfdc3a635a89"},{"rt":1858.8250000029802,"stimulus":"img/00077.png","slider_start":4,"response":6,"trial_type":"image-slider-response","trial_index":162,"time_elapsed":596755,"internal_node_id":"0.0-3.0-0.159","subject_id":"5eb9c778d06cf60ef8ed5a7b","study_id":"605e2a800ccfa0c8e820d869","session_id":"606213a3aba8bfdc3a635a89"},{"rt":9135.609999997541,"stimulus":"img/00867.png","slider_start":4,"response":5,"trial_type":"image-slider-response","trial_index":163,"time_elapsed":605892,"internal_node_id":"0.0-3.0-0.160","subject_id":"5eb9c778d06cf60ef8ed5a7b","study_id":"605e2a800ccfa0c8e820d869","session_id":"606213a3aba8bfdc3a635a89"},{"rt":1970.6699999514967,"stimulus":"img/00401.png","slider_start":4,"response":3,"trial_type":"image-slider-response","trial_index":164,"time_elapsed":607864,"internal_node_id":"0.0-3.0-0.161","subject_id":"5eb9c778d06cf60ef8ed5a7b","study_id":"605e2a800ccfa0c8e820d869","session_id":"606213a3aba8bfdc3a635a89"},{"rt":2615.9800000023097,"stimulus":"img/00015.png","slider_start":4,"response":6,"trial_type":"image-slider-response","trial_index":165,"time_elapsed":610482,"internal_node_id":"0.0-3.0-0.162","subject_id":"5eb9c778d06cf60ef8ed5a7b","study_id":"605e2a800ccfa0c8e820d869","session_id":"606213a3aba8bfdc3a635a89"},{"rt":3003.6899999831803,"stimulus":"img/00464.png","slider_start":4,"response":3,"trial_type":"image-slider-response","trial_index":166,"time_elapsed":613487,"internal_node_id":"0.0-3.0-0.163","subject_id":"5eb9c778d06cf60ef8ed5a7b","study_id":"605e2a800ccfa0c8e820d869","session_id":"606213a3aba8bfdc3a635a89"},{"rt":2228.0599999940023,"stimulus":"img/00011.png","slider_start":4,"response":3,"trial_type":"image-slider-response","trial_index":167,"time_elapsed":615716,"internal_node_id":"0.0-3.0-0.164","subject_id":"5eb9c778d06cf60ef8ed5a7b","study_id":"605e2a800ccfa0c8e820d869","session_id":"606213a3aba8bfdc3a635a89"},{"rt":4436.8499999982305,"stimulus":"img/00481.png","slider_start":4,"response":5,"trial_type":"image-slider-response","trial_index":168,"time_elapsed":620154,"internal_node_id":"0.0-3.0-0.165","subject_id":"5eb9c778d06cf60ef8ed5a7b","study_id":"605e2a800ccfa0c8e820d869","session_id":"606213a3aba8bfdc3a635a89"},{"rt":2012.7250000368804,"stimulus":"img/00759.png","slider_start":4,"response":3,"trial_type":"image-slider-response","trial_index":169,"time_elapsed":622169,"internal_node_id":"0.0-3.0-0.166","subject_id":"5eb9c778d06cf60ef8ed5a7b","study_id":"605e2a800ccfa0c8e820d869","session_id":"606213a3aba8bfdc3a635a89"},{"rt":3997.114999976475,"stimulus":"img/00563.png","slider_start":4,"response":3,"trial_type":"image-slider-response","trial_index":170,"time_elapsed":626167,"internal_node_id":"0.0-3.0-0.167","subject_id":"5eb9c778d06cf60ef8ed5a7b","study_id":"605e2a800ccfa0c8e820d869","session_id":"606213a3aba8bfdc3a635a89"},{"rt":4214.005000016186,"stimulus":"img/00100.png","slider_start":4,"response":3,"trial_type":"image-slider-response","trial_index":171,"time_elapsed":630382,"internal_node_id":"0.0-3.0-0.168","subject_id":"5eb9c778d06cf60ef8ed5a7b","study_id":"605e2a800ccfa0c8e820d869","session_id":"606213a3aba8bfdc3a635a89"},{"rt":2156.4999999827705,"stimulus":"img/00926.png","slider_start":4,"response":3,"trial_type":"image-slider-response","trial_index":172,"time_elapsed":632540,"internal_node_id":"0.0-3.0-0.169","subject_id":"5eb9c778d06cf60ef8ed5a7b","study_id":"605e2a800ccfa0c8e820d869","session_id":"606213a3aba8bfdc3a635a89"},{"rt":2272.9899999685585,"stimulus":"img/00543.png","slider_start":4,"response":4,"trial_type":"image-slider-response","trial_index":173,"time_elapsed":634815,"internal_node_id":"0.0-3.0-0.170","subject_id":"5eb9c778d06cf60ef8ed5a7b","study_id":"605e2a800ccfa0c8e820d869","session_id":"606213a3aba8bfdc3a635a89"},{"rt":3118.12999995891,"stimulus":"img/00130.png","slider_start":4,"response":5,"trial_type":"image-slider-response","trial_index":174,"time_elapsed":637934,"internal_node_id":"0.0-3.0-0.171","subject_id":"5eb9c778d06cf60ef8ed5a7b","study_id":"605e2a800ccfa0c8e820d869","session_id":"606213a3aba8bfdc3a635a89"}]