[{"rt":3399.3199999968056,"stimulus":"Welcome to the experiment. Press any key to begin.","response":" ","trial_type":"html-keyboard-response","trial_index":0,"time_elapsed":3400,"internal_node_id":"0.0-0.0","subject_id":"605228ce5565f0f757000f1f","study_id":"605e2a800ccfa0c8e820d869","session_id":"60622097c46f9e12d9f06942"},{"rt":3153.5250000015367,"stimulus":"\n        <p>In this experiment, a face will appear on-screen.</p><p> <strong>Rate the face on a 1 - 7 scale based on how attractive he / she is.</strong> </p>\n        </div>\n        <p>Press any key to begin.</p>\n      ","response":" ","trial_type":"html-keyboard-response","trial_index":1,"time_elapsed":6554,"internal_node_id":"0.0-1.0","subject_id":"605228ce5565f0f757000f1f","study_id":"605e2a800ccfa0c8e820d869","session_id":"60622097c46f9e12d9f06942"},{"success":true,"timeout":false,"failed_images":[],"failed_audio":[],"failed_video":[],"trial_type":"preload","trial_index":2,"time_elapsed":53250,"internal_node_id":"0.0-2.0","subject_id":"605228ce5565f0f757000f1f","study_id":"605e2a800ccfa0c8e820d869","session_id":"60622097c46f9e12d9f06942"},{"rt":8552.8900000063,"stimulus":"img/00759.png","slider_start":4,"response":3,"trial_type":"image-slider-response","trial_index":3,"time_elapsed":61812,"internal_node_id":"0.0-3.0-0.0","subject_id":"605228ce5565f0f757000f1f","study_id":"605e2a800ccfa0c8e820d869","session_id":"60622097c46f9e12d9f06942"},{"rt":5334.855000008247,"stimulus":"img/00867.png","slider_start":4,"response":4,"trial_type":"image-slider-response","trial_index":4,"time_elapsed":67148,"internal_node_id":"0.0-3.0-0.1","subject_id":"605228ce5565f0f757000f1f","study_id":"605e2a800ccfa0c8e820d869","session_id":"60622097c46f9e12d9f06942"},{"rt":4219.685000003665,"stimulus":"img/00903.png","slider_start":4,"response":2,"trial_type":"image-slider-response","trial_index":5,"time_elapsed":71369,"internal_node_id":"0.0-3.0-0.2","subject_id":"605228ce5565f0f757000f1f","study_id":"605e2a800ccfa0c8e820d869","session_id":"60622097c46f9e12d9f06942"},{"rt":2472.9450000013458,"stimulus":"img/00559.png","slider_start":4,"response":3,"trial_type":"image-slider-response","trial_index":6,"time_elapsed":73843,"internal_node_id":"0.0-3.0-0.3","subject_id":"605228ce5565f0f757000f1f","study_id":"605e2a800ccfa0c8e820d869","session_id":"60622097c46f9e12d9f06942"},{"rt":2126.350000005914,"stimulus":"img/00780.png","slider_start":4,"response":4,"trial_type":"image-slider-response","trial_index":7,"time_elapsed":75970,"internal_node_id":"0.0-3.0-0.4","subject_id":"605228ce5565f0f757000f1f","study_id":"605e2a800ccfa0c8e820d869","session_id":"60622097c46f9e12d9f06942"},{"rt":3021.6100000106962,"stimulus":"img/00415.png","slider_start":4,"response":3,"trial_type":"image-slider-response","trial_index":8,"time_elapsed":78993,"internal_node_id":"0.0-3.0-0.5","subject_id":"605228ce5565f0f757000f1f","study_id":"605e2a800ccfa0c8e820d869","session_id":"60622097c46f9e12d9f06942"},{"rt":3976.02500001085,"stimulus":"img/00631.png","slider_start":4,"response":4,"trial_type":"image-slider-response","trial_index":9,"time_elapsed":82970,"internal_node_id":"0.0-3.0-0.6","subject_id":"605228ce5565f0f757000f1f","study_id":"605e2a800ccfa0c8e820d869","session_id":"60622097c46f9e12d9f06942"},{"rt":11144.039999999222,"stimulus":"img/00045.png","slider_start":4,"response":3,"trial_type":"image-slider-response","trial_index":10,"time_elapsed":94115,"internal_node_id":"0.0-3.0-0.7","subject_id":"605228ce5565f0f757000f1f","study_id":"605e2a800ccfa0c8e820d869","session_id":"60622097c46f9e12d9f06942"},{"rt":4457.4699999939185,"stimulus":"img/00722.png","slider_start":4,"response":4,"trial_type":"image-slider-response","trial_index":11,"time_elapsed":98573,"internal_node_id":"0.0-3.0-0.8","subject_id":"605228ce5565f0f757000f1f","study_id":"605e2a800ccfa0c8e820d869","session_id":"60622097c46f9e12d9f06942"},{"rt":4909.205000003567,"stimulus":"img/00690.png","slider_start":4,"response":4,"trial_type":"image-slider-response","trial_index":12,"time_elapsed":103484,"internal_node_id":"0.0-3.0-0.9","subject_id":"605228ce5565f0f757000f1f","study_id":"605e2a800ccfa0c8e820d869","session_id":"60622097c46f9e12d9f06942"},{"rt":1798.4599999908824,"stimulus":"img/00570.png","slider_start":4,"response":4,"trial_type":"image-slider-response","trial_index":13,"time_elapsed":105284,"internal_node_id":"0.0-3.0-0.10","subject_id":"605228ce5565f0f757000f1f","study_id":"605e2a800ccfa0c8e820d869","session_id":"60622097c46f9e12d9f06942"},{"rt":2217.819999990752,"stimulus":"img/00718.png","slider_start":4,"response":4,"trial_type":"image-slider-response","trial_index":14,"time_elapsed":107503,"internal_node_id":"0.0-3.0-0.11","subject_id":"605228ce5565f0f757000f1f","study_id":"605e2a800ccfa0c8e820d869","session_id":"60622097c46f9e12d9f06942"},{"rt":2557.0849999930942,"stimulus":"img/00689.png","slider_start":4,"response":5,"trial_type":"image-slider-response","trial_index":15,"time_elapsed":110060,"internal_node_id":"0.0-3.0-0.12","subject_id":"605228ce5565f0f757000f1f","study_id":"605e2a800ccfa0c8e820d869","session_id":"60622097c46f9e12d9f06942"},{"rt":2987.8000000026077,"stimulus":"img/00878.png","slider_start":4,"response":3,"trial_type":"image-slider-response","trial_index":16,"time_elapsed":113049,"internal_node_id":"0.0-3.0-0.13","subject_id":"605228ce5565f0f757000f1f","study_id":"605e2a800ccfa0c8e820d869","session_id":"60622097c46f9e12d9f06942"},{"rt":4978.514999995241,"stimulus":"img/00797.png","slider_start":4,"response":4,"trial_type":"image-slider-response","trial_index":17,"time_elapsed":118029,"internal_node_id":"0.0-3.0-0.14","subject_id":"605228ce5565f0f757000f1f","study_id":"605e2a800ccfa0c8e820d869","session_id":"60622097c46f9e12d9f06942"},{"rt":2032.2750000050291,"stimulus":"img/00064.png","slider_start":4,"response":4,"trial_type":"image-slider-response","trial_index":18,"time_elapsed":120062,"internal_node_id":"0.0-3.0-0.15","subject_id":"605228ce5565f0f757000f1f","study_id":"605e2a800ccfa0c8e820d869","session_id":"60622097c46f9e12d9f06942"},{"rt":2206.4399999944726,"stimulus":"img/00773.png","slider_start":4,"response":3,"trial_type":"image-slider-response","trial_index":19,"time_elapsed":122269,"internal_node_id":"0.0-3.0-0.16","subject_id":"605228ce5565f0f757000f1f","study_id":"605e2a800ccfa0c8e820d869","session_id":"60622097c46f9e12d9f06942"},{"rt":2355.8349999948405,"stimulus":"img/00483.png","slider_start":4,"response":3,"trial_type":"image-slider-response","trial_index":20,"time_elapsed":124626,"internal_node_id":"0.0-3.0-0.17","subject_id":"605228ce5565f0f757000f1f","study_id":"605e2a800ccfa0c8e820d869","session_id":"60622097c46f9e12d9f06942"},{"rt":7718.204999997397,"stimulus":"img/00957.png","slider_start":4,"response":3,"trial_type":"image-slider-response","trial_index":21,"time_elapsed":132345,"internal_node_id":"0.0-3.0-0.18","subject_id":"605228ce5565f0f757000f1f","study_id":"605e2a800ccfa0c8e820d869","session_id":"60622097c46f9e12d9f06942"},{"rt":2574.0850000001956,"stimulus":"img/00860.png","slider_start":4,"response":3,"trial_type":"image-slider-response","trial_index":22,"time_elapsed":134921,"internal_node_id":"0.0-3.0-0.19","subject_id":"605228ce5565f0f757000f1f","study_id":"605e2a800ccfa0c8e820d869","session_id":"60622097c46f9e12d9f06942"},{"rt":1687.129999991157,"stimulus":"img/00809.png","slider_start":4,"response":4,"trial_type":"image-slider-response","trial_index":23,"time_elapsed":136609,"internal_node_id":"0.0-3.0-0.20","subject_id":"605228ce5565f0f757000f1f","study_id":"605e2a800ccfa0c8e820d869","session_id":"60622097c46f9e12d9f06942"},{"rt":1135.7149999967078,"stimulus":"img/00693.png","slider_start":4,"response":4,"trial_type":"image-slider-response","trial_index":24,"time_elapsed":137745,"internal_node_id":"0.0-3.0-0.21","subject_id":"605228ce5565f0f757000f1f","study_id":"605e2a800ccfa0c8e820d869","session_id":"60622097c46f9e12d9f06942"},{"rt":2068.680000011227,"stimulus":"img/00686.png","slider_start":4,"response":5,"trial_type":"image-slider-response","trial_index":25,"time_elapsed":139815,"internal_node_id":"0.0-3.0-0.22","subject_id":"605228ce5565f0f757000f1f","study_id":"605e2a800ccfa0c8e820d869","session_id":"60622097c46f9e12d9f06942"},{"rt":3046.5799999947194,"stimulus":"img/00623.png","slider_start":4,"response":5,"trial_type":"image-slider-response","trial_index":26,"time_elapsed":142862,"internal_node_id":"0.0-3.0-0.23","subject_id":"605228ce5565f0f757000f1f","study_id":"605e2a800ccfa0c8e820d869","session_id":"60622097c46f9e12d9f06942"},{"rt":1358.8349999918137,"stimulus":"img/00756.png","slider_start":4,"response":4,"trial_type":"image-slider-response","trial_index":27,"time_elapsed":144222,"internal_node_id":"0.0-3.0-0.24","subject_id":"605228ce5565f0f757000f1f","study_id":"605e2a800ccfa0c8e820d869","session_id":"60622097c46f9e12d9f06942"},{"rt":1890.1349999941885,"stimulus":"img/00817.png","slider_start":4,"response":4,"trial_type":"image-slider-response","trial_index":28,"time_elapsed":146113,"internal_node_id":"0.0-3.0-0.25","subject_id":"605228ce5565f0f757000f1f","study_id":"605e2a800ccfa0c8e820d869","session_id":"60622097c46f9e12d9f06942"},{"rt":6651.740000001155,"stimulus":"img/00489.png","slider_start":4,"response":4,"trial_type":"image-slider-response","trial_index":29,"time_elapsed":152766,"internal_node_id":"0.0-3.0-0.26","subject_id":"605228ce5565f0f757000f1f","study_id":"605e2a800ccfa0c8e820d869","session_id":"60622097c46f9e12d9f06942"},{"rt":2699.045000001206,"stimulus":"img/00618.png","slider_start":4,"response":6,"trial_type":"image-slider-response","trial_index":30,"time_elapsed":155466,"internal_node_id":"0.0-3.0-0.27","subject_id":"605228ce5565f0f757000f1f","study_id":"605e2a800ccfa0c8e820d869","session_id":"60622097c46f9e12d9f06942"},{"rt":1281.08999998949,"stimulus":"img/00563.png","slider_start":4,"response":4,"trial_type":"image-slider-response","trial_index":31,"time_elapsed":156748,"internal_node_id":"0.0-3.0-0.28","subject_id":"605228ce5565f0f757000f1f","study_id":"605e2a800ccfa0c8e820d869","session_id":"60622097c46f9e12d9f06942"},{"rt":1583.889999994426,"stimulus":"img/00093.png","slider_start":4,"response":4,"trial_type":"image-slider-response","trial_index":32,"time_elapsed":158333,"internal_node_id":"0.0-3.0-0.29","subject_id":"605228ce5565f0f757000f1f","study_id":"605e2a800ccfa0c8e820d869","session_id":"60622097c46f9e12d9f06942"},{"rt":2291.3149999949383,"stimulus":"img/00822.png","slider_start":4,"response":5,"trial_type":"image-slider-response","trial_index":33,"time_elapsed":160625,"internal_node_id":"0.0-3.0-0.30","subject_id":"605228ce5565f0f757000f1f","study_id":"605e2a800ccfa0c8e820d869","session_id":"60622097c46f9e12d9f06942"},{"rt":1211.974999998347,"stimulus":"img/00002.png","slider_start":4,"response":4,"trial_type":"image-slider-response","trial_index":34,"time_elapsed":161838,"internal_node_id":"0.0-3.0-0.31","subject_id":"605228ce5565f0f757000f1f","study_id":"605e2a800ccfa0c8e820d869","session_id":"60622097c46f9e12d9f06942"},{"rt":2443.90499999281,"stimulus":"img/00427.png","slider_start":4,"response":7,"trial_type":"image-slider-response","trial_index":35,"time_elapsed":164283,"internal_node_id":"0.0-3.0-0.32","subject_id":"605228ce5565f0f757000f1f","study_id":"605e2a800ccfa0c8e820d869","session_id":"60622097c46f9e12d9f06942"},{"rt":2335.639999990235,"stimulus":"img/00742.png","slider_start":4,"response":5,"trial_type":"image-slider-response","trial_index":36,"time_elapsed":166619,"internal_node_id":"0.0-3.0-0.33","subject_id":"605228ce5565f0f757000f1f","study_id":"605e2a800ccfa0c8e820d869","session_id":"60622097c46f9e12d9f06942"},{"rt":3703.575000006822,"stimulus":"img/00460.png","slider_start":4,"response":4,"trial_type":"image-slider-response","trial_index":37,"time_elapsed":170324,"internal_node_id":"0.0-3.0-0.34","subject_id":"605228ce5565f0f757000f1f","study_id":"605e2a800ccfa0c8e820d869","session_id":"60622097c46f9e12d9f06942"},{"rt":1941.529999996419,"stimulus":"img/00499.png","slider_start":4,"response":3,"trial_type":"image-slider-response","trial_index":38,"time_elapsed":172267,"internal_node_id":"0.0-3.0-0.35","subject_id":"605228ce5565f0f757000f1f","study_id":"605e2a800ccfa0c8e820d869","session_id":"60622097c46f9e12d9f06942"},{"rt":2094.394999992801,"stimulus":"img/00115.png","slider_start":4,"response":2,"trial_type":"image-slider-response","trial_index":39,"time_elapsed":174362,"internal_node_id":"0.0-3.0-0.36","subject_id":"605228ce5565f0f757000f1f","study_id":"605e2a800ccfa0c8e820d869","session_id":"60622097c46f9e12d9f06942"},{"rt":2128.244999999879,"stimulus":"img/00791.png","slider_start":4,"response":3,"trial_type":"image-slider-response","trial_index":40,"time_elapsed":176491,"internal_node_id":"0.0-3.0-0.37","subject_id":"605228ce5565f0f757000f1f","study_id":"605e2a800ccfa0c8e820d869","session_id":"60622097c46f9e12d9f06942"},{"rt":1387.3100000055274,"stimulus":"img/00752.png","slider_start":4,"response":4,"trial_type":"image-slider-response","trial_index":41,"time_elapsed":177879,"internal_node_id":"0.0-3.0-0.38","subject_id":"605228ce5565f0f757000f1f","study_id":"605e2a800ccfa0c8e820d869","session_id":"60622097c46f9e12d9f06942"},{"rt":2408.725000001141,"stimulus":"img/00543.png","slider_start":4,"response":2,"trial_type":"image-slider-response","trial_index":42,"time_elapsed":180288,"internal_node_id":"0.0-3.0-0.39","subject_id":"605228ce5565f0f757000f1f","study_id":"605e2a800ccfa0c8e820d869","session_id":"60622097c46f9e12d9f06942"},{"rt":3605.8350000093924,"stimulus":"img/00545.png","slider_start":4,"response":4,"trial_type":"image-slider-response","trial_index":43,"time_elapsed":183895,"internal_node_id":"0.0-3.0-0.40","subject_id":"605228ce5565f0f757000f1f","study_id":"605e2a800ccfa0c8e820d869","session_id":"60622097c46f9e12d9f06942"},{"rt":1464.1499999997905,"stimulus":"img/00854.png","slider_start":4,"response":4,"trial_type":"image-slider-response","trial_index":44,"time_elapsed":185360,"internal_node_id":"0.0-3.0-0.41","subject_id":"605228ce5565f0f757000f1f","study_id":"605e2a800ccfa0c8e820d869","session_id":"60622097c46f9e12d9f06942"},{"rt":1406.2899999989895,"stimulus":"img/00708.png","slider_start":4,"response":4,"trial_type":"image-slider-response","trial_index":45,"time_elapsed":186768,"internal_node_id":"0.0-3.0-0.42","subject_id":"605228ce5565f0f757000f1f","study_id":"605e2a800ccfa0c8e820d869","session_id":"60622097c46f9e12d9f06942"},{"rt":2679.32500000461,"stimulus":"img/00841.png","slider_start":4,"response":5,"trial_type":"image-slider-response","trial_index":46,"time_elapsed":189448,"internal_node_id":"0.0-3.0-0.43","subject_id":"605228ce5565f0f757000f1f","study_id":"605e2a800ccfa0c8e820d869","session_id":"60622097c46f9e12d9f06942"},{"rt":1334.275000001071,"stimulus":"img/00052.png","slider_start":4,"response":4,"trial_type":"image-slider-response","trial_index":47,"time_elapsed":190783,"internal_node_id":"0.0-3.0-0.44","subject_id":"605228ce5565f0f757000f1f","study_id":"605e2a800ccfa0c8e820d869","session_id":"60622097c46f9e12d9f06942"},{"rt":1840.9149999934016,"stimulus":"img/00078.png","slider_start":4,"response":3,"trial_type":"image-slider-response","trial_index":48,"time_elapsed":192625,"internal_node_id":"0.0-3.0-0.45","subject_id":"605228ce5565f0f757000f1f","study_id":"605e2a800ccfa0c8e820d869","session_id":"60622097c46f9e12d9f06942"},{"rt":2586.8349999946076,"stimulus":"img/00041.png","slider_start":4,"response":6,"trial_type":"image-slider-response","trial_index":49,"time_elapsed":195213,"internal_node_id":"0.0-3.0-0.46","subject_id":"605228ce5565f0f757000f1f","study_id":"605e2a800ccfa0c8e820d869","session_id":"60622097c46f9e12d9f06942"},{"rt":2369.89000000176,"stimulus":"img/00793.png","slider_start":4,"response":5,"trial_type":"image-slider-response","trial_index":50,"time_elapsed":197584,"internal_node_id":"0.0-3.0-0.47","subject_id":"605228ce5565f0f757000f1f","study_id":"605e2a800ccfa0c8e820d869","session_id":"60622097c46f9e12d9f06942"},{"rt":3742.9449999908684,"stimulus":"img/00801.png","slider_start":4,"response":3,"trial_type":"image-slider-response","trial_index":51,"time_elapsed":201328,"internal_node_id":"0.0-3.0-0.48","subject_id":"605228ce5565f0f757000f1f","study_id":"605e2a800ccfa0c8e820d869","session_id":"60622097c46f9e12d9f06942"},{"rt":3403.714999993099,"stimulus":"img/00015.png","slider_start":4,"response":2,"trial_type":"image-slider-response","trial_index":52,"time_elapsed":204732,"internal_node_id":"0.0-3.0-0.49","subject_id":"605228ce5565f0f757000f1f","study_id":"605e2a800ccfa0c8e820d869","session_id":"60622097c46f9e12d9f06942"},{"rt":2141.300000002957,"stimulus":"img/00761.png","slider_start":4,"response":3,"trial_type":"image-slider-response","trial_index":53,"time_elapsed":206875,"internal_node_id":"0.0-3.0-0.50","subject_id":"605228ce5565f0f757000f1f","study_id":"605e2a800ccfa0c8e820d869","session_id":"60622097c46f9e12d9f06942"},{"rt":3842.5500000012107,"stimulus":"img/00428.png","slider_start":4,"response":3,"trial_type":"image-slider-response","trial_index":54,"time_elapsed":210718,"internal_node_id":"0.0-3.0-0.51","subject_id":"605228ce5565f0f757000f1f","study_id":"605e2a800ccfa0c8e820d869","session_id":"60622097c46f9e12d9f06942"},{"rt":9320.514999999432,"stimulus":"img/00600.png","slider_start":4,"response":4,"trial_type":"image-slider-response","trial_index":55,"time_elapsed":220040,"internal_node_id":"0.0-3.0-0.52","subject_id":"605228ce5565f0f757000f1f","study_id":"605e2a800ccfa0c8e820d869","session_id":"60622097c46f9e12d9f06942"},{"rt":2360.7500000071013,"stimulus":"img/00048.png","slider_start":4,"response":3,"trial_type":"image-slider-response","trial_index":56,"time_elapsed":222402,"internal_node_id":"0.0-3.0-0.53","subject_id":"605228ce5565f0f757000f1f","study_id":"605e2a800ccfa0c8e820d869","session_id":"60622097c46f9e12d9f06942"},{"rt":1931.799999991199,"stimulus":"img/00731.png","slider_start":4,"response":3,"trial_type":"image-slider-response","trial_index":57,"time_elapsed":224334,"internal_node_id":"0.0-3.0-0.54","subject_id":"605228ce5565f0f757000f1f","study_id":"605e2a800ccfa0c8e820d869","session_id":"60622097c46f9e12d9f06942"},{"rt":1324.0900000091642,"stimulus":"img/00926.png","slider_start":4,"response":4,"trial_type":"image-slider-response","trial_index":58,"time_elapsed":225659,"internal_node_id":"0.0-3.0-0.55","subject_id":"605228ce5565f0f757000f1f","study_id":"605e2a800ccfa0c8e820d869","session_id":"60622097c46f9e12d9f06942"},{"rt":876.2900000001537,"stimulus":"img/00504.png","slider_start":4,"response":4,"trial_type":"image-slider-response","trial_index":59,"time_elapsed":226536,"internal_node_id":"0.0-3.0-0.56","subject_id":"605228ce5565f0f757000f1f","study_id":"605e2a800ccfa0c8e820d869","session_id":"60622097c46f9e12d9f06942"},{"rt":676.3650000066264,"stimulus":"img/00082.png","slider_start":4,"response":4,"trial_type":"image-slider-response","trial_index":60,"time_elapsed":227214,"internal_node_id":"0.0-3.0-0.57","subject_id":"605228ce5565f0f757000f1f","study_id":"605e2a800ccfa0c8e820d869","session_id":"60622097c46f9e12d9f06942"},{"rt":1680.7949999929406,"stimulus":"img/00130.png","slider_start":4,"response":4,"trial_type":"image-slider-response","trial_index":61,"time_elapsed":228895,"internal_node_id":"0.0-3.0-0.58","subject_id":"605228ce5565f0f757000f1f","study_id":"605e2a800ccfa0c8e820d869","session_id":"60622097c46f9e12d9f06942"},{"rt":5347.80000000319,"stimulus":"img/00055.png","slider_start":4,"response":4,"trial_type":"image-slider-response","trial_index":62,"time_elapsed":234245,"internal_node_id":"0.0-3.0-0.59","subject_id":"605228ce5565f0f757000f1f","study_id":"605e2a800ccfa0c8e820d869","session_id":"60622097c46f9e12d9f06942"},{"rt":2371.8300000036834,"stimulus":"img/00077.png","slider_start":4,"response":5,"trial_type":"image-slider-response","trial_index":63,"time_elapsed":236618,"internal_node_id":"0.0-3.0-0.60","subject_id":"605228ce5565f0f757000f1f","study_id":"605e2a800ccfa0c8e820d869","session_id":"60622097c46f9e12d9f06942"},{"rt":1758.2499999989523,"stimulus":"img/00587.png","slider_start":4,"response":5,"trial_type":"image-slider-response","trial_index":64,"time_elapsed":238377,"internal_node_id":"0.0-3.0-0.61","subject_id":"605228ce5565f0f757000f1f","study_id":"605e2a800ccfa0c8e820d869","session_id":"60622097c46f9e12d9f06942"},{"rt":6424.295000004349,"stimulus":"img/00811.png","slider_start":4,"response":3,"trial_type":"image-slider-response","trial_index":65,"time_elapsed":244802,"internal_node_id":"0.0-3.0-0.62","subject_id":"605228ce5565f0f757000f1f","study_id":"605e2a800ccfa0c8e820d869","session_id":"60622097c46f9e12d9f06942"},{"rt":2209.405000001425,"stimulus":"img/00464.png","slider_start":4,"response":2,"trial_type":"image-slider-response","trial_index":66,"time_elapsed":247012,"internal_node_id":"0.0-3.0-0.63","subject_id":"605228ce5565f0f757000f1f","study_id":"605e2a800ccfa0c8e820d869","session_id":"60622097c46f9e12d9f06942"},{"rt":2287.6450000039767,"stimulus":"img/00011.png","slider_start":4,"response":3,"trial_type":"image-slider-response","trial_index":67,"time_elapsed":249301,"internal_node_id":"0.0-3.0-0.64","subject_id":"605228ce5565f0f757000f1f","study_id":"605e2a800ccfa0c8e820d869","session_id":"60622097c46f9e12d9f06942"},{"rt":5647.519999998622,"stimulus":"img/00973.png","slider_start":4,"response":3,"trial_type":"image-slider-response","trial_index":68,"time_elapsed":254949,"internal_node_id":"0.0-3.0-0.65","subject_id":"605228ce5565f0f757000f1f","study_id":"605e2a800ccfa0c8e820d869","session_id":"60622097c46f9e12d9f06942"},{"rt":2581.45000001241,"stimulus":"img/00040.png","slider_start":4,"response":1,"trial_type":"image-slider-response","trial_index":69,"time_elapsed":257532,"internal_node_id":"0.0-3.0-0.66","subject_id":"605228ce5565f0f757000f1f","study_id":"605e2a800ccfa0c8e820d869","session_id":"60622097c46f9e12d9f06942"},{"rt":1503.884999998263,"stimulus":"img/00744.png","slider_start":4,"response":4,"trial_type":"image-slider-response","trial_index":70,"time_elapsed":259037,"internal_node_id":"0.0-3.0-0.67","subject_id":"605228ce5565f0f757000f1f","study_id":"605e2a800ccfa0c8e820d869","session_id":"60622097c46f9e12d9f06942"},{"rt":2402.6000000012573,"stimulus":"img/00998.png","slider_start":4,"response":5,"trial_type":"image-slider-response","trial_index":71,"time_elapsed":261440,"internal_node_id":"0.0-3.0-0.68","subject_id":"605228ce5565f0f757000f1f","study_id":"605e2a800ccfa0c8e820d869","session_id":"60622097c46f9e12d9f06942"},{"rt":2366.390000010142,"stimulus":"img/00760.png","slider_start":4,"response":5,"trial_type":"image-slider-response","trial_index":72,"time_elapsed":263808,"internal_node_id":"0.0-3.0-0.69","subject_id":"605228ce5565f0f757000f1f","study_id":"605e2a800ccfa0c8e820d869","session_id":"60622097c46f9e12d9f06942"},{"rt":2789.3049999984214,"stimulus":"img/00810.png","slider_start":4,"response":3,"trial_type":"image-slider-response","trial_index":73,"time_elapsed":266598,"internal_node_id":"0.0-3.0-0.70","subject_id":"605228ce5565f0f757000f1f","study_id":"605e2a800ccfa0c8e820d869","session_id":"60622097c46f9e12d9f06942"},{"rt":2295.074999987264,"stimulus":"img/00525.png","slider_start":4,"response":4,"trial_type":"image-slider-response","trial_index":74,"time_elapsed":268895,"internal_node_id":"0.0-3.0-0.71","subject_id":"605228ce5565f0f757000f1f","study_id":"605e2a800ccfa0c8e820d869","session_id":"60622097c46f9e12d9f06942"},{"rt":3243.284999989555,"stimulus":"img/00564.png","slider_start":4,"response":3,"trial_type":"image-slider-response","trial_index":75,"time_elapsed":272139,"internal_node_id":"0.0-3.0-0.72","subject_id":"605228ce5565f0f757000f1f","study_id":"605e2a800ccfa0c8e820d869","session_id":"60622097c46f9e12d9f06942"},{"rt":10517.619999998715,"stimulus":"img/00037.png","slider_start":4,"response":5,"trial_type":"image-slider-response","trial_index":76,"time_elapsed":282657,"internal_node_id":"0.0-3.0-0.73","subject_id":"605228ce5565f0f757000f1f","study_id":"605e2a800ccfa0c8e820d869","session_id":"60622097c46f9e12d9f06942"},{"rt":2094.7699999960605,"stimulus":"img/00949.png","slider_start":4,"response":3,"trial_type":"image-slider-response","trial_index":77,"time_elapsed":284753,"internal_node_id":"0.0-3.0-0.74","subject_id":"605228ce5565f0f757000f1f","study_id":"605e2a800ccfa0c8e820d869","session_id":"60622097c46f9e12d9f06942"},{"rt":1598.1949999986682,"stimulus":"img/00688.png","slider_start":4,"response":4,"trial_type":"image-slider-response","trial_index":78,"time_elapsed":286352,"internal_node_id":"0.0-3.0-0.75","subject_id":"605228ce5565f0f757000f1f","study_id":"605e2a800ccfa0c8e820d869","session_id":"60622097c46f9e12d9f06942"},{"rt":2756.6200000001118,"stimulus":"img/00691.png","slider_start":4,"response":3,"trial_type":"image-slider-response","trial_index":79,"time_elapsed":289110,"internal_node_id":"0.0-3.0-0.76","subject_id":"605228ce5565f0f757000f1f","study_id":"605e2a800ccfa0c8e820d869","session_id":"60622097c46f9e12d9f06942"},{"rt":2586.029999991297,"stimulus":"img/00466.png","slider_start":4,"response":5,"trial_type":"image-slider-response","trial_index":80,"time_elapsed":291697,"internal_node_id":"0.0-3.0-0.77","subject_id":"605228ce5565f0f757000f1f","study_id":"605e2a800ccfa0c8e820d869","session_id":"60622097c46f9e12d9f06942"},{"rt":2615.959999995539,"stimulus":"img/00113.png","slider_start":4,"response":5,"trial_type":"image-slider-response","trial_index":81,"time_elapsed":294314,"internal_node_id":"0.0-3.0-0.78","subject_id":"605228ce5565f0f757000f1f","study_id":"605e2a800ccfa0c8e820d869","session_id":"60622097c46f9e12d9f06942"},{"rt":3028.0599999969127,"stimulus":"img/00747.png","slider_start":4,"response":5,"trial_type":"image-slider-response","trial_index":82,"time_elapsed":297343,"internal_node_id":"0.0-3.0-0.79","subject_id":"605228ce5565f0f757000f1f","study_id":"605e2a800ccfa0c8e820d869","session_id":"60622097c46f9e12d9f06942"},{"rt":2134.8049999942305,"stimulus":"img/00481.png","slider_start":4,"response":5,"trial_type":"image-slider-response","trial_index":83,"time_elapsed":299478,"internal_node_id":"0.0-3.0-0.80","subject_id":"605228ce5565f0f757000f1f","study_id":"605e2a800ccfa0c8e820d869","session_id":"60622097c46f9e12d9f06942"},{"rt":1489.0900000027614,"stimulus":"img/00653.png","slider_start":4,"response":4,"trial_type":"image-slider-response","trial_index":84,"time_elapsed":300968,"internal_node_id":"0.0-3.0-0.81","subject_id":"605228ce5565f0f757000f1f","study_id":"605e2a800ccfa0c8e820d869","session_id":"60622097c46f9e12d9f06942"},{"rt":3227.4800000013784,"stimulus":"img/00629.png","slider_start":4,"response":3,"trial_type":"image-slider-response","trial_index":85,"time_elapsed":304197,"internal_node_id":"0.0-3.0-0.82","subject_id":"605228ce5565f0f757000f1f","study_id":"605e2a800ccfa0c8e820d869","session_id":"60622097c46f9e12d9f06942"},{"rt":3532.47000000556,"stimulus":"img/00404.png","slider_start":4,"response":2,"trial_type":"image-slider-response","trial_index":86,"time_elapsed":307730,"internal_node_id":"0.0-3.0-0.83","subject_id":"605228ce5565f0f757000f1f","study_id":"605e2a800ccfa0c8e820d869","session_id":"60622097c46f9e12d9f06942"},{"rt":3795.0700000073994,"stimulus":"img/00799.png","slider_start":4,"response":4,"trial_type":"image-slider-response","trial_index":87,"time_elapsed":311526,"internal_node_id":"0.0-3.0-0.84","subject_id":"605228ce5565f0f757000f1f","study_id":"605e2a800ccfa0c8e820d869","session_id":"60622097c46f9e12d9f06942"},{"rt":2422.3799999890616,"stimulus":"img/00424.png","slider_start":4,"response":5,"trial_type":"image-slider-response","trial_index":88,"time_elapsed":313950,"internal_node_id":"0.0-3.0-0.85","subject_id":"605228ce5565f0f757000f1f","study_id":"605e2a800ccfa0c8e820d869","session_id":"60622097c46f9e12d9f06942"},{"rt":1853.369999997085,"stimulus":"img/00644.png","slider_start":4,"response":5,"trial_type":"image-slider-response","trial_index":89,"time_elapsed":315804,"internal_node_id":"0.0-3.0-0.86","subject_id":"605228ce5565f0f757000f1f","study_id":"605e2a800ccfa0c8e820d869","session_id":"60622097c46f9e12d9f06942"},{"rt":3268.06500001112,"stimulus":"img/00967.png","slider_start":4,"response":5,"trial_type":"image-slider-response","trial_index":90,"time_elapsed":319073,"internal_node_id":"0.0-3.0-0.87","subject_id":"605228ce5565f0f757000f1f","study_id":"605e2a800ccfa0c8e820d869","session_id":"60622097c46f9e12d9f06942"},{"rt":10395.449999996345,"stimulus":"img/00956.png","slider_start":4,"response":4,"trial_type":"image-slider-response","trial_index":91,"time_elapsed":329470,"internal_node_id":"0.0-3.0-0.88","subject_id":"605228ce5565f0f757000f1f","study_id":"605e2a800ccfa0c8e820d869","session_id":"60622097c46f9e12d9f06942"},{"rt":3917.025000002468,"stimulus":"img/00469.png","slider_start":4,"response":5,"trial_type":"image-slider-response","trial_index":92,"time_elapsed":333388,"internal_node_id":"0.0-3.0-0.89","subject_id":"605228ce5565f0f757000f1f","study_id":"605e2a800ccfa0c8e820d869","session_id":"60622097c46f9e12d9f06942"},{"rt":2175.684999994701,"stimulus":"img/00576.png","slider_start":4,"response":5,"trial_type":"image-slider-response","trial_index":93,"time_elapsed":335565,"internal_node_id":"0.0-3.0-0.90","subject_id":"605228ce5565f0f757000f1f","study_id":"605e2a800ccfa0c8e820d869","session_id":"60622097c46f9e12d9f06942"},{"rt":2240.864999999758,"stimulus":"img/00100.png","slider_start":4,"response":5,"trial_type":"image-slider-response","trial_index":94,"time_elapsed":337807,"internal_node_id":"0.0-3.0-0.91","subject_id":"605228ce5565f0f757000f1f","study_id":"605e2a800ccfa0c8e820d869","session_id":"60622097c46f9e12d9f06942"},{"rt":1611.254999996163,"stimulus":"img/00542.png","slider_start":4,"response":4,"trial_type":"image-slider-response","trial_index":95,"time_elapsed":339420,"internal_node_id":"0.0-3.0-0.92","subject_id":"605228ce5565f0f757000f1f","study_id":"605e2a800ccfa0c8e820d869","session_id":"60622097c46f9e12d9f06942"},{"rt":2513.974999994389,"stimulus":"img/00432.png","slider_start":4,"response":6,"trial_type":"image-slider-response","trial_index":96,"time_elapsed":341935,"internal_node_id":"0.0-3.0-0.93","subject_id":"605228ce5565f0f757000f1f","study_id":"605e2a800ccfa0c8e820d869","session_id":"60622097c46f9e12d9f06942"},{"rt":1479.299999991781,"stimulus":"img/00016.png","slider_start":4,"response":4,"trial_type":"image-slider-response","trial_index":97,"time_elapsed":343415,"internal_node_id":"0.0-3.0-0.94","subject_id":"605228ce5565f0f757000f1f","study_id":"605e2a800ccfa0c8e820d869","session_id":"60622097c46f9e12d9f06942"},{"rt":2690.950000003795,"stimulus":"img/00612.png","slider_start":4,"response":3,"trial_type":"image-slider-response","trial_index":98,"time_elapsed":346107,"internal_node_id":"0.0-3.0-0.95","subject_id":"605228ce5565f0f757000f1f","study_id":"605e2a800ccfa0c8e820d869","session_id":"60622097c46f9e12d9f06942"},{"rt":2375.354999996489,"stimulus":"img/00768.png","slider_start":4,"response":3,"trial_type":"image-slider-response","trial_index":99,"time_elapsed":348484,"internal_node_id":"0.0-3.0-0.96","subject_id":"605228ce5565f0f757000f1f","study_id":"605e2a800ccfa0c8e820d869","session_id":"60622097c46f9e12d9f06942"},{"rt":2092.3099999927217,"stimulus":"img/00853.png","slider_start":4,"response":5,"trial_type":"image-slider-response","trial_index":100,"time_elapsed":350577,"internal_node_id":"0.0-3.0-0.97","subject_id":"605228ce5565f0f757000f1f","study_id":"605e2a800ccfa0c8e820d869","session_id":"60622097c46f9e12d9f06942"},{"rt":4153.660000010859,"stimulus":"img/00569.png","slider_start":4,"response":4,"trial_type":"image-slider-response","trial_index":101,"time_elapsed":354732,"internal_node_id":"0.0-3.0-0.98","subject_id":"605228ce5565f0f757000f1f","study_id":"605e2a800ccfa0c8e820d869","session_id":"60622097c46f9e12d9f06942"},{"rt":2422.3449999990407,"stimulus":"img/00105.png","slider_start":4,"response":4,"trial_type":"image-slider-response","trial_index":102,"time_elapsed":357155,"internal_node_id":"0.0-3.0-0.99","subject_id":"605228ce5565f0f757000f1f","study_id":"605e2a800ccfa0c8e820d869","session_id":"60622097c46f9e12d9f06942"},{"rt":2338.710000010906,"stimulus":"img/00478.png","slider_start":4,"response":3,"trial_type":"image-slider-response","trial_index":103,"time_elapsed":359495,"internal_node_id":"0.0-3.0-0.100","subject_id":"605228ce5565f0f757000f1f","study_id":"605e2a800ccfa0c8e820d869","session_id":"60622097c46f9e12d9f06942"},{"rt":3776.9050000060815,"stimulus":"img/00779.png","slider_start":4,"response":2,"trial_type":"image-slider-response","trial_index":104,"time_elapsed":363273,"internal_node_id":"0.0-3.0-0.101","subject_id":"605228ce5565f0f757000f1f","study_id":"605e2a800ccfa0c8e820d869","session_id":"60622097c46f9e12d9f06942"},{"rt":2827.8400000126567,"stimulus":"img/00507.png","slider_start":4,"response":2,"trial_type":"image-slider-response","trial_index":105,"time_elapsed":366102,"internal_node_id":"0.0-3.0-0.102","subject_id":"605228ce5565f0f757000f1f","study_id":"605e2a800ccfa0c8e820d869","session_id":"60622097c46f9e12d9f06942"},{"rt":1428.120000011404,"stimulus":"img/00454.png","slider_start":4,"response":4,"trial_type":"image-slider-response","trial_index":106,"time_elapsed":367531,"internal_node_id":"0.0-3.0-0.103","subject_id":"605228ce5565f0f757000f1f","study_id":"605e2a800ccfa0c8e820d869","session_id":"60622097c46f9e12d9f06942"},{"rt":893.8550000020768,"stimulus":"img/00603.png","slider_start":4,"response":4,"trial_type":"image-slider-response","trial_index":107,"time_elapsed":368426,"internal_node_id":"0.0-3.0-0.104","subject_id":"605228ce5565f0f757000f1f","study_id":"605e2a800ccfa0c8e820d869","session_id":"60622097c46f9e12d9f06942"},{"rt":2508.9550000120653,"stimulus":"img/00898.png","slider_start":4,"response":3,"trial_type":"image-slider-response","trial_index":108,"time_elapsed":370936,"internal_node_id":"0.0-3.0-0.105","subject_id":"605228ce5565f0f757000f1f","study_id":"605e2a800ccfa0c8e820d869","session_id":"60622097c46f9e12d9f06942"},{"rt":1941.1649999965448,"stimulus":"img/00850.png","slider_start":4,"response":2,"trial_type":"image-slider-response","trial_index":109,"time_elapsed":372878,"internal_node_id":"0.0-3.0-0.106","subject_id":"605228ce5565f0f757000f1f","study_id":"605e2a800ccfa0c8e820d869","session_id":"60622097c46f9e12d9f06942"},{"rt":1722.170000008191,"stimulus":"img/00440.png","slider_start":4,"response":4,"trial_type":"image-slider-response","trial_index":110,"time_elapsed":374602,"internal_node_id":"0.0-3.0-0.107","subject_id":"605228ce5565f0f757000f1f","study_id":"605e2a800ccfa0c8e820d869","session_id":"60622097c46f9e12d9f06942"},{"rt":3656.634999992093,"stimulus":"img/00042.png","slider_start":4,"response":3,"trial_type":"image-slider-response","trial_index":111,"time_elapsed":378259,"internal_node_id":"0.0-3.0-0.108","subject_id":"605228ce5565f0f757000f1f","study_id":"605e2a800ccfa0c8e820d869","session_id":"60622097c46f9e12d9f06942"},{"rt":4208.8650000077905,"stimulus":"img/00462.png","slider_start":4,"response":3,"trial_type":"image-slider-response","trial_index":112,"time_elapsed":382469,"internal_node_id":"0.0-3.0-0.109","subject_id":"605228ce5565f0f757000f1f","study_id":"605e2a800ccfa0c8e820d869","session_id":"60622097c46f9e12d9f06942"},{"rt":5441.124999997555,"stimulus":"img/00549.png","slider_start":4,"response":4,"trial_type":"image-slider-response","trial_index":113,"time_elapsed":387912,"internal_node_id":"0.0-3.0-0.110","subject_id":"605228ce5565f0f757000f1f","study_id":"605e2a800ccfa0c8e820d869","session_id":"60622097c46f9e12d9f06942"},{"rt":2623.6550000030547,"stimulus":"img/00508.png","slider_start":4,"response":3,"trial_type":"image-slider-response","trial_index":114,"time_elapsed":390536,"internal_node_id":"0.0-3.0-0.111","subject_id":"605228ce5565f0f757000f1f","study_id":"605e2a800ccfa0c8e820d869","session_id":"60622097c46f9e12d9f06942"},{"rt":1346.2350000045262,"stimulus":"img/00951.png","slider_start":4,"response":4,"trial_type":"image-slider-response","trial_index":115,"time_elapsed":391883,"internal_node_id":"0.0-3.0-0.112","subject_id":"605228ce5565f0f757000f1f","study_id":"605e2a800ccfa0c8e820d869","session_id":"60622097c46f9e12d9f06942"},{"rt":2535.344999996596,"stimulus":"img/00982.png","slider_start":4,"response":3,"trial_type":"image-slider-response","trial_index":116,"time_elapsed":394420,"internal_node_id":"0.0-3.0-0.113","subject_id":"605228ce5565f0f757000f1f","study_id":"605e2a800ccfa0c8e820d869","session_id":"60622097c46f9e12d9f06942"},{"rt":2566.865000000689,"stimulus":"img/00748.png","slider_start":4,"response":4,"trial_type":"image-slider-response","trial_index":117,"time_elapsed":396988,"internal_node_id":"0.0-3.0-0.114","subject_id":"605228ce5565f0f757000f1f","study_id":"605e2a800ccfa0c8e820d869","session_id":"60622097c46f9e12d9f06942"},{"rt":2522.694999992382,"stimulus":"img/00401.png","slider_start":4,"response":3,"trial_type":"image-slider-response","trial_index":118,"time_elapsed":399511,"internal_node_id":"0.0-3.0-0.115","subject_id":"605228ce5565f0f757000f1f","study_id":"605e2a800ccfa0c8e820d869","session_id":"60622097c46f9e12d9f06942"},{"rt":2809.720000004745,"stimulus":"img/00126.png","slider_start":4,"response":3,"trial_type":"image-slider-response","trial_index":119,"time_elapsed":402322,"internal_node_id":"0.0-3.0-0.116","subject_id":"605228ce5565f0f757000f1f","study_id":"605e2a800ccfa0c8e820d869","session_id":"60622097c46f9e12d9f06942"},{"rt":2673.6849999870174,"stimulus":"img/00848.png","slider_start":4,"response":4,"trial_type":"image-slider-response","trial_index":120,"time_elapsed":404997,"internal_node_id":"0.0-3.0-0.117","subject_id":"605228ce5565f0f757000f1f","study_id":"605e2a800ccfa0c8e820d869","session_id":"60622097c46f9e12d9f06942"},{"rt":2841.8199999869103,"stimulus":"img/00439.png","slider_start":4,"response":3,"trial_type":"image-slider-response","trial_index":121,"time_elapsed":407840,"internal_node_id":"0.0-3.0-0.118","subject_id":"605228ce5565f0f757000f1f","study_id":"605e2a800ccfa0c8e820d869","session_id":"60622097c46f9e12d9f06942"},{"rt":1778.4600000013597,"stimulus":"img/00930.png","slider_start":4,"response":4,"trial_type":"image-slider-response","trial_index":122,"time_elapsed":409619,"internal_node_id":"0.0-3.0-0.119","subject_id":"605228ce5565f0f757000f1f","study_id":"605e2a800ccfa0c8e820d869","session_id":"60622097c46f9e12d9f06942"},{"rt":2522.5399999908404,"stimulus":"img/00006.png","slider_start":4,"response":4,"trial_type":"image-slider-response","trial_index":123,"time_elapsed":412143,"internal_node_id":"0.0-3.0-0.120","subject_id":"605228ce5565f0f757000f1f","study_id":"605e2a800ccfa0c8e820d869","session_id":"60622097c46f9e12d9f06942"},{"rt":3089.7149999946123,"stimulus":"img/00122.png","slider_start":4,"response":6,"trial_type":"image-slider-response","trial_index":124,"time_elapsed":415236,"internal_node_id":"0.0-3.0-0.121","subject_id":"605228ce5565f0f757000f1f","study_id":"605e2a800ccfa0c8e820d869","session_id":"60622097c46f9e12d9f06942"},{"rt":2676.7350000009174,"stimulus":"img/00913.png","slider_start":4,"response":4,"trial_type":"image-slider-response","trial_index":125,"time_elapsed":417913,"internal_node_id":"0.0-3.0-0.122","subject_id":"605228ce5565f0f757000f1f","study_id":"605e2a800ccfa0c8e820d869","session_id":"60622097c46f9e12d9f06942"},{"rt":2616.524999990361,"stimulus":"img/00764.png","slider_start":4,"response":3,"trial_type":"image-slider-response","trial_index":126,"time_elapsed":420531,"internal_node_id":"0.0-3.0-0.123","subject_id":"605228ce5565f0f757000f1f","study_id":"605e2a800ccfa0c8e820d869","session_id":"60622097c46f9e12d9f06942"},{"rt":2498.3199999987846,"stimulus":"img/00842.png","slider_start":4,"response":5,"trial_type":"image-slider-response","trial_index":127,"time_elapsed":423030,"internal_node_id":"0.0-3.0-0.124","subject_id":"605228ce5565f0f757000f1f","study_id":"605e2a800ccfa0c8e820d869","session_id":"60622097c46f9e12d9f06942"},{"rt":3393.014999994193,"stimulus":"img/00986.png","slider_start":4,"response":3,"trial_type":"image-slider-response","trial_index":128,"time_elapsed":426424,"internal_node_id":"0.0-3.0-0.125","subject_id":"605228ce5565f0f757000f1f","study_id":"605e2a800ccfa0c8e820d869","session_id":"60622097c46f9e12d9f06942"},{"rt":2444.9599999934435,"stimulus":"img/00581.png","slider_start":4,"response":3,"trial_type":"image-slider-response","trial_index":129,"time_elapsed":428870,"internal_node_id":"0.0-3.0-0.126","subject_id":"605228ce5565f0f757000f1f","study_id":"605e2a800ccfa0c8e820d869","session_id":"60622097c46f9e12d9f06942"},{"rt":2883.2099999999627,"stimulus":"img/00012.png","slider_start":4,"response":3,"trial_type":"image-slider-response","trial_index":130,"time_elapsed":431754,"internal_node_id":"0.0-3.0-0.127","subject_id":"605228ce5565f0f757000f1f","study_id":"605e2a800ccfa0c8e820d869","session_id":"60622097c46f9e12d9f06942"},{"rt":3052.014999993844,"stimulus":"img/00101.png","slider_start":4,"response":2,"trial_type":"image-slider-response","trial_index":131,"time_elapsed":434807,"internal_node_id":"0.0-3.0-0.128","subject_id":"605228ce5565f0f757000f1f","study_id":"605e2a800ccfa0c8e820d869","session_id":"60622097c46f9e12d9f06942"},{"rt":4338.879999995697,"stimulus":"img/00879.png","slider_start":4,"response":4,"trial_type":"image-slider-response","trial_index":132,"time_elapsed":439147,"internal_node_id":"0.0-3.0-0.129","subject_id":"605228ce5565f0f757000f1f","study_id":"605e2a800ccfa0c8e820d869","session_id":"60622097c46f9e12d9f06942"},{"rt":4332.58499999647,"stimulus":"img/00405.png","slider_start":4,"response":3,"trial_type":"image-slider-response","trial_index":133,"time_elapsed":443481,"internal_node_id":"0.0-3.0-0.130","subject_id":"605228ce5565f0f757000f1f","study_id":"605e2a800ccfa0c8e820d869","session_id":"60622097c46f9e12d9f06942"},{"rt":2927.189999987604,"stimulus":"img/00561.png","slider_start":4,"response":4,"trial_type":"image-slider-response","trial_index":134,"time_elapsed":446409,"internal_node_id":"0.0-3.0-0.131","subject_id":"605228ce5565f0f757000f1f","study_id":"605e2a800ccfa0c8e820d869","session_id":"60622097c46f9e12d9f06942"},{"rt":3606.995000009192,"stimulus":"img/00785.png","slider_start":4,"response":5,"trial_type":"image-slider-response","trial_index":135,"time_elapsed":450017,"internal_node_id":"0.0-3.0-0.132","subject_id":"605228ce5565f0f757000f1f","study_id":"605e2a800ccfa0c8e820d869","session_id":"60622097c46f9e12d9f06942"},{"rt":1529.949999996461,"stimulus":"img/00018.png","slider_start":4,"response":4,"trial_type":"image-slider-response","trial_index":136,"time_elapsed":451548,"internal_node_id":"0.0-3.0-0.133","subject_id":"605228ce5565f0f757000f1f","study_id":"605e2a800ccfa0c8e820d869","session_id":"60622097c46f9e12d9f06942"},{"rt":2057.7700000139885,"stimulus":"img/00447.png","slider_start":4,"response":4,"trial_type":"image-slider-response","trial_index":137,"time_elapsed":453607,"internal_node_id":"0.0-3.0-0.134","subject_id":"605228ce5565f0f757000f1f","study_id":"605e2a800ccfa0c8e820d869","session_id":"60622097c46f9e12d9f06942"},{"rt":2871.820000000298,"stimulus":"img/00592.png","slider_start":4,"response":4,"trial_type":"image-slider-response","trial_index":138,"time_elapsed":456481,"internal_node_id":"0.0-3.0-0.135","subject_id":"605228ce5565f0f757000f1f","study_id":"605e2a800ccfa0c8e820d869","session_id":"60622097c46f9e12d9f06942"},{"rt":2151.225000008708,"stimulus":"img/00456.png","slider_start":4,"response":4,"trial_type":"image-slider-response","trial_index":139,"time_elapsed":458633,"internal_node_id":"0.0-3.0-0.136","subject_id":"605228ce5565f0f757000f1f","study_id":"605e2a800ccfa0c8e820d869","session_id":"60622097c46f9e12d9f06942"},{"rt":5063.860000009299,"stimulus":"img/00594.png","slider_start":4,"response":4,"trial_type":"image-slider-response","trial_index":140,"time_elapsed":463698,"internal_node_id":"0.0-3.0-0.137","subject_id":"605228ce5565f0f757000f1f","study_id":"605e2a800ccfa0c8e820d869","session_id":"60622097c46f9e12d9f06942"},{"rt":2110.0549999973737,"stimulus":"img/00755.png","slider_start":4,"response":5,"trial_type":"image-slider-response","trial_index":141,"time_elapsed":465810,"internal_node_id":"0.0-3.0-0.138","subject_id":"605228ce5565f0f757000f1f","study_id":"605e2a800ccfa0c8e820d869","session_id":"60622097c46f9e12d9f06942"},{"rt":6063.399999999092,"stimulus":"img/00114.png","slider_start":4,"response":5,"trial_type":"image-slider-response","trial_index":142,"time_elapsed":471874,"internal_node_id":"0.0-3.0-0.139","subject_id":"605228ce5565f0f757000f1f","study_id":"605e2a800ccfa0c8e820d869","session_id":"60622097c46f9e12d9f06942"},{"rt":2426.1550000082934,"stimulus":"img/00496.png","slider_start":4,"response":5,"trial_type":"image-slider-response","trial_index":143,"time_elapsed":474301,"internal_node_id":"0.0-3.0-0.140","subject_id":"605228ce5565f0f757000f1f","study_id":"605e2a800ccfa0c8e820d869","session_id":"60622097c46f9e12d9f06942"},{"rt":3451.8450000032317,"stimulus":"img/00472.png","slider_start":4,"response":4,"trial_type":"image-slider-response","trial_index":144,"time_elapsed":477754,"internal_node_id":"0.0-3.0-0.141","subject_id":"605228ce5565f0f757000f1f","study_id":"605e2a800ccfa0c8e820d869","session_id":"60622097c46f9e12d9f06942"},{"rt":2540.775000001304,"stimulus":"img/00479.png","slider_start":4,"response":3,"trial_type":"image-slider-response","trial_index":145,"time_elapsed":480296,"internal_node_id":"0.0-3.0-0.142","subject_id":"605228ce5565f0f757000f1f","study_id":"605e2a800ccfa0c8e820d869","session_id":"60622097c46f9e12d9f06942"},{"rt":3640.1699999987613,"stimulus":"img/00418.png","slider_start":4,"response":3,"trial_type":"image-slider-response","trial_index":146,"time_elapsed":483937,"internal_node_id":"0.0-3.0-0.143","subject_id":"605228ce5565f0f757000f1f","study_id":"605e2a800ccfa0c8e820d869","session_id":"60622097c46f9e12d9f06942"},{"rt":2805.8750000054715,"stimulus":"img/00988.png","slider_start":4,"response":5,"trial_type":"image-slider-response","trial_index":147,"time_elapsed":486744,"internal_node_id":"0.0-3.0-0.144","subject_id":"605228ce5565f0f757000f1f","study_id":"605e2a800ccfa0c8e820d869","session_id":"60622097c46f9e12d9f06942"},{"rt":1280.750000005355,"stimulus":"img/00995.png","slider_start":4,"response":4,"trial_type":"image-slider-response","trial_index":148,"time_elapsed":488026,"internal_node_id":"0.0-3.0-0.145","subject_id":"605228ce5565f0f757000f1f","study_id":"605e2a800ccfa0c8e820d869","session_id":"60622097c46f9e12d9f06942"},{"rt":2358.0000000074506,"stimulus":"img/00825.png","slider_start":4,"response":6,"trial_type":"image-slider-response","trial_index":149,"time_elapsed":490385,"internal_node_id":"0.0-3.0-0.146","subject_id":"605228ce5565f0f757000f1f","study_id":"605e2a800ccfa0c8e820d869","session_id":"60622097c46f9e12d9f06942"},{"rt":1920.9300000075018,"stimulus":"img/00127.png","slider_start":4,"response":3,"trial_type":"image-slider-response","trial_index":150,"time_elapsed":492306,"internal_node_id":"0.0-3.0-0.147","subject_id":"605228ce5565f0f757000f1f","study_id":"605e2a800ccfa0c8e820d869","session_id":"60622097c46f9e12d9f06942"},{"rt":1780.4049999976996,"stimulus":"img/00522.png","slider_start":4,"response":4,"trial_type":"image-slider-response","trial_index":151,"time_elapsed":494088,"internal_node_id":"0.0-3.0-0.148","subject_id":"605228ce5565f0f757000f1f","study_id":"605e2a800ccfa0c8e820d869","session_id":"60622097c46f9e12d9f06942"},{"rt":2952.3499999922933,"stimulus":"img/00902.png","slider_start":4,"response":5,"trial_type":"image-slider-response","trial_index":152,"time_elapsed":497041,"internal_node_id":"0.0-3.0-0.149","subject_id":"605228ce5565f0f757000f1f","study_id":"605e2a800ccfa0c8e820d869","session_id":"60622097c46f9e12d9f06942"},{"rt":2429.069999998319,"stimulus":"img/00059.png","slider_start":4,"response":5,"trial_type":"image-slider-response","trial_index":153,"time_elapsed":499471,"internal_node_id":"0.0-3.0-0.150","subject_id":"605228ce5565f0f757000f1f","study_id":"605e2a800ccfa0c8e820d869","session_id":"60622097c46f9e12d9f06942"},{"rt":1406.8399999960093,"stimulus":"img/00511.png","slider_start":4,"response":4,"trial_type":"image-slider-response","trial_index":154,"time_elapsed":500879,"internal_node_id":"0.0-3.0-0.151","subject_id":"605228ce5565f0f757000f1f","study_id":"605e2a800ccfa0c8e820d869","session_id":"60622097c46f9e12d9f06942"},{"rt":908.595000000787,"stimulus":"img/00437.png","slider_start":4,"response":4,"trial_type":"image-slider-response","trial_index":155,"time_elapsed":501788,"internal_node_id":"0.0-3.0-0.152","subject_id":"605228ce5565f0f757000f1f","study_id":"605e2a800ccfa0c8e820d869","session_id":"60622097c46f9e12d9f06942"},{"rt":3014.9249999958556,"stimulus":"img/00503.png","slider_start":4,"response":3,"trial_type":"image-slider-response","trial_index":156,"time_elapsed":504804,"internal_node_id":"0.0-3.0-0.153","subject_id":"605228ce5565f0f757000f1f","study_id":"605e2a800ccfa0c8e820d869","session_id":"60622097c46f9e12d9f06942"},{"rt":2701.1100000090664,"stimulus":"img/00833.png","slider_start":4,"response":4,"trial_type":"image-slider-response","trial_index":157,"time_elapsed":507506,"internal_node_id":"0.0-3.0-0.154","subject_id":"605228ce5565f0f757000f1f","study_id":"605e2a800ccfa0c8e820d869","session_id":"60622097c46f9e12d9f06942"},{"rt":4030.530000003637,"stimulus":"img/00521.png","slider_start":4,"response":2,"trial_type":"image-slider-response","trial_index":158,"time_elapsed":511538,"internal_node_id":"0.0-3.0-0.155","subject_id":"605228ce5565f0f757000f1f","study_id":"605e2a800ccfa0c8e820d869","session_id":"60622097c46f9e12d9f06942"},{"rt":1750.9399999980815,"stimulus":"img/00079.png","slider_start":4,"response":4,"trial_type":"image-slider-response","trial_index":159,"time_elapsed":513290,"internal_node_id":"0.0-3.0-0.156","subject_id":"605228ce5565f0f757000f1f","study_id":"605e2a800ccfa0c8e820d869","session_id":"60622097c46f9e12d9f06942"},{"rt":7549.969999992754,"stimulus":"img/00023.png","slider_start":4,"response":5,"trial_type":"image-slider-response","trial_index":160,"time_elapsed":520841,"internal_node_id":"0.0-3.0-0.157","subject_id":"605228ce5565f0f757000f1f","study_id":"605e2a800ccfa0c8e820d869","session_id":"60622097c46f9e12d9f06942"},{"rt":2855.330000005779,"stimulus":"img/40.png","slider_start":4,"response":2,"trial_type":"image-slider-response","trial_index":161,"time_elapsed":523697,"internal_node_id":"0.0-3.0-0.158","subject_id":"605228ce5565f0f757000f1f","study_id":"605e2a800ccfa0c8e820d869","session_id":"60622097c46f9e12d9f06942"},{"rt":1698.1099999975413,"stimulus":"img/00029.png","slider_start":4,"response":4,"trial_type":"image-slider-response","trial_index":162,"time_elapsed":525396,"internal_node_id":"0.0-3.0-0.159","subject_id":"605228ce5565f0f757000f1f","study_id":"605e2a800ccfa0c8e820d869","session_id":"60622097c46f9e12d9f06942"},{"rt":600.4950000060489,"stimulus":"img/00896.png","slider_start":4,"response":4,"trial_type":"image-slider-response","trial_index":163,"time_elapsed":525998,"internal_node_id":"0.0-3.0-0.160","subject_id":"605228ce5565f0f757000f1f","study_id":"605e2a800ccfa0c8e820d869","session_id":"60622097c46f9e12d9f06942"},{"rt":826.3350000052014,"stimulus":"img/00991.png","slider_start":4,"response":4,"trial_type":"image-slider-response","trial_index":164,"time_elapsed":526826,"internal_node_id":"0.0-3.0-0.161","subject_id":"605228ce5565f0f757000f1f","study_id":"605e2a800ccfa0c8e820d869","session_id":"60622097c46f9e12d9f06942"},{"rt":6558.27500000305,"stimulus":"img/00129.png","slider_start":4,"response":5,"trial_type":"image-slider-response","trial_index":165,"time_elapsed":533385,"internal_node_id":"0.0-3.0-0.162","subject_id":"605228ce5565f0f757000f1f","study_id":"605e2a800ccfa0c8e820d869","session_id":"60622097c46f9e12d9f06942"},{"rt":1050.0100000062957,"stimulus":"img/00928.png","slider_start":4,"response":4,"trial_type":"image-slider-response","trial_index":166,"time_elapsed":534436,"internal_node_id":"0.0-3.0-0.163","subject_id":"605228ce5565f0f757000f1f","study_id":"605e2a800ccfa0c8e820d869","session_id":"60622097c46f9e12d9f06942"},{"rt":1260.6350000132807,"stimulus":"img/00554.png","slider_start":4,"response":4,"trial_type":"image-slider-response","trial_index":167,"time_elapsed":535698,"internal_node_id":"0.0-3.0-0.164","subject_id":"605228ce5565f0f757000f1f","study_id":"605e2a800ccfa0c8e820d869","session_id":"60622097c46f9e12d9f06942"},{"rt":946.4750000042841,"stimulus":"img/00790.png","slider_start":4,"response":4,"trial_type":"image-slider-response","trial_index":168,"time_elapsed":536645,"internal_node_id":"0.0-3.0-0.165","subject_id":"605228ce5565f0f757000f1f","study_id":"605e2a800ccfa0c8e820d869","session_id":"60622097c46f9e12d9f06942"},{"rt":653.6199999973178,"stimulus":"img/00438.png","slider_start":4,"response":4,"trial_type":"image-slider-response","trial_index":169,"time_elapsed":537300,"internal_node_id":"0.0-3.0-0.166","subject_id":"605228ce5565f0f757000f1f","study_id":"605e2a800ccfa0c8e820d869","session_id":"60622097c46f9e12d9f06942"},{"rt":2231.1550000013085,"stimulus":"img/00789.png","slider_start":4,"response":3,"trial_type":"image-slider-response","trial_index":170,"time_elapsed":539532,"internal_node_id":"0.0-3.0-0.167","subject_id":"605228ce5565f0f757000f1f","study_id":"605e2a800ccfa0c8e820d869","session_id":"60622097c46f9e12d9f06942"},{"rt":2680.8400000008987,"stimulus":"img/00406.png","slider_start":4,"response":3,"trial_type":"image-slider-response","trial_index":171,"time_elapsed":542214,"internal_node_id":"0.0-3.0-0.168","subject_id":"605228ce5565f0f757000f1f","study_id":"605e2a800ccfa0c8e820d869","session_id":"60622097c46f9e12d9f06942"},{"rt":3244.0349999960745,"stimulus":"img/00413.png","slider_start":4,"response":3,"trial_type":"image-slider-response","trial_index":172,"time_elapsed":545459,"internal_node_id":"0.0-3.0-0.169","subject_id":"605228ce5565f0f757000f1f","study_id":"605e2a800ccfa0c8e820d869","session_id":"60622097c46f9e12d9f06942"},{"rt":1183.405000003404,"stimulus":"img/00815.png","slider_start":4,"response":4,"trial_type":"image-slider-response","trial_index":173,"time_elapsed":546643,"internal_node_id":"0.0-3.0-0.170","subject_id":"605228ce5565f0f757000f1f","study_id":"605e2a800ccfa0c8e820d869","session_id":"60622097c46f9e12d9f06942"},{"rt":1017.8999999916414,"stimulus":"img/00989.png","slider_start":4,"response":4,"trial_type":"image-slider-response","trial_index":174,"time_elapsed":547662,"internal_node_id":"0.0-3.0-0.171","subject_id":"605228ce5565f0f757000f1f","study_id":"605e2a800ccfa0c8e820d869","session_id":"60622097c46f9e12d9f06942"}]