[{"rt":9610.80999999831,"stimulus":"Welcome to the experiment. Press any key to begin.","response":" ","trial_type":"html-keyboard-response","trial_index":0,"time_elapsed":9615,"internal_node_id":"0.0-0.0","subject_id":"60358679c69b6f3499e2fdf5","study_id":"605e2a800ccfa0c8e820d869","session_id":"60622097e2bba1ee8e5bd2f5"},{"rt":6621.805000002496,"stimulus":"\n        <p>In this experiment, a face will appear on-screen.</p><p> <strong>Rate the face on a 1 - 7 scale based on how attractive he / she is.</strong> </p>\n        </div>\n        <p>Press any key to begin.</p>\n      ","response":" ","trial_type":"html-keyboard-response","trial_index":1,"time_elapsed":16237,"internal_node_id":"0.0-1.0","subject_id":"60358679c69b6f3499e2fdf5","study_id":"605e2a800ccfa0c8e820d869","session_id":"60622097e2bba1ee8e5bd2f5"},{"success":true,"timeout":false,"failed_images":[],"failed_audio":[],"failed_video":[],"trial_type":"preload","trial_index":2,"time_elapsed":56315,"internal_node_id":"0.0-2.0","subject_id":"60358679c69b6f3499e2fdf5","study_id":"605e2a800ccfa0c8e820d869","session_id":"60622097e2bba1ee8e5bd2f5"},{"rt":34554.9749999991,"stimulus":"img/00093.png","slider_start":4,"response":2,"trial_type":"image-slider-response","trial_index":3,"time_elapsed":90879,"internal_node_id":"0.0-3.0-0.0","subject_id":"60358679c69b6f3499e2fdf5","study_id":"605e2a800ccfa0c8e820d869","session_id":"60622097e2bba1ee8e5bd2f5"},{"rt":11116.169999993872,"stimulus":"img/00006.png","slider_start":4,"response":4,"trial_type":"image-slider-response","trial_index":4,"time_elapsed":102000,"internal_node_id":"0.0-3.0-0.1","subject_id":"60358679c69b6f3499e2fdf5","study_id":"605e2a800ccfa0c8e820d869","session_id":"60622097e2bba1ee8e5bd2f5"},{"rt":22072.415000002366,"stimulus":"img/00742.png","slider_start":4,"response":4,"trial_type":"image-slider-response","trial_index":5,"time_elapsed":124075,"internal_node_id":"0.0-3.0-0.2","subject_id":"60358679c69b6f3499e2fdf5","study_id":"605e2a800ccfa0c8e820d869","session_id":"60622097e2bba1ee8e5bd2f5"},{"rt":19576.484999997774,"stimulus":"img/00549.png","slider_start":4,"response":2,"trial_type":"image-slider-response","trial_index":6,"time_elapsed":143654,"internal_node_id":"0.0-3.0-0.3","subject_id":"60358679c69b6f3499e2fdf5","study_id":"605e2a800ccfa0c8e820d869","session_id":"60622097e2bba1ee8e5bd2f5"},{"rt":4078.6450000014156,"stimulus":"img/00801.png","slider_start":4,"response":1,"trial_type":"image-slider-response","trial_index":7,"time_elapsed":147735,"internal_node_id":"0.0-3.0-0.4","subject_id":"60358679c69b6f3499e2fdf5","study_id":"605e2a800ccfa0c8e820d869","session_id":"60622097e2bba1ee8e5bd2f5"},{"rt":4665.535000000091,"stimulus":"img/00576.png","slider_start":4,"response":5,"trial_type":"image-slider-response","trial_index":8,"time_elapsed":152402,"internal_node_id":"0.0-3.0-0.5","subject_id":"60358679c69b6f3499e2fdf5","study_id":"605e2a800ccfa0c8e820d869","session_id":"60622097e2bba1ee8e5bd2f5"},{"rt":3802.575000001525,"stimulus":"img/00790.png","slider_start":4,"response":1,"trial_type":"image-slider-response","trial_index":9,"time_elapsed":156208,"internal_node_id":"0.0-3.0-0.6","subject_id":"60358679c69b6f3499e2fdf5","study_id":"605e2a800ccfa0c8e820d869","session_id":"60622097e2bba1ee8e5bd2f5"},{"rt":14551.825000002282,"stimulus":"img/00850.png","slider_start":4,"response":1,"trial_type":"image-slider-response","trial_index":10,"time_elapsed":170762,"internal_node_id":"0.0-3.0-0.7","subject_id":"60358679c69b6f3499e2fdf5","study_id":"605e2a800ccfa0c8e820d869","session_id":"60622097e2bba1ee8e5bd2f5"},{"rt":19529.88500000356,"stimulus":"img/00995.png","slider_start":4,"response":5,"trial_type":"image-slider-response","trial_index":11,"time_elapsed":190294,"internal_node_id":"0.0-3.0-0.8","subject_id":"60358679c69b6f3499e2fdf5","study_id":"605e2a800ccfa0c8e820d869","session_id":"60622097e2bba1ee8e5bd2f5"},{"rt":13695.72500000504,"stimulus":"img/00653.png","slider_start":4,"response":3,"trial_type":"image-slider-response","trial_index":12,"time_elapsed":203993,"internal_node_id":"0.0-3.0-0.9","subject_id":"60358679c69b6f3499e2fdf5","study_id":"605e2a800ccfa0c8e820d869","session_id":"60622097e2bba1ee8e5bd2f5"},{"rt":10201.204999997572,"stimulus":"img/00052.png","slider_start":4,"response":2,"trial_type":"image-slider-response","trial_index":13,"time_elapsed":214197,"internal_node_id":"0.0-3.0-0.10","subject_id":"60358679c69b6f3499e2fdf5","study_id":"605e2a800ccfa0c8e820d869","session_id":"60622097e2bba1ee8e5bd2f5"},{"rt":6545.810000003257,"stimulus":"img/00499.png","slider_start":4,"response":1,"trial_type":"image-slider-response","trial_index":14,"time_elapsed":220745,"internal_node_id":"0.0-3.0-0.11","subject_id":"60358679c69b6f3499e2fdf5","study_id":"605e2a800ccfa0c8e820d869","session_id":"60622097e2bba1ee8e5bd2f5"},{"rt":2424.4650000036927,"stimulus":"img/00913.png","slider_start":4,"response":1,"trial_type":"image-slider-response","trial_index":15,"time_elapsed":223172,"internal_node_id":"0.0-3.0-0.12","subject_id":"60358679c69b6f3499e2fdf5","study_id":"605e2a800ccfa0c8e820d869","session_id":"60622097e2bba1ee8e5bd2f5"},{"rt":5704.060000003665,"stimulus":"img/00029.png","slider_start":4,"response":1,"trial_type":"image-slider-response","trial_index":16,"time_elapsed":228878,"internal_node_id":"0.0-3.0-0.13","subject_id":"60358679c69b6f3499e2fdf5","study_id":"605e2a800ccfa0c8e820d869","session_id":"60622097e2bba1ee8e5bd2f5"},{"rt":17447.795000000042,"stimulus":"img/00478.png","slider_start":4,"response":5,"trial_type":"image-slider-response","trial_index":17,"time_elapsed":246328,"internal_node_id":"0.0-3.0-0.14","subject_id":"60358679c69b6f3499e2fdf5","study_id":"605e2a800ccfa0c8e820d869","session_id":"60622097e2bba1ee8e5bd2f5"},{"rt":3202.2649999998976,"stimulus":"img/00570.png","slider_start":4,"response":6,"trial_type":"image-slider-response","trial_index":18,"time_elapsed":249533,"internal_node_id":"0.0-3.0-0.15","subject_id":"60358679c69b6f3499e2fdf5","study_id":"605e2a800ccfa0c8e820d869","session_id":"60622097e2bba1ee8e5bd2f5"},{"rt":7356.189999998605,"stimulus":"img/00129.png","slider_start":4,"response":5,"trial_type":"image-slider-response","trial_index":19,"time_elapsed":256891,"internal_node_id":"0.0-3.0-0.16","subject_id":"60358679c69b6f3499e2fdf5","study_id":"605e2a800ccfa0c8e820d869","session_id":"60622097e2bba1ee8e5bd2f5"},{"rt":4521.864999995159,"stimulus":"img/00521.png","slider_start":4,"response":1,"trial_type":"image-slider-response","trial_index":20,"time_elapsed":261416,"internal_node_id":"0.0-3.0-0.17","subject_id":"60358679c69b6f3499e2fdf5","study_id":"605e2a800ccfa0c8e820d869","session_id":"60622097e2bba1ee8e5bd2f5"},{"rt":29517.005000001518,"stimulus":"img/00077.png","slider_start":4,"response":5,"trial_type":"image-slider-response","trial_index":21,"time_elapsed":290935,"internal_node_id":"0.0-3.0-0.18","subject_id":"60358679c69b6f3499e2fdf5","study_id":"605e2a800ccfa0c8e820d869","session_id":"60622097e2bba1ee8e5bd2f5"},{"rt":13562.065000005532,"stimulus":"img/00002.png","slider_start":4,"response":5,"trial_type":"image-slider-response","trial_index":22,"time_elapsed":304500,"internal_node_id":"0.0-3.0-0.19","subject_id":"60358679c69b6f3499e2fdf5","study_id":"605e2a800ccfa0c8e820d869","session_id":"60622097e2bba1ee8e5bd2f5"},{"rt":10151.88499999931,"stimulus":"img/00752.png","slider_start":4,"response":1,"trial_type":"image-slider-response","trial_index":23,"time_elapsed":314655,"internal_node_id":"0.0-3.0-0.20","subject_id":"60358679c69b6f3499e2fdf5","study_id":"605e2a800ccfa0c8e820d869","session_id":"60622097e2bba1ee8e5bd2f5"},{"rt":6759.760000000824,"stimulus":"img/00592.png","slider_start":4,"response":5,"trial_type":"image-slider-response","trial_index":24,"time_elapsed":321418,"internal_node_id":"0.0-3.0-0.21","subject_id":"60358679c69b6f3499e2fdf5","study_id":"605e2a800ccfa0c8e820d869","session_id":"60622097e2bba1ee8e5bd2f5"},{"rt":15324.274999999034,"stimulus":"img/00126.png","slider_start":4,"response":6,"trial_type":"image-slider-response","trial_index":25,"time_elapsed":336745,"internal_node_id":"0.0-3.0-0.22","subject_id":"60358679c69b6f3499e2fdf5","study_id":"605e2a800ccfa0c8e820d869","session_id":"60622097e2bba1ee8e5bd2f5"},{"rt":15861.35999999533,"stimulus":"img/00440.png","slider_start":4,"response":5,"trial_type":"image-slider-response","trial_index":26,"time_elapsed":352609,"internal_node_id":"0.0-3.0-0.23","subject_id":"60358679c69b6f3499e2fdf5","study_id":"605e2a800ccfa0c8e820d869","session_id":"60622097e2bba1ee8e5bd2f5"},{"rt":12120.504999998957,"stimulus":"img/00867.png","slider_start":4,"response":7,"trial_type":"image-slider-response","trial_index":27,"time_elapsed":364732,"internal_node_id":"0.0-3.0-0.24","subject_id":"60358679c69b6f3499e2fdf5","study_id":"605e2a800ccfa0c8e820d869","session_id":"60622097e2bba1ee8e5bd2f5"},{"rt":3367.969999999332,"stimulus":"img/00822.png","slider_start":4,"response":1,"trial_type":"image-slider-response","trial_index":28,"time_elapsed":368102,"internal_node_id":"0.0-3.0-0.25","subject_id":"60358679c69b6f3499e2fdf5","study_id":"605e2a800ccfa0c8e820d869","session_id":"60622097e2bba1ee8e5bd2f5"},{"rt":5585.384999998496,"stimulus":"img/00114.png","slider_start":4,"response":5,"trial_type":"image-slider-response","trial_index":29,"time_elapsed":373690,"internal_node_id":"0.0-3.0-0.26","subject_id":"60358679c69b6f3499e2fdf5","study_id":"605e2a800ccfa0c8e820d869","session_id":"60622097e2bba1ee8e5bd2f5"},{"rt":6452.560000005178,"stimulus":"img/00793.png","slider_start":4,"response":5,"trial_type":"image-slider-response","trial_index":30,"time_elapsed":380145,"internal_node_id":"0.0-3.0-0.27","subject_id":"60358679c69b6f3499e2fdf5","study_id":"605e2a800ccfa0c8e820d869","session_id":"60622097e2bba1ee8e5bd2f5"},{"rt":12800.00000000291,"stimulus":"img/00600.png","slider_start":4,"response":1,"trial_type":"image-slider-response","trial_index":31,"time_elapsed":392948,"internal_node_id":"0.0-3.0-0.28","subject_id":"60358679c69b6f3499e2fdf5","study_id":"605e2a800ccfa0c8e820d869","session_id":"60622097e2bba1ee8e5bd2f5"},{"rt":9496.225000002596,"stimulus":"img/00011.png","slider_start":4,"response":5,"trial_type":"image-slider-response","trial_index":32,"time_elapsed":402449,"internal_node_id":"0.0-3.0-0.29","subject_id":"60358679c69b6f3499e2fdf5","study_id":"605e2a800ccfa0c8e820d869","session_id":"60622097e2bba1ee8e5bd2f5"},{"rt":6991.819999995641,"stimulus":"img/00040.png","slider_start":4,"response":5,"trial_type":"image-slider-response","trial_index":33,"time_elapsed":409444,"internal_node_id":"0.0-3.0-0.30","subject_id":"60358679c69b6f3499e2fdf5","study_id":"605e2a800ccfa0c8e820d869","session_id":"60622097e2bba1ee8e5bd2f5"},{"rt":2078.8900000043213,"stimulus":"img/00718.png","slider_start":4,"response":1,"trial_type":"image-slider-response","trial_index":34,"time_elapsed":411525,"internal_node_id":"0.0-3.0-0.31","subject_id":"60358679c69b6f3499e2fdf5","study_id":"605e2a800ccfa0c8e820d869","session_id":"60622097e2bba1ee8e5bd2f5"},{"rt":2012.6900000032037,"stimulus":"img/00991.png","slider_start":4,"response":1,"trial_type":"image-slider-response","trial_index":35,"time_elapsed":413541,"internal_node_id":"0.0-3.0-0.32","subject_id":"60358679c69b6f3499e2fdf5","study_id":"605e2a800ccfa0c8e820d869","session_id":"60622097e2bba1ee8e5bd2f5"},{"rt":1988.710000005085,"stimulus":"img/00462.png","slider_start":4,"response":5,"trial_type":"image-slider-response","trial_index":36,"time_elapsed":415532,"internal_node_id":"0.0-3.0-0.33","subject_id":"60358679c69b6f3499e2fdf5","study_id":"605e2a800ccfa0c8e820d869","session_id":"60622097e2bba1ee8e5bd2f5"},{"rt":3282.695000001695,"stimulus":"img/40.png","slider_start":4,"response":1,"trial_type":"image-slider-response","trial_index":37,"time_elapsed":418816,"internal_node_id":"0.0-3.0-0.34","subject_id":"60358679c69b6f3499e2fdf5","study_id":"605e2a800ccfa0c8e820d869","session_id":"60622097e2bba1ee8e5bd2f5"},{"rt":10546.175000003132,"stimulus":"img/00631.png","slider_start":4,"response":5,"trial_type":"image-slider-response","trial_index":38,"time_elapsed":429365,"internal_node_id":"0.0-3.0-0.35","subject_id":"60358679c69b6f3499e2fdf5","study_id":"605e2a800ccfa0c8e820d869","session_id":"60622097e2bba1ee8e5bd2f5"},{"rt":2117.0300000012503,"stimulus":"img/00988.png","slider_start":4,"response":5,"trial_type":"image-slider-response","trial_index":39,"time_elapsed":431484,"internal_node_id":"0.0-3.0-0.36","subject_id":"60358679c69b6f3499e2fdf5","study_id":"605e2a800ccfa0c8e820d869","session_id":"60622097e2bba1ee8e5bd2f5"},{"rt":4324.860000000626,"stimulus":"img/00811.png","slider_start":4,"response":2,"trial_type":"image-slider-response","trial_index":40,"time_elapsed":435811,"internal_node_id":"0.0-3.0-0.37","subject_id":"60358679c69b6f3499e2fdf5","study_id":"605e2a800ccfa0c8e820d869","session_id":"60622097e2bba1ee8e5bd2f5"},{"rt":1656.7349999968428,"stimulus":"img/00561.png","slider_start":4,"response":2,"trial_type":"image-slider-response","trial_index":41,"time_elapsed":437470,"internal_node_id":"0.0-3.0-0.38","subject_id":"60358679c69b6f3499e2fdf5","study_id":"605e2a800ccfa0c8e820d869","session_id":"60622097e2bba1ee8e5bd2f5"},{"rt":1964.1449999980978,"stimulus":"img/00460.png","slider_start":4,"response":5,"trial_type":"image-slider-response","trial_index":42,"time_elapsed":439437,"internal_node_id":"0.0-3.0-0.39","subject_id":"60358679c69b6f3499e2fdf5","study_id":"605e2a800ccfa0c8e820d869","session_id":"60622097e2bba1ee8e5bd2f5"},{"rt":1821.6650000031223,"stimulus":"img/00748.png","slider_start":4,"response":2,"trial_type":"image-slider-response","trial_index":43,"time_elapsed":441261,"internal_node_id":"0.0-3.0-0.40","subject_id":"60358679c69b6f3499e2fdf5","study_id":"605e2a800ccfa0c8e820d869","session_id":"60622097e2bba1ee8e5bd2f5"},{"rt":3660.2700000003097,"stimulus":"img/00722.png","slider_start":4,"response":5,"trial_type":"image-slider-response","trial_index":44,"time_elapsed":444923,"internal_node_id":"0.0-3.0-0.41","subject_id":"60358679c69b6f3499e2fdf5","study_id":"605e2a800ccfa0c8e820d869","session_id":"60622097e2bba1ee8e5bd2f5"},{"rt":2773.074999997334,"stimulus":"img/00048.png","slider_start":4,"response":2,"trial_type":"image-slider-response","trial_index":45,"time_elapsed":447699,"internal_node_id":"0.0-3.0-0.42","subject_id":"60358679c69b6f3499e2fdf5","study_id":"605e2a800ccfa0c8e820d869","session_id":"60622097e2bba1ee8e5bd2f5"},{"rt":4118.354999998701,"stimulus":"img/00469.png","slider_start":4,"response":7,"trial_type":"image-slider-response","trial_index":46,"time_elapsed":451820,"internal_node_id":"0.0-3.0-0.43","subject_id":"60358679c69b6f3499e2fdf5","study_id":"605e2a800ccfa0c8e820d869","session_id":"60622097e2bba1ee8e5bd2f5"},{"rt":2023.2550000000629,"stimulus":"img/00760.png","slider_start":4,"response":2,"trial_type":"image-slider-response","trial_index":47,"time_elapsed":453846,"internal_node_id":"0.0-3.0-0.44","subject_id":"60358679c69b6f3499e2fdf5","study_id":"605e2a800ccfa0c8e820d869","session_id":"60622097e2bba1ee8e5bd2f5"},{"rt":3843.039999999746,"stimulus":"img/00464.png","slider_start":4,"response":2,"trial_type":"image-slider-response","trial_index":48,"time_elapsed":457691,"internal_node_id":"0.0-3.0-0.45","subject_id":"60358679c69b6f3499e2fdf5","study_id":"605e2a800ccfa0c8e820d869","session_id":"60622097e2bba1ee8e5bd2f5"},{"rt":3981.934999996156,"stimulus":"img/00101.png","slider_start":4,"response":2,"trial_type":"image-slider-response","trial_index":49,"time_elapsed":461675,"internal_node_id":"0.0-3.0-0.46","subject_id":"60358679c69b6f3499e2fdf5","study_id":"605e2a800ccfa0c8e820d869","session_id":"60622097e2bba1ee8e5bd2f5"},{"rt":2390.9899999998743,"stimulus":"img/00507.png","slider_start":4,"response":5,"trial_type":"image-slider-response","trial_index":50,"time_elapsed":464069,"internal_node_id":"0.0-3.0-0.47","subject_id":"60358679c69b6f3499e2fdf5","study_id":"605e2a800ccfa0c8e820d869","session_id":"60622097e2bba1ee8e5bd2f5"},{"rt":9827.510000002803,"stimulus":"img/00447.png","slider_start":4,"response":2,"trial_type":"image-slider-response","trial_index":51,"time_elapsed":473898,"internal_node_id":"0.0-3.0-0.48","subject_id":"60358679c69b6f3499e2fdf5","study_id":"605e2a800ccfa0c8e820d869","session_id":"60622097e2bba1ee8e5bd2f5"},{"rt":4438.145000000077,"stimulus":"img/00841.png","slider_start":4,"response":2,"trial_type":"image-slider-response","trial_index":52,"time_elapsed":478340,"internal_node_id":"0.0-3.0-0.49","subject_id":"60358679c69b6f3499e2fdf5","study_id":"605e2a800ccfa0c8e820d869","session_id":"60622097e2bba1ee8e5bd2f5"},{"rt":5956.059999996796,"stimulus":"img/00428.png","slider_start":4,"response":2,"trial_type":"image-slider-response","trial_index":53,"time_elapsed":484298,"internal_node_id":"0.0-3.0-0.50","subject_id":"60358679c69b6f3499e2fdf5","study_id":"605e2a800ccfa0c8e820d869","session_id":"60622097e2bba1ee8e5bd2f5"},{"rt":2726.490000000922,"stimulus":"img/00432.png","slider_start":4,"response":7,"trial_type":"image-slider-response","trial_index":54,"time_elapsed":487028,"internal_node_id":"0.0-3.0-0.51","subject_id":"60358679c69b6f3499e2fdf5","study_id":"605e2a800ccfa0c8e820d869","session_id":"60622097e2bba1ee8e5bd2f5"},{"rt":3193.075000002864,"stimulus":"img/00930.png","slider_start":4,"response":5,"trial_type":"image-slider-response","trial_index":55,"time_elapsed":490223,"internal_node_id":"0.0-3.0-0.52","subject_id":"60358679c69b6f3499e2fdf5","study_id":"605e2a800ccfa0c8e820d869","session_id":"60622097e2bba1ee8e5bd2f5"},{"rt":2733.3900000012363,"stimulus":"img/00898.png","slider_start":4,"response":1,"trial_type":"image-slider-response","trial_index":56,"time_elapsed":492958,"internal_node_id":"0.0-3.0-0.53","subject_id":"60358679c69b6f3499e2fdf5","study_id":"605e2a800ccfa0c8e820d869","session_id":"60622097e2bba1ee8e5bd2f5"},{"rt":2862.6599999988684,"stimulus":"img/00618.png","slider_start":4,"response":7,"trial_type":"image-slider-response","trial_index":57,"time_elapsed":495823,"internal_node_id":"0.0-3.0-0.54","subject_id":"60358679c69b6f3499e2fdf5","study_id":"605e2a800ccfa0c8e820d869","session_id":"60622097e2bba1ee8e5bd2f5"},{"rt":2779.9549999981537,"stimulus":"img/00543.png","slider_start":4,"response":1,"trial_type":"image-slider-response","trial_index":58,"time_elapsed":498605,"internal_node_id":"0.0-3.0-0.55","subject_id":"60358679c69b6f3499e2fdf5","study_id":"605e2a800ccfa0c8e820d869","session_id":"60622097e2bba1ee8e5bd2f5"},{"rt":2968.1449999989127,"stimulus":"img/00853.png","slider_start":4,"response":5,"trial_type":"image-slider-response","trial_index":59,"time_elapsed":501577,"internal_node_id":"0.0-3.0-0.56","subject_id":"60358679c69b6f3499e2fdf5","study_id":"605e2a800ccfa0c8e820d869","session_id":"60622097e2bba1ee8e5bd2f5"},{"rt":3994.425000004412,"stimulus":"img/00418.png","slider_start":4,"response":5,"trial_type":"image-slider-response","trial_index":60,"time_elapsed":505573,"internal_node_id":"0.0-3.0-0.57","subject_id":"60358679c69b6f3499e2fdf5","study_id":"605e2a800ccfa0c8e820d869","session_id":"60622097e2bba1ee8e5bd2f5"},{"rt":2587.680000004184,"stimulus":"img/00629.png","slider_start":4,"response":5,"trial_type":"image-slider-response","trial_index":61,"time_elapsed":508166,"internal_node_id":"0.0-3.0-0.58","subject_id":"60358679c69b6f3499e2fdf5","study_id":"605e2a800ccfa0c8e820d869","session_id":"60622097e2bba1ee8e5bd2f5"},{"rt":1942.155000004277,"stimulus":"img/00545.png","slider_start":4,"response":1,"trial_type":"image-slider-response","trial_index":62,"time_elapsed":510111,"internal_node_id":"0.0-3.0-0.59","subject_id":"60358679c69b6f3499e2fdf5","study_id":"605e2a800ccfa0c8e820d869","session_id":"60622097e2bba1ee8e5bd2f5"},{"rt":2660.2549999952316,"stimulus":"img/00016.png","slider_start":4,"response":1,"trial_type":"image-slider-response","trial_index":63,"time_elapsed":512773,"internal_node_id":"0.0-3.0-0.60","subject_id":"60358679c69b6f3499e2fdf5","study_id":"605e2a800ccfa0c8e820d869","session_id":"60622097e2bba1ee8e5bd2f5"},{"rt":2926.7849999960163,"stimulus":"img/00833.png","slider_start":4,"response":5,"trial_type":"image-slider-response","trial_index":64,"time_elapsed":515703,"internal_node_id":"0.0-3.0-0.61","subject_id":"60358679c69b6f3499e2fdf5","study_id":"605e2a800ccfa0c8e820d869","session_id":"60622097e2bba1ee8e5bd2f5"},{"rt":3103.484999999637,"stimulus":"img/00799.png","slider_start":4,"response":1,"trial_type":"image-slider-response","trial_index":65,"time_elapsed":518809,"internal_node_id":"0.0-3.0-0.62","subject_id":"60358679c69b6f3499e2fdf5","study_id":"605e2a800ccfa0c8e820d869","session_id":"60622097e2bba1ee8e5bd2f5"},{"rt":3840.3499999985797,"stimulus":"img/00100.png","slider_start":4,"response":6,"trial_type":"image-slider-response","trial_index":66,"time_elapsed":522653,"internal_node_id":"0.0-3.0-0.63","subject_id":"60358679c69b6f3499e2fdf5","study_id":"605e2a800ccfa0c8e820d869","session_id":"60622097e2bba1ee8e5bd2f5"},{"rt":2220.50499999756,"stimulus":"img/00406.png","slider_start":4,"response":5,"trial_type":"image-slider-response","trial_index":67,"time_elapsed":524876,"internal_node_id":"0.0-3.0-0.64","subject_id":"60358679c69b6f3499e2fdf5","study_id":"605e2a800ccfa0c8e820d869","session_id":"60622097e2bba1ee8e5bd2f5"},{"rt":1665.90499999444,"stimulus":"img/00815.png","slider_start":4,"response":5,"trial_type":"image-slider-response","trial_index":68,"time_elapsed":526544,"internal_node_id":"0.0-3.0-0.65","subject_id":"60358679c69b6f3499e2fdf5","study_id":"605e2a800ccfa0c8e820d869","session_id":"60622097e2bba1ee8e5bd2f5"},{"rt":3119.9599999962375,"stimulus":"img/00761.png","slider_start":4,"response":7,"trial_type":"image-slider-response","trial_index":69,"time_elapsed":529666,"internal_node_id":"0.0-3.0-0.66","subject_id":"60358679c69b6f3499e2fdf5","study_id":"605e2a800ccfa0c8e820d869","session_id":"60622097e2bba1ee8e5bd2f5"},{"rt":4794.734999995795,"stimulus":"img/00105.png","slider_start":4,"response":6,"trial_type":"image-slider-response","trial_index":70,"time_elapsed":534463,"internal_node_id":"0.0-3.0-0.67","subject_id":"60358679c69b6f3499e2fdf5","study_id":"605e2a800ccfa0c8e820d869","session_id":"60622097e2bba1ee8e5bd2f5"},{"rt":6286.100000004866,"stimulus":"img/00842.png","slider_start":4,"response":7,"trial_type":"image-slider-response","trial_index":71,"time_elapsed":540752,"internal_node_id":"0.0-3.0-0.68","subject_id":"60358679c69b6f3499e2fdf5","study_id":"605e2a800ccfa0c8e820d869","session_id":"60622097e2bba1ee8e5bd2f5"},{"rt":5238.890000000596,"stimulus":"img/00479.png","slider_start":4,"response":6,"trial_type":"image-slider-response","trial_index":72,"time_elapsed":545993,"internal_node_id":"0.0-3.0-0.69","subject_id":"60358679c69b6f3499e2fdf5","study_id":"605e2a800ccfa0c8e820d869","session_id":"60622097e2bba1ee8e5bd2f5"},{"rt":3197.1899999988964,"stimulus":"img/00785.png","slider_start":4,"response":6,"trial_type":"image-slider-response","trial_index":73,"time_elapsed":549193,"internal_node_id":"0.0-3.0-0.70","subject_id":"60358679c69b6f3499e2fdf5","study_id":"605e2a800ccfa0c8e820d869","session_id":"60622097e2bba1ee8e5bd2f5"},{"rt":2159.8849999936065,"stimulus":"img/00045.png","slider_start":4,"response":1,"trial_type":"image-slider-response","trial_index":74,"time_elapsed":551355,"internal_node_id":"0.0-3.0-0.71","subject_id":"60358679c69b6f3499e2fdf5","study_id":"605e2a800ccfa0c8e820d869","session_id":"60622097e2bba1ee8e5bd2f5"},{"rt":2243.140000005951,"stimulus":"img/00879.png","slider_start":4,"response":6,"trial_type":"image-slider-response","trial_index":75,"time_elapsed":553601,"internal_node_id":"0.0-3.0-0.72","subject_id":"60358679c69b6f3499e2fdf5","study_id":"605e2a800ccfa0c8e820d869","session_id":"60622097e2bba1ee8e5bd2f5"},{"rt":3169.6999999985565,"stimulus":"img/00404.png","slider_start":4,"response":5,"trial_type":"image-slider-response","trial_index":76,"time_elapsed":556773,"internal_node_id":"0.0-3.0-0.73","subject_id":"60358679c69b6f3499e2fdf5","study_id":"605e2a800ccfa0c8e820d869","session_id":"60622097e2bba1ee8e5bd2f5"},{"rt":2878.494999997318,"stimulus":"img/00041.png","slider_start":4,"response":7,"trial_type":"image-slider-response","trial_index":77,"time_elapsed":559654,"internal_node_id":"0.0-3.0-0.74","subject_id":"60358679c69b6f3499e2fdf5","study_id":"605e2a800ccfa0c8e820d869","session_id":"60622097e2bba1ee8e5bd2f5"},{"rt":4073.4049999954877,"stimulus":"img/00504.png","slider_start":4,"response":5,"trial_type":"image-slider-response","trial_index":78,"time_elapsed":563730,"internal_node_id":"0.0-3.0-0.75","subject_id":"60358679c69b6f3499e2fdf5","study_id":"605e2a800ccfa0c8e820d869","session_id":"60622097e2bba1ee8e5bd2f5"},{"rt":2190.2899999986403,"stimulus":"img/00982.png","slider_start":4,"response":1,"trial_type":"image-slider-response","trial_index":79,"time_elapsed":565923,"internal_node_id":"0.0-3.0-0.76","subject_id":"60358679c69b6f3499e2fdf5","study_id":"605e2a800ccfa0c8e820d869","session_id":"60622097e2bba1ee8e5bd2f5"},{"rt":2475.2700000025798,"stimulus":"img/00055.png","slider_start":4,"response":7,"trial_type":"image-slider-response","trial_index":80,"time_elapsed":568400,"internal_node_id":"0.0-3.0-0.77","subject_id":"60358679c69b6f3499e2fdf5","study_id":"605e2a800ccfa0c8e820d869","session_id":"60622097e2bba1ee8e5bd2f5"},{"rt":2104.910000001779,"stimulus":"img/00951.png","slider_start":4,"response":2,"trial_type":"image-slider-response","trial_index":81,"time_elapsed":570508,"internal_node_id":"0.0-3.0-0.78","subject_id":"60358679c69b6f3499e2fdf5","study_id":"605e2a800ccfa0c8e820d869","session_id":"60622097e2bba1ee8e5bd2f5"},{"rt":1960.254999998142,"stimulus":"img/00780.png","slider_start":4,"response":1,"trial_type":"image-slider-response","trial_index":82,"time_elapsed":572470,"internal_node_id":"0.0-3.0-0.79","subject_id":"60358679c69b6f3499e2fdf5","study_id":"605e2a800ccfa0c8e820d869","session_id":"60622097e2bba1ee8e5bd2f5"},{"rt":1556.9049999976996,"stimulus":"img/00503.png","slider_start":4,"response":1,"trial_type":"image-slider-response","trial_index":83,"time_elapsed":574030,"internal_node_id":"0.0-3.0-0.80","subject_id":"60358679c69b6f3499e2fdf5","study_id":"605e2a800ccfa0c8e820d869","session_id":"60622097e2bba1ee8e5bd2f5"},{"rt":3182.0950000038138,"stimulus":"img/00525.png","slider_start":4,"response":5,"trial_type":"image-slider-response","trial_index":84,"time_elapsed":577215,"internal_node_id":"0.0-3.0-0.81","subject_id":"60358679c69b6f3499e2fdf5","study_id":"605e2a800ccfa0c8e820d869","session_id":"60622097e2bba1ee8e5bd2f5"},{"rt":7567.699999999604,"stimulus":"img/00115.png","slider_start":4,"response":3,"trial_type":"image-slider-response","trial_index":85,"time_elapsed":584785,"internal_node_id":"0.0-3.0-0.82","subject_id":"60358679c69b6f3499e2fdf5","study_id":"605e2a800ccfa0c8e820d869","session_id":"60622097e2bba1ee8e5bd2f5"},{"rt":3720.789999999455,"stimulus":"img/00481.png","slider_start":4,"response":1,"trial_type":"image-slider-response","trial_index":86,"time_elapsed":588509,"internal_node_id":"0.0-3.0-0.83","subject_id":"60358679c69b6f3499e2fdf5","study_id":"605e2a800ccfa0c8e820d869","session_id":"60622097e2bba1ee8e5bd2f5"},{"rt":3565.3650000022026,"stimulus":"img/00424.png","slider_start":4,"response":1,"trial_type":"image-slider-response","trial_index":87,"time_elapsed":592077,"internal_node_id":"0.0-3.0-0.84","subject_id":"60358679c69b6f3499e2fdf5","study_id":"605e2a800ccfa0c8e820d869","session_id":"60622097e2bba1ee8e5bd2f5"},{"rt":3907.1750000002794,"stimulus":"img/00998.png","slider_start":4,"response":6,"trial_type":"image-slider-response","trial_index":88,"time_elapsed":595986,"internal_node_id":"0.0-3.0-0.85","subject_id":"60358679c69b6f3499e2fdf5","study_id":"605e2a800ccfa0c8e820d869","session_id":"60622097e2bba1ee8e5bd2f5"},{"rt":2143.949999997858,"stimulus":"img/00693.png","slider_start":4,"response":1,"trial_type":"image-slider-response","trial_index":89,"time_elapsed":598132,"internal_node_id":"0.0-3.0-0.86","subject_id":"60358679c69b6f3499e2fdf5","study_id":"605e2a800ccfa0c8e820d869","session_id":"60622097e2bba1ee8e5bd2f5"},{"rt":4226.389999996172,"stimulus":"img/00064.png","slider_start":4,"response":6,"trial_type":"image-slider-response","trial_index":90,"time_elapsed":602360,"internal_node_id":"0.0-3.0-0.87","subject_id":"60358679c69b6f3499e2fdf5","study_id":"605e2a800ccfa0c8e820d869","session_id":"60622097e2bba1ee8e5bd2f5"},{"rt":1992.1400000022259,"stimulus":"img/00747.png","slider_start":4,"response":7,"trial_type":"image-slider-response","trial_index":91,"time_elapsed":604355,"internal_node_id":"0.0-3.0-0.88","subject_id":"60358679c69b6f3499e2fdf5","study_id":"605e2a800ccfa0c8e820d869","session_id":"60622097e2bba1ee8e5bd2f5"},{"rt":3021.9500000021653,"stimulus":"img/00755.png","slider_start":4,"response":5,"trial_type":"image-slider-response","trial_index":92,"time_elapsed":607379,"internal_node_id":"0.0-3.0-0.89","subject_id":"60358679c69b6f3499e2fdf5","study_id":"605e2a800ccfa0c8e820d869","session_id":"60622097e2bba1ee8e5bd2f5"},{"rt":2286.8300000044983,"stimulus":"img/00559.png","slider_start":4,"response":1,"trial_type":"image-slider-response","trial_index":93,"time_elapsed":609669,"internal_node_id":"0.0-3.0-0.90","subject_id":"60358679c69b6f3499e2fdf5","study_id":"605e2a800ccfa0c8e820d869","session_id":"60622097e2bba1ee8e5bd2f5"},{"rt":1802.8049999992363,"stimulus":"img/00037.png","slider_start":4,"response":1,"trial_type":"image-slider-response","trial_index":94,"time_elapsed":611474,"internal_node_id":"0.0-3.0-0.91","subject_id":"60358679c69b6f3499e2fdf5","study_id":"605e2a800ccfa0c8e820d869","session_id":"60622097e2bba1ee8e5bd2f5"},{"rt":3590.5800000038,"stimulus":"img/00854.png","slider_start":4,"response":7,"trial_type":"image-slider-response","trial_index":95,"time_elapsed":615067,"internal_node_id":"0.0-3.0-0.92","subject_id":"60358679c69b6f3499e2fdf5","study_id":"605e2a800ccfa0c8e820d869","session_id":"60622097e2bba1ee8e5bd2f5"},{"rt":2772.7949999971315,"stimulus":"img/00438.png","slider_start":4,"response":1,"trial_type":"image-slider-response","trial_index":96,"time_elapsed":617843,"internal_node_id":"0.0-3.0-0.93","subject_id":"60358679c69b6f3499e2fdf5","study_id":"605e2a800ccfa0c8e820d869","session_id":"60622097e2bba1ee8e5bd2f5"},{"rt":2927.9200000019046,"stimulus":"img/00779.png","slider_start":4,"response":1,"trial_type":"image-slider-response","trial_index":97,"time_elapsed":620774,"internal_node_id":"0.0-3.0-0.94","subject_id":"60358679c69b6f3499e2fdf5","study_id":"605e2a800ccfa0c8e820d869","session_id":"60622097e2bba1ee8e5bd2f5"},{"rt":19454.494999998016,"stimulus":"img/00759.png","slider_start":4,"response":4,"trial_type":"image-slider-response","trial_index":98,"time_elapsed":640231,"internal_node_id":"0.0-3.0-0.95","subject_id":"60358679c69b6f3499e2fdf5","study_id":"605e2a800ccfa0c8e820d869","session_id":"60622097e2bba1ee8e5bd2f5"},{"rt":2123.205000003567,"stimulus":"img/00973.png","slider_start":4,"response":4,"trial_type":"image-slider-response","trial_index":99,"time_elapsed":642357,"internal_node_id":"0.0-3.0-0.96","subject_id":"60358679c69b6f3499e2fdf5","study_id":"605e2a800ccfa0c8e820d869","session_id":"60622097e2bba1ee8e5bd2f5"},{"rt":8402.195000002393,"stimulus":"img/00023.png","slider_start":4,"response":2,"trial_type":"image-slider-response","trial_index":100,"time_elapsed":650761,"internal_node_id":"0.0-3.0-0.97","subject_id":"60358679c69b6f3499e2fdf5","study_id":"605e2a800ccfa0c8e820d869","session_id":"60622097e2bba1ee8e5bd2f5"},{"rt":3137.5699999990175,"stimulus":"img/00415.png","slider_start":4,"response":2,"trial_type":"image-slider-response","trial_index":101,"time_elapsed":653901,"internal_node_id":"0.0-3.0-0.98","subject_id":"60358679c69b6f3499e2fdf5","study_id":"605e2a800ccfa0c8e820d869","session_id":"60622097e2bba1ee8e5bd2f5"},{"rt":2085.845000001369,"stimulus":"img/00015.png","slider_start":4,"response":6,"trial_type":"image-slider-response","trial_index":102,"time_elapsed":655989,"internal_node_id":"0.0-3.0-0.99","subject_id":"60358679c69b6f3499e2fdf5","study_id":"605e2a800ccfa0c8e820d869","session_id":"60622097e2bba1ee8e5bd2f5"},{"rt":2345.04000000027,"stimulus":"img/00689.png","slider_start":4,"response":1,"trial_type":"image-slider-response","trial_index":103,"time_elapsed":658336,"internal_node_id":"0.0-3.0-0.100","subject_id":"60358679c69b6f3499e2fdf5","study_id":"605e2a800ccfa0c8e820d869","session_id":"60622097e2bba1ee8e5bd2f5"},{"rt":2871.5899999951944,"stimulus":"img/00059.png","slider_start":4,"response":7,"trial_type":"image-slider-response","trial_index":104,"time_elapsed":661210,"internal_node_id":"0.0-3.0-0.101","subject_id":"60358679c69b6f3499e2fdf5","study_id":"605e2a800ccfa0c8e820d869","session_id":"60622097e2bba1ee8e5bd2f5"},{"rt":3135.900000001071,"stimulus":"img/00563.png","slider_start":4,"response":1,"trial_type":"image-slider-response","trial_index":105,"time_elapsed":664348,"internal_node_id":"0.0-3.0-0.102","subject_id":"60358679c69b6f3499e2fdf5","study_id":"605e2a800ccfa0c8e820d869","session_id":"60622097e2bba1ee8e5bd2f5"},{"rt":2514.9349999993574,"stimulus":"img/00768.png","slider_start":4,"response":1,"trial_type":"image-slider-response","trial_index":106,"time_elapsed":666865,"internal_node_id":"0.0-3.0-0.103","subject_id":"60358679c69b6f3499e2fdf5","study_id":"605e2a800ccfa0c8e820d869","session_id":"60622097e2bba1ee8e5bd2f5"},{"rt":2483.6250000006985,"stimulus":"img/00542.png","slider_start":4,"response":4,"trial_type":"image-slider-response","trial_index":107,"time_elapsed":669351,"internal_node_id":"0.0-3.0-0.104","subject_id":"60358679c69b6f3499e2fdf5","study_id":"605e2a800ccfa0c8e820d869","session_id":"60622097e2bba1ee8e5bd2f5"},{"rt":1892.2550000060583,"stimulus":"img/00928.png","slider_start":4,"response":4,"trial_type":"image-slider-response","trial_index":108,"time_elapsed":671245,"internal_node_id":"0.0-3.0-0.105","subject_id":"60358679c69b6f3499e2fdf5","study_id":"605e2a800ccfa0c8e820d869","session_id":"60622097e2bba1ee8e5bd2f5"},{"rt":1692.094999998575,"stimulus":"img/00926.png","slider_start":4,"response":4,"trial_type":"image-slider-response","trial_index":109,"time_elapsed":672939,"internal_node_id":"0.0-3.0-0.106","subject_id":"60358679c69b6f3499e2fdf5","study_id":"605e2a800ccfa0c8e820d869","session_id":"60622097e2bba1ee8e5bd2f5"},{"rt":3926.195000000065,"stimulus":"img/00756.png","slider_start":4,"response":5,"trial_type":"image-slider-response","trial_index":110,"time_elapsed":676867,"internal_node_id":"0.0-3.0-0.107","subject_id":"60358679c69b6f3499e2fdf5","study_id":"605e2a800ccfa0c8e820d869","session_id":"60622097e2bba1ee8e5bd2f5"},{"rt":3457.1649999998044,"stimulus":"img/00773.png","slider_start":4,"response":6,"trial_type":"image-slider-response","trial_index":111,"time_elapsed":680328,"internal_node_id":"0.0-3.0-0.108","subject_id":"60358679c69b6f3499e2fdf5","study_id":"605e2a800ccfa0c8e820d869","session_id":"60622097e2bba1ee8e5bd2f5"},{"rt":3367.355000002077,"stimulus":"img/00731.png","slider_start":4,"response":2,"trial_type":"image-slider-response","trial_index":112,"time_elapsed":683697,"internal_node_id":"0.0-3.0-0.109","subject_id":"60358679c69b6f3499e2fdf5","study_id":"605e2a800ccfa0c8e820d869","session_id":"60622097e2bba1ee8e5bd2f5"},{"rt":2506.3250000021653,"stimulus":"img/00130.png","slider_start":4,"response":5,"trial_type":"image-slider-response","trial_index":113,"time_elapsed":686206,"internal_node_id":"0.0-3.0-0.110","subject_id":"60358679c69b6f3499e2fdf5","study_id":"605e2a800ccfa0c8e820d869","session_id":"60622097e2bba1ee8e5bd2f5"},{"rt":2558.0400000035297,"stimulus":"img/00690.png","slider_start":4,"response":5,"trial_type":"image-slider-response","trial_index":114,"time_elapsed":688766,"internal_node_id":"0.0-3.0-0.111","subject_id":"60358679c69b6f3499e2fdf5","study_id":"605e2a800ccfa0c8e820d869","session_id":"60622097e2bba1ee8e5bd2f5"},{"rt":6310.375000000931,"stimulus":"img/00489.png","slider_start":4,"response":1,"trial_type":"image-slider-response","trial_index":115,"time_elapsed":695079,"internal_node_id":"0.0-3.0-0.112","subject_id":"60358679c69b6f3499e2fdf5","study_id":"605e2a800ccfa0c8e820d869","session_id":"60622097e2bba1ee8e5bd2f5"},{"rt":2567.7100000029895,"stimulus":"img/00603.png","slider_start":4,"response":1,"trial_type":"image-slider-response","trial_index":116,"time_elapsed":697649,"internal_node_id":"0.0-3.0-0.113","subject_id":"60358679c69b6f3499e2fdf5","study_id":"605e2a800ccfa0c8e820d869","session_id":"60622097e2bba1ee8e5bd2f5"},{"rt":6026.720000001602,"stimulus":"img/00902.png","slider_start":4,"response":5,"trial_type":"image-slider-response","trial_index":117,"time_elapsed":703677,"internal_node_id":"0.0-3.0-0.114","subject_id":"60358679c69b6f3499e2fdf5","study_id":"605e2a800ccfa0c8e820d869","session_id":"60622097e2bba1ee8e5bd2f5"},{"rt":2750.0599999985425,"stimulus":"img/00949.png","slider_start":4,"response":5,"trial_type":"image-slider-response","trial_index":118,"time_elapsed":706429,"internal_node_id":"0.0-3.0-0.115","subject_id":"60358679c69b6f3499e2fdf5","study_id":"605e2a800ccfa0c8e820d869","session_id":"60622097e2bba1ee8e5bd2f5"},{"rt":6387.364999994985,"stimulus":"img/00789.png","slider_start":4,"response":5,"trial_type":"image-slider-response","trial_index":119,"time_elapsed":712820,"internal_node_id":"0.0-3.0-0.116","subject_id":"60358679c69b6f3499e2fdf5","study_id":"605e2a800ccfa0c8e820d869","session_id":"60622097e2bba1ee8e5bd2f5"},{"rt":2455.2049999983283,"stimulus":"img/00797.png","slider_start":4,"response":1,"trial_type":"image-slider-response","trial_index":120,"time_elapsed":715278,"internal_node_id":"0.0-3.0-0.117","subject_id":"60358679c69b6f3499e2fdf5","study_id":"605e2a800ccfa0c8e820d869","session_id":"60622097e2bba1ee8e5bd2f5"},{"rt":2228.0400000017835,"stimulus":"img/00957.png","slider_start":4,"response":1,"trial_type":"image-slider-response","trial_index":121,"time_elapsed":717508,"internal_node_id":"0.0-3.0-0.118","subject_id":"60358679c69b6f3499e2fdf5","study_id":"605e2a800ccfa0c8e820d869","session_id":"60622097e2bba1ee8e5bd2f5"},{"rt":2186.970000002533,"stimulus":"img/00511.png","slider_start":4,"response":4,"trial_type":"image-slider-response","trial_index":122,"time_elapsed":719697,"internal_node_id":"0.0-3.0-0.119","subject_id":"60358679c69b6f3499e2fdf5","study_id":"605e2a800ccfa0c8e820d869","session_id":"60622097e2bba1ee8e5bd2f5"},{"rt":3283.5550000017975,"stimulus":"img/00956.png","slider_start":4,"response":1,"trial_type":"image-slider-response","trial_index":123,"time_elapsed":722983,"internal_node_id":"0.0-3.0-0.120","subject_id":"60358679c69b6f3499e2fdf5","study_id":"605e2a800ccfa0c8e820d869","session_id":"60622097e2bba1ee8e5bd2f5"},{"rt":3229.1800000021467,"stimulus":"img/00483.png","slider_start":4,"response":3,"trial_type":"image-slider-response","trial_index":124,"time_elapsed":726214,"internal_node_id":"0.0-3.0-0.121","subject_id":"60358679c69b6f3499e2fdf5","study_id":"605e2a800ccfa0c8e820d869","session_id":"60622097e2bba1ee8e5bd2f5"},{"rt":1749.7849999999162,"stimulus":"img/00456.png","slider_start":4,"response":2,"trial_type":"image-slider-response","trial_index":125,"time_elapsed":727967,"internal_node_id":"0.0-3.0-0.122","subject_id":"60358679c69b6f3499e2fdf5","study_id":"605e2a800ccfa0c8e820d869","session_id":"60622097e2bba1ee8e5bd2f5"},{"rt":3103.1149999980116,"stimulus":"img/00472.png","slider_start":4,"response":4,"trial_type":"image-slider-response","trial_index":126,"time_elapsed":731072,"internal_node_id":"0.0-3.0-0.123","subject_id":"60358679c69b6f3499e2fdf5","study_id":"605e2a800ccfa0c8e820d869","session_id":"60622097e2bba1ee8e5bd2f5"},{"rt":4489.7750000017695,"stimulus":"img/00437.png","slider_start":4,"response":2,"trial_type":"image-slider-response","trial_index":127,"time_elapsed":735564,"internal_node_id":"0.0-3.0-0.124","subject_id":"60358679c69b6f3499e2fdf5","study_id":"605e2a800ccfa0c8e820d869","session_id":"60622097e2bba1ee8e5bd2f5"},{"rt":2672.0750000021653,"stimulus":"img/00688.png","slider_start":4,"response":6,"trial_type":"image-slider-response","trial_index":128,"time_elapsed":738240,"internal_node_id":"0.0-3.0-0.125","subject_id":"60358679c69b6f3499e2fdf5","study_id":"605e2a800ccfa0c8e820d869","session_id":"60622097e2bba1ee8e5bd2f5"},{"rt":2164.9400000022724,"stimulus":"img/00764.png","slider_start":4,"response":2,"trial_type":"image-slider-response","trial_index":129,"time_elapsed":740407,"internal_node_id":"0.0-3.0-0.126","subject_id":"60358679c69b6f3499e2fdf5","study_id":"605e2a800ccfa0c8e820d869","session_id":"60622097e2bba1ee8e5bd2f5"},{"rt":5840.985000002547,"stimulus":"img/00042.png","slider_start":4,"response":2,"trial_type":"image-slider-response","trial_index":130,"time_elapsed":746250,"internal_node_id":"0.0-3.0-0.127","subject_id":"60358679c69b6f3499e2fdf5","study_id":"605e2a800ccfa0c8e820d869","session_id":"60622097e2bba1ee8e5bd2f5"},{"rt":4690.135000004433,"stimulus":"img/00554.png","slider_start":4,"response":6,"trial_type":"image-slider-response","trial_index":131,"time_elapsed":750943,"internal_node_id":"0.0-3.0-0.128","subject_id":"60358679c69b6f3499e2fdf5","study_id":"605e2a800ccfa0c8e820d869","session_id":"60622097e2bba1ee8e5bd2f5"},{"rt":1782.5749999973923,"stimulus":"img/00623.png","slider_start":4,"response":5,"trial_type":"image-slider-response","trial_index":132,"time_elapsed":752728,"internal_node_id":"0.0-3.0-0.129","subject_id":"60358679c69b6f3499e2fdf5","study_id":"605e2a800ccfa0c8e820d869","session_id":"60622097e2bba1ee8e5bd2f5"},{"rt":2186.665000001085,"stimulus":"img/00967.png","slider_start":4,"response":2,"trial_type":"image-slider-response","trial_index":133,"time_elapsed":754917,"internal_node_id":"0.0-3.0-0.130","subject_id":"60358679c69b6f3499e2fdf5","study_id":"605e2a800ccfa0c8e820d869","session_id":"60622097e2bba1ee8e5bd2f5"},{"rt":1984.5599999971455,"stimulus":"img/00439.png","slider_start":4,"response":1,"trial_type":"image-slider-response","trial_index":134,"time_elapsed":756903,"internal_node_id":"0.0-3.0-0.131","subject_id":"60358679c69b6f3499e2fdf5","study_id":"605e2a800ccfa0c8e820d869","session_id":"60622097e2bba1ee8e5bd2f5"},{"rt":1910.0700000053039,"stimulus":"img/00986.png","slider_start":4,"response":1,"trial_type":"image-slider-response","trial_index":135,"time_elapsed":758816,"internal_node_id":"0.0-3.0-0.132","subject_id":"60358679c69b6f3499e2fdf5","study_id":"605e2a800ccfa0c8e820d869","session_id":"60622097e2bba1ee8e5bd2f5"},{"rt":5139.439999999013,"stimulus":"img/00989.png","slider_start":4,"response":1,"trial_type":"image-slider-response","trial_index":136,"time_elapsed":763958,"internal_node_id":"0.0-3.0-0.133","subject_id":"60358679c69b6f3499e2fdf5","study_id":"605e2a800ccfa0c8e820d869","session_id":"60622097e2bba1ee8e5bd2f5"},{"rt":3078.000000001397,"stimulus":"img/00564.png","slider_start":4,"response":5,"trial_type":"image-slider-response","trial_index":137,"time_elapsed":767038,"internal_node_id":"0.0-3.0-0.134","subject_id":"60358679c69b6f3499e2fdf5","study_id":"605e2a800ccfa0c8e820d869","session_id":"60622097e2bba1ee8e5bd2f5"},{"rt":2239.5400000023656,"stimulus":"img/00691.png","slider_start":4,"response":5,"trial_type":"image-slider-response","trial_index":138,"time_elapsed":769281,"internal_node_id":"0.0-3.0-0.135","subject_id":"60358679c69b6f3499e2fdf5","study_id":"605e2a800ccfa0c8e820d869","session_id":"60622097e2bba1ee8e5bd2f5"},{"rt":2229.384999998845,"stimulus":"img/00508.png","slider_start":4,"response":6,"trial_type":"image-slider-response","trial_index":139,"time_elapsed":771512,"internal_node_id":"0.0-3.0-0.136","subject_id":"60358679c69b6f3499e2fdf5","study_id":"605e2a800ccfa0c8e820d869","session_id":"60622097e2bba1ee8e5bd2f5"},{"rt":1865.4250000036554,"stimulus":"img/00612.png","slider_start":4,"response":1,"trial_type":"image-slider-response","trial_index":140,"time_elapsed":773380,"internal_node_id":"0.0-3.0-0.137","subject_id":"60358679c69b6f3499e2fdf5","study_id":"605e2a800ccfa0c8e820d869","session_id":"60622097e2bba1ee8e5bd2f5"},{"rt":1921.6949999972712,"stimulus":"img/00413.png","slider_start":4,"response":5,"trial_type":"image-slider-response","trial_index":141,"time_elapsed":775305,"internal_node_id":"0.0-3.0-0.138","subject_id":"60358679c69b6f3499e2fdf5","study_id":"605e2a800ccfa0c8e820d869","session_id":"60622097e2bba1ee8e5bd2f5"},{"rt":3513.6700000002747,"stimulus":"img/00079.png","slider_start":4,"response":5,"trial_type":"image-slider-response","trial_index":142,"time_elapsed":778821,"internal_node_id":"0.0-3.0-0.139","subject_id":"60358679c69b6f3499e2fdf5","study_id":"605e2a800ccfa0c8e820d869","session_id":"60622097e2bba1ee8e5bd2f5"},{"rt":1991.1599999977043,"stimulus":"img/00708.png","slider_start":4,"response":5,"trial_type":"image-slider-response","trial_index":143,"time_elapsed":780815,"internal_node_id":"0.0-3.0-0.140","subject_id":"60358679c69b6f3499e2fdf5","study_id":"605e2a800ccfa0c8e820d869","session_id":"60622097e2bba1ee8e5bd2f5"},{"rt":2178.744999997318,"stimulus":"img/00082.png","slider_start":4,"response":5,"trial_type":"image-slider-response","trial_index":144,"time_elapsed":782997,"internal_node_id":"0.0-3.0-0.141","subject_id":"60358679c69b6f3499e2fdf5","study_id":"605e2a800ccfa0c8e820d869","session_id":"60622097e2bba1ee8e5bd2f5"},{"rt":1932.3850000001257,"stimulus":"img/00427.png","slider_start":4,"response":5,"trial_type":"image-slider-response","trial_index":145,"time_elapsed":784931,"internal_node_id":"0.0-3.0-0.142","subject_id":"60358679c69b6f3499e2fdf5","study_id":"605e2a800ccfa0c8e820d869","session_id":"60622097e2bba1ee8e5bd2f5"},{"rt":1851.9599999999627,"stimulus":"img/00644.png","slider_start":4,"response":5,"trial_type":"image-slider-response","trial_index":146,"time_elapsed":786785,"internal_node_id":"0.0-3.0-0.143","subject_id":"60358679c69b6f3499e2fdf5","study_id":"605e2a800ccfa0c8e820d869","session_id":"60622097e2bba1ee8e5bd2f5"},{"rt":2788.509999998496,"stimulus":"img/00466.png","slider_start":4,"response":2,"trial_type":"image-slider-response","trial_index":147,"time_elapsed":789576,"internal_node_id":"0.0-3.0-0.144","subject_id":"60358679c69b6f3499e2fdf5","study_id":"605e2a800ccfa0c8e820d869","session_id":"60622097e2bba1ee8e5bd2f5"},{"rt":2699.0800000058953,"stimulus":"img/00078.png","slider_start":4,"response":1,"trial_type":"image-slider-response","trial_index":148,"time_elapsed":792277,"internal_node_id":"0.0-3.0-0.145","subject_id":"60358679c69b6f3499e2fdf5","study_id":"605e2a800ccfa0c8e820d869","session_id":"60622097e2bba1ee8e5bd2f5"},{"rt":1853.500000004773,"stimulus":"img/00903.png","slider_start":4,"response":5,"trial_type":"image-slider-response","trial_index":149,"time_elapsed":794133,"internal_node_id":"0.0-3.0-0.146","subject_id":"60358679c69b6f3499e2fdf5","study_id":"605e2a800ccfa0c8e820d869","session_id":"60622097e2bba1ee8e5bd2f5"},{"rt":1979.0050000010524,"stimulus":"img/00860.png","slider_start":4,"response":1,"trial_type":"image-slider-response","trial_index":150,"time_elapsed":796114,"internal_node_id":"0.0-3.0-0.147","subject_id":"60358679c69b6f3499e2fdf5","study_id":"605e2a800ccfa0c8e820d869","session_id":"60622097e2bba1ee8e5bd2f5"},{"rt":3238.774999998044,"stimulus":"img/00848.png","slider_start":4,"response":6,"trial_type":"image-slider-response","trial_index":151,"time_elapsed":799355,"internal_node_id":"0.0-3.0-0.148","subject_id":"60358679c69b6f3499e2fdf5","study_id":"605e2a800ccfa0c8e820d869","session_id":"60622097e2bba1ee8e5bd2f5"},{"rt":2162.7249999946216,"stimulus":"img/00496.png","slider_start":4,"response":1,"trial_type":"image-slider-response","trial_index":152,"time_elapsed":801520,"internal_node_id":"0.0-3.0-0.149","subject_id":"60358679c69b6f3499e2fdf5","study_id":"605e2a800ccfa0c8e820d869","session_id":"60622097e2bba1ee8e5bd2f5"},{"rt":3401.714999999851,"stimulus":"img/00569.png","slider_start":4,"response":1,"trial_type":"image-slider-response","trial_index":153,"time_elapsed":804924,"internal_node_id":"0.0-3.0-0.150","subject_id":"60358679c69b6f3499e2fdf5","study_id":"605e2a800ccfa0c8e820d869","session_id":"60622097e2bba1ee8e5bd2f5"},{"rt":1651.2300000031246,"stimulus":"img/00896.png","slider_start":4,"response":1,"trial_type":"image-slider-response","trial_index":154,"time_elapsed":806578,"internal_node_id":"0.0-3.0-0.151","subject_id":"60358679c69b6f3499e2fdf5","study_id":"605e2a800ccfa0c8e820d869","session_id":"60622097e2bba1ee8e5bd2f5"},{"rt":4727.730000005919,"stimulus":"img/00587.png","slider_start":4,"response":7,"trial_type":"image-slider-response","trial_index":155,"time_elapsed":811308,"internal_node_id":"0.0-3.0-0.152","subject_id":"60358679c69b6f3499e2fdf5","study_id":"605e2a800ccfa0c8e820d869","session_id":"60622097e2bba1ee8e5bd2f5"},{"rt":3645.5800000040326,"stimulus":"img/00405.png","slider_start":4,"response":5,"trial_type":"image-slider-response","trial_index":156,"time_elapsed":814956,"internal_node_id":"0.0-3.0-0.153","subject_id":"60358679c69b6f3499e2fdf5","study_id":"605e2a800ccfa0c8e820d869","session_id":"60622097e2bba1ee8e5bd2f5"},{"rt":3673.6800000071526,"stimulus":"img/00113.png","slider_start":4,"response":1,"trial_type":"image-slider-response","trial_index":157,"time_elapsed":818632,"internal_node_id":"0.0-3.0-0.154","subject_id":"60358679c69b6f3499e2fdf5","study_id":"605e2a800ccfa0c8e820d869","session_id":"60622097e2bba1ee8e5bd2f5"},{"rt":2221.8450000000885,"stimulus":"img/00817.png","slider_start":4,"response":1,"trial_type":"image-slider-response","trial_index":158,"time_elapsed":820856,"internal_node_id":"0.0-3.0-0.155","subject_id":"60358679c69b6f3499e2fdf5","study_id":"605e2a800ccfa0c8e820d869","session_id":"60622097e2bba1ee8e5bd2f5"},{"rt":61326.600000000326,"stimulus":"img/00122.png","slider_start":4,"response":7,"trial_type":"image-slider-response","trial_index":159,"time_elapsed":882185,"internal_node_id":"0.0-3.0-0.156","subject_id":"60358679c69b6f3499e2fdf5","study_id":"605e2a800ccfa0c8e820d869","session_id":"60622097e2bba1ee8e5bd2f5"},{"rt":5010.6900000028545,"stimulus":"img/00127.png","slider_start":4,"response":2,"trial_type":"image-slider-response","trial_index":160,"time_elapsed":887198,"internal_node_id":"0.0-3.0-0.157","subject_id":"60358679c69b6f3499e2fdf5","study_id":"605e2a800ccfa0c8e820d869","session_id":"60622097e2bba1ee8e5bd2f5"},{"rt":2156.1499999952503,"stimulus":"img/00825.png","slider_start":4,"response":2,"trial_type":"image-slider-response","trial_index":161,"time_elapsed":889357,"internal_node_id":"0.0-3.0-0.158","subject_id":"60358679c69b6f3499e2fdf5","study_id":"605e2a800ccfa0c8e820d869","session_id":"60622097e2bba1ee8e5bd2f5"},{"rt":3055.785000004107,"stimulus":"img/00809.png","slider_start":4,"response":5,"trial_type":"image-slider-response","trial_index":162,"time_elapsed":892415,"internal_node_id":"0.0-3.0-0.159","subject_id":"60358679c69b6f3499e2fdf5","study_id":"605e2a800ccfa0c8e820d869","session_id":"60622097e2bba1ee8e5bd2f5"},{"rt":6465.405000002589,"stimulus":"img/00012.png","slider_start":4,"response":2,"trial_type":"image-slider-response","trial_index":163,"time_elapsed":898883,"internal_node_id":"0.0-3.0-0.160","subject_id":"60358679c69b6f3499e2fdf5","study_id":"605e2a800ccfa0c8e820d869","session_id":"60622097e2bba1ee8e5bd2f5"},{"rt":1576.7649999979185,"stimulus":"img/00810.png","slider_start":4,"response":2,"trial_type":"image-slider-response","trial_index":164,"time_elapsed":900462,"internal_node_id":"0.0-3.0-0.161","subject_id":"60358679c69b6f3499e2fdf5","study_id":"605e2a800ccfa0c8e820d869","session_id":"60622097e2bba1ee8e5bd2f5"},{"rt":2077.95000000624,"stimulus":"img/00401.png","slider_start":4,"response":2,"trial_type":"image-slider-response","trial_index":165,"time_elapsed":902542,"internal_node_id":"0.0-3.0-0.162","subject_id":"60358679c69b6f3499e2fdf5","study_id":"605e2a800ccfa0c8e820d869","session_id":"60622097e2bba1ee8e5bd2f5"},{"rt":2596.8700000011595,"stimulus":"img/00686.png","slider_start":4,"response":6,"trial_type":"image-slider-response","trial_index":166,"time_elapsed":905141,"internal_node_id":"0.0-3.0-0.163","subject_id":"60358679c69b6f3499e2fdf5","study_id":"605e2a800ccfa0c8e820d869","session_id":"60622097e2bba1ee8e5bd2f5"},{"rt":1857.205000000191,"stimulus":"img/00744.png","slider_start":4,"response":5,"trial_type":"image-slider-response","trial_index":167,"time_elapsed":907000,"internal_node_id":"0.0-3.0-0.164","subject_id":"60358679c69b6f3499e2fdf5","study_id":"605e2a800ccfa0c8e820d869","session_id":"60622097e2bba1ee8e5bd2f5"},{"rt":3312.4549999992596,"stimulus":"img/00581.png","slider_start":4,"response":2,"trial_type":"image-slider-response","trial_index":168,"time_elapsed":910315,"internal_node_id":"0.0-3.0-0.165","subject_id":"60358679c69b6f3499e2fdf5","study_id":"605e2a800ccfa0c8e820d869","session_id":"60622097e2bba1ee8e5bd2f5"},{"rt":2325.6800000017975,"stimulus":"img/00878.png","slider_start":4,"response":1,"trial_type":"image-slider-response","trial_index":169,"time_elapsed":912643,"internal_node_id":"0.0-3.0-0.166","subject_id":"60358679c69b6f3499e2fdf5","study_id":"605e2a800ccfa0c8e820d869","session_id":"60622097e2bba1ee8e5bd2f5"},{"rt":1981.2500000043074,"stimulus":"img/00454.png","slider_start":4,"response":1,"trial_type":"image-slider-response","trial_index":170,"time_elapsed":914626,"internal_node_id":"0.0-3.0-0.167","subject_id":"60358679c69b6f3499e2fdf5","study_id":"605e2a800ccfa0c8e820d869","session_id":"60622097e2bba1ee8e5bd2f5"},{"rt":32453.744999998948,"stimulus":"img/00594.png","slider_start":4,"response":1,"trial_type":"image-slider-response","trial_index":171,"time_elapsed":947081,"internal_node_id":"0.0-3.0-0.168","subject_id":"60358679c69b6f3499e2fdf5","study_id":"605e2a800ccfa0c8e820d869","session_id":"60622097e2bba1ee8e5bd2f5"},{"rt":3318.910000001779,"stimulus":"img/00018.png","slider_start":4,"response":1,"trial_type":"image-slider-response","trial_index":172,"time_elapsed":950402,"internal_node_id":"0.0-3.0-0.169","subject_id":"60358679c69b6f3499e2fdf5","study_id":"605e2a800ccfa0c8e820d869","session_id":"60622097e2bba1ee8e5bd2f5"},{"rt":1863.4600000005448,"stimulus":"img/00791.png","slider_start":4,"response":4,"trial_type":"image-slider-response","trial_index":173,"time_elapsed":952268,"internal_node_id":"0.0-3.0-0.170","subject_id":"60358679c69b6f3499e2fdf5","study_id":"605e2a800ccfa0c8e820d869","session_id":"60622097e2bba1ee8e5bd2f5"},{"rt":2818.769999997923,"stimulus":"img/00522.png","slider_start":4,"response":5,"trial_type":"image-slider-response","trial_index":174,"time_elapsed":955089,"internal_node_id":"0.0-3.0-0.171","subject_id":"60358679c69b6f3499e2fdf5","study_id":"605e2a800ccfa0c8e820d869","session_id":"60622097e2bba1ee8e5bd2f5"}]