[{"rt":2229.2949999682605,"stimulus":"Welcome to the experiment. Press any key to begin.","response":" ","trial_type":"html-keyboard-response","trial_index":0,"time_elapsed":2236,"internal_node_id":"0.0-0.0","subject_id":"5e9e043a5998e51ab91bbf78","study_id":"605e2a800ccfa0c8e820d869","session_id":"606202e0008a170c6bc79b43"},{"rt":3020.7100000116043,"stimulus":"\n        <p>In this experiment, a face will appear on-screen.</p><p> <strong>Rate the face on a 1 - 7 scale based on how attractive he / she is.</strong> </p>\n        </div>\n        <p>Press any key to begin.</p>\n      ","response":" ","trial_type":"html-keyboard-response","trial_index":1,"time_elapsed":5259,"internal_node_id":"0.0-1.0","subject_id":"5e9e043a5998e51ab91bbf78","study_id":"605e2a800ccfa0c8e820d869","session_id":"606202e0008a170c6bc79b43"},{"success":true,"timeout":false,"failed_images":[],"failed_audio":[],"failed_video":[],"trial_type":"preload","trial_index":2,"time_elapsed":37418,"internal_node_id":"0.0-2.0","subject_id":"5e9e043a5998e51ab91bbf78","study_id":"605e2a800ccfa0c8e820d869","session_id":"606202e0008a170c6bc79b43"},{"rt":11735.389999987092,"stimulus":"img/00581.png","slider_start":4,"response":3,"trial_type":"image-slider-response","trial_index":3,"time_elapsed":49171,"internal_node_id":"0.0-3.0-0.0","subject_id":"5e9e043a5998e51ab91bbf78","study_id":"605e2a800ccfa0c8e820d869","session_id":"606202e0008a170c6bc79b43"},{"rt":8942.819999996573,"stimulus":"img/00499.png","slider_start":4,"response":2,"trial_type":"image-slider-response","trial_index":4,"time_elapsed":58119,"internal_node_id":"0.0-3.0-0.1","subject_id":"5e9e043a5998e51ab91bbf78","study_id":"605e2a800ccfa0c8e820d869","session_id":"606202e0008a170c6bc79b43"},{"rt":4366.230000043288,"stimulus":"img/00015.png","slider_start":4,"response":5,"trial_type":"image-slider-response","trial_index":5,"time_elapsed":62491,"internal_node_id":"0.0-3.0-0.2","subject_id":"5e9e043a5998e51ab91bbf78","study_id":"605e2a800ccfa0c8e820d869","session_id":"606202e0008a170c6bc79b43"},{"rt":5654.695000033826,"stimulus":"img/00854.png","slider_start":4,"response":3,"trial_type":"image-slider-response","trial_index":6,"time_elapsed":68150,"internal_node_id":"0.0-3.0-0.3","subject_id":"5e9e043a5998e51ab91bbf78","study_id":"605e2a800ccfa0c8e820d869","session_id":"606202e0008a170c6bc79b43"},{"rt":7315.720000013243,"stimulus":"img/00464.png","slider_start":4,"response":2,"trial_type":"image-slider-response","trial_index":7,"time_elapsed":75472,"internal_node_id":"0.0-3.0-0.4","subject_id":"5e9e043a5998e51ab91bbf78","study_id":"605e2a800ccfa0c8e820d869","session_id":"606202e0008a170c6bc79b43"},{"rt":3401.6350000165403,"stimulus":"img/00761.png","slider_start":4,"response":5,"trial_type":"image-slider-response","trial_index":8,"time_elapsed":78879,"internal_node_id":"0.0-3.0-0.5","subject_id":"5e9e043a5998e51ab91bbf78","study_id":"605e2a800ccfa0c8e820d869","session_id":"606202e0008a170c6bc79b43"},{"rt":12115.560000005644,"stimulus":"img/00903.png","slider_start":4,"response":5,"trial_type":"image-slider-response","trial_index":9,"time_elapsed":90999,"internal_node_id":"0.0-3.0-0.6","subject_id":"5e9e043a5998e51ab91bbf78","study_id":"605e2a800ccfa0c8e820d869","session_id":"606202e0008a170c6bc79b43"},{"rt":2961.1799999838695,"stimulus":"img/00790.png","slider_start":4,"response":3,"trial_type":"image-slider-response","trial_index":10,"time_elapsed":93968,"internal_node_id":"0.0-3.0-0.7","subject_id":"5e9e043a5998e51ab91bbf78","study_id":"605e2a800ccfa0c8e820d869","session_id":"606202e0008a170c6bc79b43"},{"rt":3938.8400000170805,"stimulus":"img/00469.png","slider_start":4,"response":5,"trial_type":"image-slider-response","trial_index":11,"time_elapsed":97912,"internal_node_id":"0.0-3.0-0.8","subject_id":"5e9e043a5998e51ab91bbf78","study_id":"605e2a800ccfa0c8e820d869","session_id":"606202e0008a170c6bc79b43"},{"rt":3793.2800000417046,"stimulus":"img/00986.png","slider_start":4,"response":3,"trial_type":"image-slider-response","trial_index":12,"time_elapsed":101709,"internal_node_id":"0.0-3.0-0.9","subject_id":"5e9e043a5998e51ab91bbf78","study_id":"605e2a800ccfa0c8e820d869","session_id":"606202e0008a170c6bc79b43"},{"rt":2904.5599999953993,"stimulus":"img/00693.png","slider_start":4,"response":2,"trial_type":"image-slider-response","trial_index":13,"time_elapsed":104619,"internal_node_id":"0.0-3.0-0.10","subject_id":"5e9e043a5998e51ab91bbf78","study_id":"605e2a800ccfa0c8e820d869","session_id":"606202e0008a170c6bc79b43"},{"rt":7013.654999958817,"stimulus":"img/00427.png","slider_start":4,"response":7,"trial_type":"image-slider-response","trial_index":14,"time_elapsed":111637,"internal_node_id":"0.0-3.0-0.11","subject_id":"5e9e043a5998e51ab91bbf78","study_id":"605e2a800ccfa0c8e820d869","session_id":"606202e0008a170c6bc79b43"},{"rt":2956.7300000344403,"stimulus":"img/00503.png","slider_start":4,"response":3,"trial_type":"image-slider-response","trial_index":15,"time_elapsed":114598,"internal_node_id":"0.0-3.0-0.12","subject_id":"5e9e043a5998e51ab91bbf78","study_id":"605e2a800ccfa0c8e820d869","session_id":"606202e0008a170c6bc79b43"},{"rt":3938.7449999921955,"stimulus":"img/00559.png","slider_start":4,"response":5,"trial_type":"image-slider-response","trial_index":16,"time_elapsed":118541,"internal_node_id":"0.0-3.0-0.13","subject_id":"5e9e043a5998e51ab91bbf78","study_id":"605e2a800ccfa0c8e820d869","session_id":"606202e0008a170c6bc79b43"},{"rt":2947.8050000034273,"stimulus":"img/00850.png","slider_start":4,"response":1,"trial_type":"image-slider-response","trial_index":17,"time_elapsed":121494,"internal_node_id":"0.0-3.0-0.14","subject_id":"5e9e043a5998e51ab91bbf78","study_id":"605e2a800ccfa0c8e820d869","session_id":"606202e0008a170c6bc79b43"},{"rt":3814.6649999544024,"stimulus":"img/00780.png","slider_start":4,"response":2,"trial_type":"image-slider-response","trial_index":18,"time_elapsed":125312,"internal_node_id":"0.0-3.0-0.15","subject_id":"5e9e043a5998e51ab91bbf78","study_id":"605e2a800ccfa0c8e820d869","session_id":"606202e0008a170c6bc79b43"},{"rt":9575.680000009015,"stimulus":"img/00059.png","slider_start":4,"response":3,"trial_type":"image-slider-response","trial_index":19,"time_elapsed":134892,"internal_node_id":"0.0-3.0-0.16","subject_id":"5e9e043a5998e51ab91bbf78","study_id":"605e2a800ccfa0c8e820d869","session_id":"606202e0008a170c6bc79b43"},{"rt":4771.7500000144355,"stimulus":"img/00462.png","slider_start":4,"response":3,"trial_type":"image-slider-response","trial_index":20,"time_elapsed":139669,"internal_node_id":"0.0-3.0-0.17","subject_id":"5e9e043a5998e51ab91bbf78","study_id":"605e2a800ccfa0c8e820d869","session_id":"606202e0008a170c6bc79b43"},{"rt":3444.9700000113808,"stimulus":"img/00023.png","slider_start":4,"response":2,"trial_type":"image-slider-response","trial_index":21,"time_elapsed":143118,"internal_node_id":"0.0-3.0-0.18","subject_id":"5e9e043a5998e51ab91bbf78","study_id":"605e2a800ccfa0c8e820d869","session_id":"606202e0008a170c6bc79b43"},{"rt":4479.86999998102,"stimulus":"img/00040.png","slider_start":4,"response":1,"trial_type":"image-slider-response","trial_index":22,"time_elapsed":147603,"internal_node_id":"0.0-3.0-0.19","subject_id":"5e9e043a5998e51ab91bbf78","study_id":"605e2a800ccfa0c8e820d869","session_id":"606202e0008a170c6bc79b43"},{"rt":3857.305000012275,"stimulus":"img/00756.png","slider_start":4,"response":5,"trial_type":"image-slider-response","trial_index":23,"time_elapsed":151464,"internal_node_id":"0.0-3.0-0.20","subject_id":"5e9e043a5998e51ab91bbf78","study_id":"605e2a800ccfa0c8e820d869","session_id":"606202e0008a170c6bc79b43"},{"rt":4994.845000037458,"stimulus":"img/00623.png","slider_start":4,"response":6,"trial_type":"image-slider-response","trial_index":24,"time_elapsed":156463,"internal_node_id":"0.0-3.0-0.21","subject_id":"5e9e043a5998e51ab91bbf78","study_id":"605e2a800ccfa0c8e820d869","session_id":"606202e0008a170c6bc79b43"},{"rt":3615.77999999281,"stimulus":"img/00481.png","slider_start":4,"response":2,"trial_type":"image-slider-response","trial_index":25,"time_elapsed":160083,"internal_node_id":"0.0-3.0-0.22","subject_id":"5e9e043a5998e51ab91bbf78","study_id":"605e2a800ccfa0c8e820d869","session_id":"606202e0008a170c6bc79b43"},{"rt":3038.57000003336,"stimulus":"img/00764.png","slider_start":4,"response":3,"trial_type":"image-slider-response","trial_index":26,"time_elapsed":163125,"internal_node_id":"0.0-3.0-0.23","subject_id":"5e9e043a5998e51ab91bbf78","study_id":"605e2a800ccfa0c8e820d869","session_id":"606202e0008a170c6bc79b43"},{"rt":4005.9199999668635,"stimulus":"img/00967.png","slider_start":4,"response":3,"trial_type":"image-slider-response","trial_index":27,"time_elapsed":167135,"internal_node_id":"0.0-3.0-0.24","subject_id":"5e9e043a5998e51ab91bbf78","study_id":"605e2a800ccfa0c8e820d869","session_id":"606202e0008a170c6bc79b43"},{"rt":3031.875000044238,"stimulus":"img/00100.png","slider_start":4,"response":3,"trial_type":"image-slider-response","trial_index":28,"time_elapsed":170171,"internal_node_id":"0.0-3.0-0.25","subject_id":"5e9e043a5998e51ab91bbf78","study_id":"605e2a800ccfa0c8e820d869","session_id":"606202e0008a170c6bc79b43"},{"rt":3190.2699999627657,"stimulus":"img/00898.png","slider_start":4,"response":3,"trial_type":"image-slider-response","trial_index":29,"time_elapsed":173368,"internal_node_id":"0.0-3.0-0.26","subject_id":"5e9e043a5998e51ab91bbf78","study_id":"605e2a800ccfa0c8e820d869","session_id":"606202e0008a170c6bc79b43"},{"rt":5071.960000030231,"stimulus":"img/00413.png","slider_start":4,"response":2,"trial_type":"image-slider-response","trial_index":30,"time_elapsed":178444,"internal_node_id":"0.0-3.0-0.27","subject_id":"5e9e043a5998e51ab91bbf78","study_id":"605e2a800ccfa0c8e820d869","session_id":"606202e0008a170c6bc79b43"},{"rt":10605.314999993425,"stimulus":"img/00760.png","slider_start":4,"response":3,"trial_type":"image-slider-response","trial_index":31,"time_elapsed":189056,"internal_node_id":"0.0-3.0-0.28","subject_id":"5e9e043a5998e51ab91bbf78","study_id":"605e2a800ccfa0c8e820d869","session_id":"606202e0008a170c6bc79b43"},{"rt":3840.3650000109337,"stimulus":"img/00742.png","slider_start":4,"response":5,"trial_type":"image-slider-response","trial_index":32,"time_elapsed":192903,"internal_node_id":"0.0-3.0-0.29","subject_id":"5e9e043a5998e51ab91bbf78","study_id":"605e2a800ccfa0c8e820d869","session_id":"606202e0008a170c6bc79b43"},{"rt":4644.1999999806285,"stimulus":"img/00951.png","slider_start":4,"response":3,"trial_type":"image-slider-response","trial_index":33,"time_elapsed":197551,"internal_node_id":"0.0-3.0-0.30","subject_id":"5e9e043a5998e51ab91bbf78","study_id":"605e2a800ccfa0c8e820d869","session_id":"606202e0008a170c6bc79b43"},{"rt":7963.129999989178,"stimulus":"img/00913.png","slider_start":4,"response":5,"trial_type":"image-slider-response","trial_index":34,"time_elapsed":205518,"internal_node_id":"0.0-3.0-0.31","subject_id":"5e9e043a5998e51ab91bbf78","study_id":"605e2a800ccfa0c8e820d869","session_id":"606202e0008a170c6bc79b43"},{"rt":3813.5450000409037,"stimulus":"img/00127.png","slider_start":4,"response":3,"trial_type":"image-slider-response","trial_index":35,"time_elapsed":209336,"internal_node_id":"0.0-3.0-0.32","subject_id":"5e9e043a5998e51ab91bbf78","study_id":"605e2a800ccfa0c8e820d869","session_id":"606202e0008a170c6bc79b43"},{"rt":7137.255000008736,"stimulus":"img/00956.png","slider_start":4,"response":5,"trial_type":"image-slider-response","trial_index":36,"time_elapsed":216478,"internal_node_id":"0.0-3.0-0.33","subject_id":"5e9e043a5998e51ab91bbf78","study_id":"605e2a800ccfa0c8e820d869","session_id":"606202e0008a170c6bc79b43"},{"rt":5607.744999986608,"stimulus":"img/00789.png","slider_start":4,"response":5,"trial_type":"image-slider-response","trial_index":37,"time_elapsed":222090,"internal_node_id":"0.0-3.0-0.34","subject_id":"5e9e043a5998e51ab91bbf78","study_id":"605e2a800ccfa0c8e820d869","session_id":"606202e0008a170c6bc79b43"},{"rt":6619.739999994636,"stimulus":"img/00569.png","slider_start":4,"response":5,"trial_type":"image-slider-response","trial_index":38,"time_elapsed":228714,"internal_node_id":"0.0-3.0-0.35","subject_id":"5e9e043a5998e51ab91bbf78","study_id":"605e2a800ccfa0c8e820d869","session_id":"606202e0008a170c6bc79b43"},{"rt":3001.319999981206,"stimulus":"img/00511.png","slider_start":4,"response":5,"trial_type":"image-slider-response","trial_index":39,"time_elapsed":231720,"internal_node_id":"0.0-3.0-0.36","subject_id":"5e9e043a5998e51ab91bbf78","study_id":"605e2a800ccfa0c8e820d869","session_id":"606202e0008a170c6bc79b43"},{"rt":3567.7100000320934,"stimulus":"img/00011.png","slider_start":4,"response":3,"trial_type":"image-slider-response","trial_index":40,"time_elapsed":235293,"internal_node_id":"0.0-3.0-0.37","subject_id":"5e9e043a5998e51ab91bbf78","study_id":"605e2a800ccfa0c8e820d869","session_id":"606202e0008a170c6bc79b43"},{"rt":6672.1349999425,"stimulus":"img/00592.png","slider_start":4,"response":5,"trial_type":"image-slider-response","trial_index":41,"time_elapsed":241968,"internal_node_id":"0.0-3.0-0.38","subject_id":"5e9e043a5998e51ab91bbf78","study_id":"605e2a800ccfa0c8e820d869","session_id":"606202e0008a170c6bc79b43"},{"rt":13679.089999990538,"stimulus":"img/00989.png","slider_start":4,"response":6,"trial_type":"image-slider-response","trial_index":42,"time_elapsed":255654,"internal_node_id":"0.0-3.0-0.39","subject_id":"5e9e043a5998e51ab91bbf78","study_id":"605e2a800ccfa0c8e820d869","session_id":"606202e0008a170c6bc79b43"},{"rt":3038.250000041444,"stimulus":"img/00576.png","slider_start":4,"response":5,"trial_type":"image-slider-response","trial_index":43,"time_elapsed":258697,"internal_node_id":"0.0-3.0-0.40","subject_id":"5e9e043a5998e51ab91bbf78","study_id":"605e2a800ccfa0c8e820d869","session_id":"606202e0008a170c6bc79b43"},{"rt":3710.305000015069,"stimulus":"img/00691.png","slider_start":4,"response":3,"trial_type":"image-slider-response","trial_index":44,"time_elapsed":262411,"internal_node_id":"0.0-3.0-0.41","subject_id":"5e9e043a5998e51ab91bbf78","study_id":"605e2a800ccfa0c8e820d869","session_id":"606202e0008a170c6bc79b43"},{"rt":3903.710000042338,"stimulus":"img/00991.png","slider_start":4,"response":3,"trial_type":"image-slider-response","trial_index":45,"time_elapsed":266319,"internal_node_id":"0.0-3.0-0.42","subject_id":"5e9e043a5998e51ab91bbf78","study_id":"605e2a800ccfa0c8e820d869","session_id":"606202e0008a170c6bc79b43"},{"rt":3864.4399999757297,"stimulus":"img/00957.png","slider_start":4,"response":3,"trial_type":"image-slider-response","trial_index":46,"time_elapsed":270188,"internal_node_id":"0.0-3.0-0.43","subject_id":"5e9e043a5998e51ab91bbf78","study_id":"605e2a800ccfa0c8e820d869","session_id":"606202e0008a170c6bc79b43"},{"rt":4235.719999996945,"stimulus":"img/00848.png","slider_start":4,"response":5,"trial_type":"image-slider-response","trial_index":47,"time_elapsed":274428,"internal_node_id":"0.0-3.0-0.44","subject_id":"5e9e043a5998e51ab91bbf78","study_id":"605e2a800ccfa0c8e820d869","session_id":"606202e0008a170c6bc79b43"},{"rt":6448.53500003228,"stimulus":"img/00554.png","slider_start":4,"response":5,"trial_type":"image-slider-response","trial_index":48,"time_elapsed":280881,"internal_node_id":"0.0-3.0-0.45","subject_id":"5e9e043a5998e51ab91bbf78","study_id":"605e2a800ccfa0c8e820d869","session_id":"606202e0008a170c6bc79b43"},{"rt":4344.694999977946,"stimulus":"img/00415.png","slider_start":4,"response":3,"trial_type":"image-slider-response","trial_index":49,"time_elapsed":285230,"internal_node_id":"0.0-3.0-0.46","subject_id":"5e9e043a5998e51ab91bbf78","study_id":"605e2a800ccfa0c8e820d869","session_id":"606202e0008a170c6bc79b43"},{"rt":3932.7250000205822,"stimulus":"img/00404.png","slider_start":4,"response":3,"trial_type":"image-slider-response","trial_index":50,"time_elapsed":289167,"internal_node_id":"0.0-3.0-0.47","subject_id":"5e9e043a5998e51ab91bbf78","study_id":"605e2a800ccfa0c8e820d869","session_id":"606202e0008a170c6bc79b43"},{"rt":4123.169999977108,"stimulus":"img/00809.png","slider_start":4,"response":3,"trial_type":"image-slider-response","trial_index":51,"time_elapsed":293297,"internal_node_id":"0.0-3.0-0.48","subject_id":"5e9e043a5998e51ab91bbf78","study_id":"605e2a800ccfa0c8e820d869","session_id":"606202e0008a170c6bc79b43"},{"rt":6230.93499999959,"stimulus":"img/00822.png","slider_start":4,"response":5,"trial_type":"image-slider-response","trial_index":52,"time_elapsed":299535,"internal_node_id":"0.0-3.0-0.49","subject_id":"5e9e043a5998e51ab91bbf78","study_id":"605e2a800ccfa0c8e820d869","session_id":"606202e0008a170c6bc79b43"},{"rt":3898.2250000117347,"stimulus":"img/00029.png","slider_start":4,"response":2,"trial_type":"image-slider-response","trial_index":53,"time_elapsed":303437,"internal_node_id":"0.0-3.0-0.50","subject_id":"5e9e043a5998e51ab91bbf78","study_id":"605e2a800ccfa0c8e820d869","session_id":"606202e0008a170c6bc79b43"},{"rt":4614.004999981262,"stimulus":"img/00522.png","slider_start":4,"response":5,"trial_type":"image-slider-response","trial_index":54,"time_elapsed":308057,"internal_node_id":"0.0-3.0-0.51","subject_id":"5e9e043a5998e51ab91bbf78","study_id":"605e2a800ccfa0c8e820d869","session_id":"606202e0008a170c6bc79b43"},{"rt":4552.83000000054,"stimulus":"img/00793.png","slider_start":4,"response":3,"trial_type":"image-slider-response","trial_index":55,"time_elapsed":312614,"internal_node_id":"0.0-3.0-0.52","subject_id":"5e9e043a5998e51ab91bbf78","study_id":"605e2a800ccfa0c8e820d869","session_id":"606202e0008a170c6bc79b43"},{"rt":5717.899999988731,"stimulus":"img/00478.png","slider_start":4,"response":5,"trial_type":"image-slider-response","trial_index":56,"time_elapsed":318337,"internal_node_id":"0.0-3.0-0.53","subject_id":"5e9e043a5998e51ab91bbf78","study_id":"605e2a800ccfa0c8e820d869","session_id":"606202e0008a170c6bc79b43"},{"rt":4811.114999989513,"stimulus":"img/00995.png","slider_start":4,"response":6,"trial_type":"image-slider-response","trial_index":57,"time_elapsed":323153,"internal_node_id":"0.0-3.0-0.54","subject_id":"5e9e043a5998e51ab91bbf78","study_id":"605e2a800ccfa0c8e820d869","session_id":"606202e0008a170c6bc79b43"},{"rt":4405.514999991283,"stimulus":"img/00479.png","slider_start":4,"response":6,"trial_type":"image-slider-response","trial_index":58,"time_elapsed":327564,"internal_node_id":"0.0-3.0-0.55","subject_id":"5e9e043a5998e51ab91bbf78","study_id":"605e2a800ccfa0c8e820d869","session_id":"606202e0008a170c6bc79b43"},{"rt":3463.6300000129268,"stimulus":"img/00508.png","slider_start":4,"response":7,"trial_type":"image-slider-response","trial_index":59,"time_elapsed":331033,"internal_node_id":"0.0-3.0-0.56","subject_id":"5e9e043a5998e51ab91bbf78","study_id":"605e2a800ccfa0c8e820d869","session_id":"606202e0008a170c6bc79b43"},{"rt":4772.0400000107475,"stimulus":"img/00105.png","slider_start":4,"response":2,"trial_type":"image-slider-response","trial_index":60,"time_elapsed":335810,"internal_node_id":"0.0-3.0-0.57","subject_id":"5e9e043a5998e51ab91bbf78","study_id":"605e2a800ccfa0c8e820d869","session_id":"606202e0008a170c6bc79b43"},{"rt":3275.774999987334,"stimulus":"img/00811.png","slider_start":4,"response":3,"trial_type":"image-slider-response","trial_index":61,"time_elapsed":339090,"internal_node_id":"0.0-3.0-0.58","subject_id":"5e9e043a5998e51ab91bbf78","study_id":"605e2a800ccfa0c8e820d869","session_id":"606202e0008a170c6bc79b43"},{"rt":3518.24000000488,"stimulus":"img/00689.png","slider_start":4,"response":3,"trial_type":"image-slider-response","trial_index":62,"time_elapsed":342612,"internal_node_id":"0.0-3.0-0.59","subject_id":"5e9e043a5998e51ab91bbf78","study_id":"605e2a800ccfa0c8e820d869","session_id":"606202e0008a170c6bc79b43"},{"rt":8559.26999996882,"stimulus":"img/00504.png","slider_start":4,"response":3,"trial_type":"image-slider-response","trial_index":63,"time_elapsed":351177,"internal_node_id":"0.0-3.0-0.60","subject_id":"5e9e043a5998e51ab91bbf78","study_id":"605e2a800ccfa0c8e820d869","session_id":"606202e0008a170c6bc79b43"},{"rt":4125.214999949094,"stimulus":"img/00982.png","slider_start":4,"response":3,"trial_type":"image-slider-response","trial_index":64,"time_elapsed":355306,"internal_node_id":"0.0-3.0-0.61","subject_id":"5e9e043a5998e51ab91bbf78","study_id":"605e2a800ccfa0c8e820d869","session_id":"606202e0008a170c6bc79b43"},{"rt":3473.939999996219,"stimulus":"img/00489.png","slider_start":4,"response":3,"trial_type":"image-slider-response","trial_index":65,"time_elapsed":358784,"internal_node_id":"0.0-3.0-0.62","subject_id":"5e9e043a5998e51ab91bbf78","study_id":"605e2a800ccfa0c8e820d869","session_id":"606202e0008a170c6bc79b43"},{"rt":4929.90499996813,"stimulus":"img/00801.png","slider_start":4,"response":3,"trial_type":"image-slider-response","trial_index":66,"time_elapsed":363718,"internal_node_id":"0.0-3.0-0.63","subject_id":"5e9e043a5998e51ab91bbf78","study_id":"605e2a800ccfa0c8e820d869","session_id":"606202e0008a170c6bc79b43"},{"rt":4147.40499999607,"stimulus":"img/00629.png","slider_start":4,"response":3,"trial_type":"image-slider-response","trial_index":67,"time_elapsed":367870,"internal_node_id":"0.0-3.0-0.64","subject_id":"5e9e043a5998e51ab91bbf78","study_id":"605e2a800ccfa0c8e820d869","session_id":"606202e0008a170c6bc79b43"},{"rt":3790.274999977555,"stimulus":"img/00079.png","slider_start":4,"response":5,"trial_type":"image-slider-response","trial_index":68,"time_elapsed":371665,"internal_node_id":"0.0-3.0-0.65","subject_id":"5e9e043a5998e51ab91bbf78","study_id":"605e2a800ccfa0c8e820d869","session_id":"606202e0008a170c6bc79b43"},{"rt":3148.749999993015,"stimulus":"img/00603.png","slider_start":4,"response":3,"trial_type":"image-slider-response","trial_index":69,"time_elapsed":374818,"internal_node_id":"0.0-3.0-0.66","subject_id":"5e9e043a5998e51ab91bbf78","study_id":"605e2a800ccfa0c8e820d869","session_id":"606202e0008a170c6bc79b43"},{"rt":5351.185000035912,"stimulus":"img/00973.png","slider_start":4,"response":5,"trial_type":"image-slider-response","trial_index":70,"time_elapsed":380173,"internal_node_id":"0.0-3.0-0.67","subject_id":"5e9e043a5998e51ab91bbf78","study_id":"605e2a800ccfa0c8e820d869","session_id":"606202e0008a170c6bc79b43"},{"rt":4294.935000012629,"stimulus":"img/00428.png","slider_start":4,"response":2,"trial_type":"image-slider-response","trial_index":71,"time_elapsed":384473,"internal_node_id":"0.0-3.0-0.68","subject_id":"5e9e043a5998e51ab91bbf78","study_id":"605e2a800ccfa0c8e820d869","session_id":"606202e0008a170c6bc79b43"},{"rt":3871.8550000339746,"stimulus":"img/00101.png","slider_start":4,"response":3,"trial_type":"image-slider-response","trial_index":72,"time_elapsed":388349,"internal_node_id":"0.0-3.0-0.69","subject_id":"5e9e043a5998e51ab91bbf78","study_id":"605e2a800ccfa0c8e820d869","session_id":"606202e0008a170c6bc79b43"},{"rt":2366.5250000194646,"stimulus":"img/00653.png","slider_start":4,"response":3,"trial_type":"image-slider-response","trial_index":73,"time_elapsed":390719,"internal_node_id":"0.0-3.0-0.70","subject_id":"5e9e043a5998e51ab91bbf78","study_id":"605e2a800ccfa0c8e820d869","session_id":"606202e0008a170c6bc79b43"},{"rt":5166.549999965355,"stimulus":"img/00949.png","slider_start":4,"response":5,"trial_type":"image-slider-response","trial_index":74,"time_elapsed":395890,"internal_node_id":"0.0-3.0-0.71","subject_id":"5e9e043a5998e51ab91bbf78","study_id":"605e2a800ccfa0c8e820d869","session_id":"606202e0008a170c6bc79b43"},{"rt":5119.040000019595,"stimulus":"img/00496.png","slider_start":4,"response":5,"trial_type":"image-slider-response","trial_index":75,"time_elapsed":401014,"internal_node_id":"0.0-3.0-0.72","subject_id":"5e9e043a5998e51ab91bbf78","study_id":"605e2a800ccfa0c8e820d869","session_id":"606202e0008a170c6bc79b43"},{"rt":5910.740000021178,"stimulus":"img/00456.png","slider_start":4,"response":3,"trial_type":"image-slider-response","trial_index":76,"time_elapsed":406928,"internal_node_id":"0.0-3.0-0.73","subject_id":"5e9e043a5998e51ab91bbf78","study_id":"605e2a800ccfa0c8e820d869","session_id":"606202e0008a170c6bc79b43"},{"rt":2822.8050000034273,"stimulus":"img/00817.png","slider_start":4,"response":3,"trial_type":"image-slider-response","trial_index":77,"time_elapsed":409755,"internal_node_id":"0.0-3.0-0.74","subject_id":"5e9e043a5998e51ab91bbf78","study_id":"605e2a800ccfa0c8e820d869","session_id":"606202e0008a170c6bc79b43"},{"rt":6171.689999988303,"stimulus":"img/00815.png","slider_start":4,"response":4,"trial_type":"image-slider-response","trial_index":78,"time_elapsed":415930,"internal_node_id":"0.0-3.0-0.75","subject_id":"5e9e043a5998e51ab91bbf78","study_id":"605e2a800ccfa0c8e820d869","session_id":"606202e0008a170c6bc79b43"},{"rt":3658.6849999730475,"stimulus":"img/00690.png","slider_start":4,"response":6,"trial_type":"image-slider-response","trial_index":79,"time_elapsed":419594,"internal_node_id":"0.0-3.0-0.76","subject_id":"5e9e043a5998e51ab91bbf78","study_id":"605e2a800ccfa0c8e820d869","session_id":"606202e0008a170c6bc79b43"},{"rt":2932.585000002291,"stimulus":"img/00439.png","slider_start":4,"response":2,"trial_type":"image-slider-response","trial_index":80,"time_elapsed":422532,"internal_node_id":"0.0-3.0-0.77","subject_id":"5e9e043a5998e51ab91bbf78","study_id":"605e2a800ccfa0c8e820d869","session_id":"606202e0008a170c6bc79b43"},{"rt":2609.4300000113435,"stimulus":"img/00841.png","slider_start":4,"response":4,"trial_type":"image-slider-response","trial_index":81,"time_elapsed":425146,"internal_node_id":"0.0-3.0-0.78","subject_id":"5e9e043a5998e51ab91bbf78","study_id":"605e2a800ccfa0c8e820d869","session_id":"606202e0008a170c6bc79b43"},{"rt":3268.835000053514,"stimulus":"img/00998.png","slider_start":4,"response":3,"trial_type":"image-slider-response","trial_index":82,"time_elapsed":428419,"internal_node_id":"0.0-3.0-0.79","subject_id":"5e9e043a5998e51ab91bbf78","study_id":"605e2a800ccfa0c8e820d869","session_id":"606202e0008a170c6bc79b43"},{"rt":3184.754999994766,"stimulus":"img/00686.png","slider_start":4,"response":4,"trial_type":"image-slider-response","trial_index":83,"time_elapsed":431609,"internal_node_id":"0.0-3.0-0.80","subject_id":"5e9e043a5998e51ab91bbf78","study_id":"605e2a800ccfa0c8e820d869","session_id":"606202e0008a170c6bc79b43"},{"rt":2890.4699999839067,"stimulus":"img/00587.png","slider_start":4,"response":6,"trial_type":"image-slider-response","trial_index":84,"time_elapsed":434504,"internal_node_id":"0.0-3.0-0.81","subject_id":"5e9e043a5998e51ab91bbf78","study_id":"605e2a800ccfa0c8e820d869","session_id":"606202e0008a170c6bc79b43"},{"rt":2647.1099999616854,"stimulus":"img/00126.png","slider_start":4,"response":2,"trial_type":"image-slider-response","trial_index":85,"time_elapsed":437155,"internal_node_id":"0.0-3.0-0.82","subject_id":"5e9e043a5998e51ab91bbf78","study_id":"605e2a800ccfa0c8e820d869","session_id":"606202e0008a170c6bc79b43"},{"rt":3504.5899999677204,"stimulus":"img/00521.png","slider_start":4,"response":2,"trial_type":"image-slider-response","trial_index":86,"time_elapsed":440663,"internal_node_id":"0.0-3.0-0.83","subject_id":"5e9e043a5998e51ab91bbf78","study_id":"605e2a800ccfa0c8e820d869","session_id":"606202e0008a170c6bc79b43"},{"rt":3214.8250000318512,"stimulus":"img/00401.png","slider_start":4,"response":3,"trial_type":"image-slider-response","trial_index":87,"time_elapsed":443883,"internal_node_id":"0.0-3.0-0.84","subject_id":"5e9e043a5998e51ab91bbf78","study_id":"605e2a800ccfa0c8e820d869","session_id":"606202e0008a170c6bc79b43"},{"rt":3391.6149999713525,"stimulus":"img/00842.png","slider_start":4,"response":5,"trial_type":"image-slider-response","trial_index":88,"time_elapsed":447279,"internal_node_id":"0.0-3.0-0.85","subject_id":"5e9e043a5998e51ab91bbf78","study_id":"605e2a800ccfa0c8e820d869","session_id":"606202e0008a170c6bc79b43"},{"rt":6055.630000017118,"stimulus":"img/00860.png","slider_start":4,"response":3,"trial_type":"image-slider-response","trial_index":89,"time_elapsed":453340,"internal_node_id":"0.0-3.0-0.86","subject_id":"5e9e043a5998e51ab91bbf78","study_id":"605e2a800ccfa0c8e820d869","session_id":"606202e0008a170c6bc79b43"},{"rt":4376.434999983758,"stimulus":"img/00041.png","slider_start":4,"response":7,"trial_type":"image-slider-response","trial_index":90,"time_elapsed":457720,"internal_node_id":"0.0-3.0-0.87","subject_id":"5e9e043a5998e51ab91bbf78","study_id":"605e2a800ccfa0c8e820d869","session_id":"606202e0008a170c6bc79b43"},{"rt":3531.604999967385,"stimulus":"img/00825.png","slider_start":4,"response":3,"trial_type":"image-slider-response","trial_index":91,"time_elapsed":461257,"internal_node_id":"0.0-3.0-0.88","subject_id":"5e9e043a5998e51ab91bbf78","study_id":"605e2a800ccfa0c8e820d869","session_id":"606202e0008a170c6bc79b43"},{"rt":4256.244999996852,"stimulus":"img/00012.png","slider_start":4,"response":3,"trial_type":"image-slider-response","trial_index":92,"time_elapsed":465519,"internal_node_id":"0.0-3.0-0.89","subject_id":"5e9e043a5998e51ab91bbf78","study_id":"605e2a800ccfa0c8e820d869","session_id":"606202e0008a170c6bc79b43"},{"rt":3523.8450000179,"stimulus":"img/00785.png","slider_start":4,"response":6,"trial_type":"image-slider-response","trial_index":93,"time_elapsed":469047,"internal_node_id":"0.0-3.0-0.90","subject_id":"5e9e043a5998e51ab91bbf78","study_id":"605e2a800ccfa0c8e820d869","session_id":"606202e0008a170c6bc79b43"},{"rt":3829.9799999804236,"stimulus":"img/00115.png","slider_start":4,"response":2,"trial_type":"image-slider-response","trial_index":94,"time_elapsed":472881,"internal_node_id":"0.0-3.0-0.91","subject_id":"5e9e043a5998e51ab91bbf78","study_id":"605e2a800ccfa0c8e820d869","session_id":"606202e0008a170c6bc79b43"},{"rt":3188.724999956321,"stimulus":"img/00483.png","slider_start":4,"response":2,"trial_type":"image-slider-response","trial_index":95,"time_elapsed":476075,"internal_node_id":"0.0-3.0-0.92","subject_id":"5e9e043a5998e51ab91bbf78","study_id":"605e2a800ccfa0c8e820d869","session_id":"606202e0008a170c6bc79b43"},{"rt":2946.394999977201,"stimulus":"img/00722.png","slider_start":4,"response":5,"trial_type":"image-slider-response","trial_index":96,"time_elapsed":479027,"internal_node_id":"0.0-3.0-0.93","subject_id":"5e9e043a5998e51ab91bbf78","study_id":"605e2a800ccfa0c8e820d869","session_id":"606202e0008a170c6bc79b43"},{"rt":5045.930000022054,"stimulus":"img/00747.png","slider_start":4,"response":4,"trial_type":"image-slider-response","trial_index":97,"time_elapsed":484076,"internal_node_id":"0.0-3.0-0.94","subject_id":"5e9e043a5998e51ab91bbf78","study_id":"605e2a800ccfa0c8e820d869","session_id":"606202e0008a170c6bc79b43"},{"rt":2979.1600000462495,"stimulus":"img/00055.png","slider_start":4,"response":5,"trial_type":"image-slider-response","trial_index":98,"time_elapsed":487059,"internal_node_id":"0.0-3.0-0.95","subject_id":"5e9e043a5998e51ab91bbf78","study_id":"605e2a800ccfa0c8e820d869","session_id":"606202e0008a170c6bc79b43"},{"rt":3444.7600000421517,"stimulus":"img/00878.png","slider_start":4,"response":3,"trial_type":"image-slider-response","trial_index":99,"time_elapsed":490509,"internal_node_id":"0.0-3.0-0.96","subject_id":"5e9e043a5998e51ab91bbf78","study_id":"605e2a800ccfa0c8e820d869","session_id":"606202e0008a170c6bc79b43"},{"rt":3020.23000002373,"stimulus":"img/00018.png","slider_start":4,"response":3,"trial_type":"image-slider-response","trial_index":100,"time_elapsed":493535,"internal_node_id":"0.0-3.0-0.97","subject_id":"5e9e043a5998e51ab91bbf78","study_id":"605e2a800ccfa0c8e820d869","session_id":"606202e0008a170c6bc79b43"},{"rt":3002.809999976307,"stimulus":"img/00896.png","slider_start":4,"response":2,"trial_type":"image-slider-response","trial_index":101,"time_elapsed":496541,"internal_node_id":"0.0-3.0-0.98","subject_id":"5e9e043a5998e51ab91bbf78","study_id":"605e2a800ccfa0c8e820d869","session_id":"606202e0008a170c6bc79b43"},{"rt":3000.3149999538437,"stimulus":"img/00708.png","slider_start":4,"response":5,"trial_type":"image-slider-response","trial_index":102,"time_elapsed":499546,"internal_node_id":"0.0-3.0-0.99","subject_id":"5e9e043a5998e51ab91bbf78","study_id":"605e2a800ccfa0c8e820d869","session_id":"606202e0008a170c6bc79b43"},{"rt":3387.784999969881,"stimulus":"img/00773.png","slider_start":4,"response":5,"trial_type":"image-slider-response","trial_index":103,"time_elapsed":502937,"internal_node_id":"0.0-3.0-0.100","subject_id":"5e9e043a5998e51ab91bbf78","study_id":"605e2a800ccfa0c8e820d869","session_id":"606202e0008a170c6bc79b43"},{"rt":3620.9750000271015,"stimulus":"img/00867.png","slider_start":4,"response":3,"trial_type":"image-slider-response","trial_index":104,"time_elapsed":506563,"internal_node_id":"0.0-3.0-0.101","subject_id":"5e9e043a5998e51ab91bbf78","study_id":"605e2a800ccfa0c8e820d869","session_id":"606202e0008a170c6bc79b43"},{"rt":4053.2949999906123,"stimulus":"img/00644.png","slider_start":4,"response":5,"trial_type":"image-slider-response","trial_index":105,"time_elapsed":510620,"internal_node_id":"0.0-3.0-0.102","subject_id":"5e9e043a5998e51ab91bbf78","study_id":"605e2a800ccfa0c8e820d869","session_id":"606202e0008a170c6bc79b43"},{"rt":4465.75999999186,"stimulus":"img/00016.png","slider_start":4,"response":2,"trial_type":"image-slider-response","trial_index":106,"time_elapsed":515093,"internal_node_id":"0.0-3.0-0.103","subject_id":"5e9e043a5998e51ab91bbf78","study_id":"605e2a800ccfa0c8e820d869","session_id":"606202e0008a170c6bc79b43"},{"rt":2848.8999999826774,"stimulus":"img/00466.png","slider_start":4,"response":3,"trial_type":"image-slider-response","trial_index":107,"time_elapsed":517946,"internal_node_id":"0.0-3.0-0.104","subject_id":"5e9e043a5998e51ab91bbf78","study_id":"605e2a800ccfa0c8e820d869","session_id":"606202e0008a170c6bc79b43"},{"rt":1912.6150000374764,"stimulus":"img/00744.png","slider_start":4,"response":4,"trial_type":"image-slider-response","trial_index":108,"time_elapsed":519863,"internal_node_id":"0.0-3.0-0.105","subject_id":"5e9e043a5998e51ab91bbf78","study_id":"605e2a800ccfa0c8e820d869","session_id":"606202e0008a170c6bc79b43"},{"rt":5061.630000011064,"stimulus":"img/00077.png","slider_start":4,"response":5,"trial_type":"image-slider-response","trial_index":109,"time_elapsed":524928,"internal_node_id":"0.0-3.0-0.106","subject_id":"5e9e043a5998e51ab91bbf78","study_id":"605e2a800ccfa0c8e820d869","session_id":"606202e0008a170c6bc79b43"},{"rt":3894.9499999871477,"stimulus":"img/00926.png","slider_start":4,"response":6,"trial_type":"image-slider-response","trial_index":110,"time_elapsed":528828,"internal_node_id":"0.0-3.0-0.107","subject_id":"5e9e043a5998e51ab91bbf78","study_id":"605e2a800ccfa0c8e820d869","session_id":"606202e0008a170c6bc79b43"},{"rt":3745.230000000447,"stimulus":"img/00048.png","slider_start":4,"response":2,"trial_type":"image-slider-response","trial_index":111,"time_elapsed":532579,"internal_node_id":"0.0-3.0-0.108","subject_id":"5e9e043a5998e51ab91bbf78","study_id":"605e2a800ccfa0c8e820d869","session_id":"606202e0008a170c6bc79b43"},{"rt":2670.619999989867,"stimulus":"img/00545.png","slider_start":4,"response":4,"trial_type":"image-slider-response","trial_index":112,"time_elapsed":535255,"internal_node_id":"0.0-3.0-0.109","subject_id":"5e9e043a5998e51ab91bbf78","study_id":"605e2a800ccfa0c8e820d869","session_id":"606202e0008a170c6bc79b43"},{"rt":3762.9399999859743,"stimulus":"img/00561.png","slider_start":4,"response":2,"trial_type":"image-slider-response","trial_index":113,"time_elapsed":539025,"internal_node_id":"0.0-3.0-0.110","subject_id":"5e9e043a5998e51ab91bbf78","study_id":"605e2a800ccfa0c8e820d869","session_id":"606202e0008a170c6bc79b43"},{"rt":4279.879999987315,"stimulus":"img/00928.png","slider_start":4,"response":4,"trial_type":"image-slider-response","trial_index":114,"time_elapsed":543309,"internal_node_id":"0.0-3.0-0.111","subject_id":"5e9e043a5998e51ab91bbf78","study_id":"605e2a800ccfa0c8e820d869","session_id":"606202e0008a170c6bc79b43"},{"rt":4352.379999996629,"stimulus":"img/00988.png","slider_start":4,"response":2,"trial_type":"image-slider-response","trial_index":115,"time_elapsed":547666,"internal_node_id":"0.0-3.0-0.112","subject_id":"5e9e043a5998e51ab91bbf78","study_id":"605e2a800ccfa0c8e820d869","session_id":"606202e0008a170c6bc79b43"},{"rt":2636.3400000263937,"stimulus":"img/00755.png","slider_start":4,"response":4,"trial_type":"image-slider-response","trial_index":116,"time_elapsed":550309,"internal_node_id":"0.0-3.0-0.113","subject_id":"5e9e043a5998e51ab91bbf78","study_id":"605e2a800ccfa0c8e820d869","session_id":"606202e0008a170c6bc79b43"},{"rt":3379.3099999893457,"stimulus":"img/00879.png","slider_start":4,"response":4,"trial_type":"image-slider-response","trial_index":117,"time_elapsed":553693,"internal_node_id":"0.0-3.0-0.114","subject_id":"5e9e043a5998e51ab91bbf78","study_id":"605e2a800ccfa0c8e820d869","session_id":"606202e0008a170c6bc79b43"},{"rt":3742.755000013858,"stimulus":"img/00122.png","slider_start":4,"response":4,"trial_type":"image-slider-response","trial_index":118,"time_elapsed":557442,"internal_node_id":"0.0-3.0-0.115","subject_id":"5e9e043a5998e51ab91bbf78","study_id":"605e2a800ccfa0c8e820d869","session_id":"606202e0008a170c6bc79b43"},{"rt":3566.7949999915436,"stimulus":"img/00748.png","slider_start":4,"response":2,"trial_type":"image-slider-response","trial_index":119,"time_elapsed":561012,"internal_node_id":"0.0-3.0-0.116","subject_id":"5e9e043a5998e51ab91bbf78","study_id":"605e2a800ccfa0c8e820d869","session_id":"606202e0008a170c6bc79b43"},{"rt":4921.640000015032,"stimulus":"img/00093.png","slider_start":4,"response":4,"trial_type":"image-slider-response","trial_index":120,"time_elapsed":565939,"internal_node_id":"0.0-3.0-0.117","subject_id":"5e9e043a5998e51ab91bbf78","study_id":"605e2a800ccfa0c8e820d869","session_id":"606202e0008a170c6bc79b43"},{"rt":2963.289999985136,"stimulus":"img/00037.png","slider_start":4,"response":4,"trial_type":"image-slider-response","trial_index":121,"time_elapsed":568908,"internal_node_id":"0.0-3.0-0.118","subject_id":"5e9e043a5998e51ab91bbf78","study_id":"605e2a800ccfa0c8e820d869","session_id":"606202e0008a170c6bc79b43"},{"rt":4464.105000020936,"stimulus":"img/00791.png","slider_start":4,"response":2,"trial_type":"image-slider-response","trial_index":122,"time_elapsed":573376,"internal_node_id":"0.0-3.0-0.119","subject_id":"5e9e043a5998e51ab91bbf78","study_id":"605e2a800ccfa0c8e820d869","session_id":"606202e0008a170c6bc79b43"},{"rt":3549.440000031609,"stimulus":"img/00437.png","slider_start":4,"response":3,"trial_type":"image-slider-response","trial_index":123,"time_elapsed":576929,"internal_node_id":"0.0-3.0-0.120","subject_id":"5e9e043a5998e51ab91bbf78","study_id":"605e2a800ccfa0c8e820d869","session_id":"606202e0008a170c6bc79b43"},{"rt":4101.59500001464,"stimulus":"img/00612.png","slider_start":4,"response":3,"trial_type":"image-slider-response","trial_index":124,"time_elapsed":581036,"internal_node_id":"0.0-3.0-0.121","subject_id":"5e9e043a5998e51ab91bbf78","study_id":"605e2a800ccfa0c8e820d869","session_id":"606202e0008a170c6bc79b43"},{"rt":3916.864999977406,"stimulus":"img/00114.png","slider_start":4,"response":2,"trial_type":"image-slider-response","trial_index":125,"time_elapsed":584957,"internal_node_id":"0.0-3.0-0.122","subject_id":"5e9e043a5998e51ab91bbf78","study_id":"605e2a800ccfa0c8e820d869","session_id":"606202e0008a170c6bc79b43"},{"rt":3541.975000000093,"stimulus":"img/00113.png","slider_start":4,"response":3,"trial_type":"image-slider-response","trial_index":126,"time_elapsed":588506,"internal_node_id":"0.0-3.0-0.123","subject_id":"5e9e043a5998e51ab91bbf78","study_id":"605e2a800ccfa0c8e820d869","session_id":"606202e0008a170c6bc79b43"},{"rt":6179.035000037402,"stimulus":"img/00078.png","slider_start":4,"response":2,"trial_type":"image-slider-response","trial_index":127,"time_elapsed":594690,"internal_node_id":"0.0-3.0-0.124","subject_id":"5e9e043a5998e51ab91bbf78","study_id":"605e2a800ccfa0c8e820d869","session_id":"606202e0008a170c6bc79b43"},{"rt":4842.4750000122,"stimulus":"img/00440.png","slider_start":4,"response":4,"trial_type":"image-slider-response","trial_index":128,"time_elapsed":599538,"internal_node_id":"0.0-3.0-0.125","subject_id":"5e9e043a5998e51ab91bbf78","study_id":"605e2a800ccfa0c8e820d869","session_id":"606202e0008a170c6bc79b43"},{"rt":3429.130000004079,"stimulus":"img/00525.png","slider_start":4,"response":4,"trial_type":"image-slider-response","trial_index":129,"time_elapsed":602973,"internal_node_id":"0.0-3.0-0.126","subject_id":"5e9e043a5998e51ab91bbf78","study_id":"605e2a800ccfa0c8e820d869","session_id":"606202e0008a170c6bc79b43"},{"rt":3590.85999999661,"stimulus":"img/00797.png","slider_start":4,"response":3,"trial_type":"image-slider-response","trial_index":130,"time_elapsed":606570,"internal_node_id":"0.0-3.0-0.127","subject_id":"5e9e043a5998e51ab91bbf78","study_id":"605e2a800ccfa0c8e820d869","session_id":"606202e0008a170c6bc79b43"},{"rt":3096.369999984745,"stimulus":"img/00853.png","slider_start":4,"response":4,"trial_type":"image-slider-response","trial_index":131,"time_elapsed":609672,"internal_node_id":"0.0-3.0-0.128","subject_id":"5e9e043a5998e51ab91bbf78","study_id":"605e2a800ccfa0c8e820d869","session_id":"606202e0008a170c6bc79b43"},{"rt":2935.60000002617,"stimulus":"img/00438.png","slider_start":4,"response":3,"trial_type":"image-slider-response","trial_index":132,"time_elapsed":612611,"internal_node_id":"0.0-3.0-0.129","subject_id":"5e9e043a5998e51ab91bbf78","study_id":"605e2a800ccfa0c8e820d869","session_id":"606202e0008a170c6bc79b43"},{"rt":3433.3750000223517,"stimulus":"img/00752.png","slider_start":4,"response":3,"trial_type":"image-slider-response","trial_index":133,"time_elapsed":616051,"internal_node_id":"0.0-3.0-0.130","subject_id":"5e9e043a5998e51ab91bbf78","study_id":"605e2a800ccfa0c8e820d869","session_id":"606202e0008a170c6bc79b43"},{"rt":4226.4049999648705,"stimulus":"img/00779.png","slider_start":4,"response":2,"trial_type":"image-slider-response","trial_index":134,"time_elapsed":620281,"internal_node_id":"0.0-3.0-0.131","subject_id":"5e9e043a5998e51ab91bbf78","study_id":"605e2a800ccfa0c8e820d869","session_id":"606202e0008a170c6bc79b43"},{"rt":4376.72499998007,"stimulus":"img/00006.png","slider_start":4,"response":5,"trial_type":"image-slider-response","trial_index":135,"time_elapsed":624662,"internal_node_id":"0.0-3.0-0.132","subject_id":"5e9e043a5998e51ab91bbf78","study_id":"605e2a800ccfa0c8e820d869","session_id":"606202e0008a170c6bc79b43"},{"rt":3157.019999984186,"stimulus":"img/00549.png","slider_start":4,"response":4,"trial_type":"image-slider-response","trial_index":136,"time_elapsed":627823,"internal_node_id":"0.0-3.0-0.133","subject_id":"5e9e043a5998e51ab91bbf78","study_id":"605e2a800ccfa0c8e820d869","session_id":"606202e0008a170c6bc79b43"},{"rt":3185.9600000316277,"stimulus":"img/00424.png","slider_start":4,"response":5,"trial_type":"image-slider-response","trial_index":137,"time_elapsed":631013,"internal_node_id":"0.0-3.0-0.134","subject_id":"5e9e043a5998e51ab91bbf78","study_id":"605e2a800ccfa0c8e820d869","session_id":"606202e0008a170c6bc79b43"},{"rt":3457.1800000267103,"stimulus":"img/00460.png","slider_start":4,"response":5,"trial_type":"image-slider-response","trial_index":138,"time_elapsed":634477,"internal_node_id":"0.0-3.0-0.135","subject_id":"5e9e043a5998e51ab91bbf78","study_id":"605e2a800ccfa0c8e820d869","session_id":"606202e0008a170c6bc79b43"},{"rt":4632.389999984298,"stimulus":"img/00472.png","slider_start":4,"response":3,"trial_type":"image-slider-response","trial_index":139,"time_elapsed":639113,"internal_node_id":"0.0-3.0-0.136","subject_id":"5e9e043a5998e51ab91bbf78","study_id":"605e2a800ccfa0c8e820d869","session_id":"606202e0008a170c6bc79b43"},{"rt":2494.7050000191666,"stimulus":"img/00768.png","slider_start":4,"response":4,"trial_type":"image-slider-response","trial_index":140,"time_elapsed":641614,"internal_node_id":"0.0-3.0-0.137","subject_id":"5e9e043a5998e51ab91bbf78","study_id":"605e2a800ccfa0c8e820d869","session_id":"606202e0008a170c6bc79b43"},{"rt":3902.8599999728613,"stimulus":"img/00563.png","slider_start":4,"response":3,"trial_type":"image-slider-response","trial_index":141,"time_elapsed":645522,"internal_node_id":"0.0-3.0-0.138","subject_id":"5e9e043a5998e51ab91bbf78","study_id":"605e2a800ccfa0c8e820d869","session_id":"606202e0008a170c6bc79b43"},{"rt":3709.8649999825284,"stimulus":"img/00902.png","slider_start":4,"response":4,"trial_type":"image-slider-response","trial_index":142,"time_elapsed":649238,"internal_node_id":"0.0-3.0-0.139","subject_id":"5e9e043a5998e51ab91bbf78","study_id":"605e2a800ccfa0c8e820d869","session_id":"606202e0008a170c6bc79b43"},{"rt":3192.265000019688,"stimulus":"img/00082.png","slider_start":4,"response":3,"trial_type":"image-slider-response","trial_index":143,"time_elapsed":652436,"internal_node_id":"0.0-3.0-0.140","subject_id":"5e9e043a5998e51ab91bbf78","study_id":"605e2a800ccfa0c8e820d869","session_id":"606202e0008a170c6bc79b43"},{"rt":2543.820000020787,"stimulus":"img/00833.png","slider_start":4,"response":3,"trial_type":"image-slider-response","trial_index":144,"time_elapsed":654983,"internal_node_id":"0.0-3.0-0.141","subject_id":"5e9e043a5998e51ab91bbf78","study_id":"605e2a800ccfa0c8e820d869","session_id":"606202e0008a170c6bc79b43"},{"rt":3165.399999998044,"stimulus":"img/00564.png","slider_start":4,"response":3,"trial_type":"image-slider-response","trial_index":145,"time_elapsed":658152,"internal_node_id":"0.0-3.0-0.142","subject_id":"5e9e043a5998e51ab91bbf78","study_id":"605e2a800ccfa0c8e820d869","session_id":"606202e0008a170c6bc79b43"},{"rt":4604.49499997776,"stimulus":"img/40.png","slider_start":4,"response":2,"trial_type":"image-slider-response","trial_index":146,"time_elapsed":662760,"internal_node_id":"0.0-3.0-0.143","subject_id":"5e9e043a5998e51ab91bbf78","study_id":"605e2a800ccfa0c8e820d869","session_id":"606202e0008a170c6bc79b43"},{"rt":2833.7850000243634,"stimulus":"img/00042.png","slider_start":4,"response":2,"trial_type":"image-slider-response","trial_index":147,"time_elapsed":665598,"internal_node_id":"0.0-3.0-0.144","subject_id":"5e9e043a5998e51ab91bbf78","study_id":"605e2a800ccfa0c8e820d869","session_id":"606202e0008a170c6bc79b43"},{"rt":4374.509999994189,"stimulus":"img/00570.png","slider_start":4,"response":3,"trial_type":"image-slider-response","trial_index":148,"time_elapsed":669977,"internal_node_id":"0.0-3.0-0.145","subject_id":"5e9e043a5998e51ab91bbf78","study_id":"605e2a800ccfa0c8e820d869","session_id":"606202e0008a170c6bc79b43"},{"rt":4314.350000000559,"stimulus":"img/00002.png","slider_start":4,"response":4,"trial_type":"image-slider-response","trial_index":149,"time_elapsed":674297,"internal_node_id":"0.0-3.0-0.146","subject_id":"5e9e043a5998e51ab91bbf78","study_id":"605e2a800ccfa0c8e820d869","session_id":"606202e0008a170c6bc79b43"},{"rt":4968.449999985751,"stimulus":"img/00130.png","slider_start":4,"response":5,"trial_type":"image-slider-response","trial_index":150,"time_elapsed":679269,"internal_node_id":"0.0-3.0-0.147","subject_id":"5e9e043a5998e51ab91bbf78","study_id":"605e2a800ccfa0c8e820d869","session_id":"606202e0008a170c6bc79b43"},{"rt":5998.500000045169,"stimulus":"img/00631.png","slider_start":4,"response":6,"trial_type":"image-slider-response","trial_index":151,"time_elapsed":685273,"internal_node_id":"0.0-3.0-0.148","subject_id":"5e9e043a5998e51ab91bbf78","study_id":"605e2a800ccfa0c8e820d869","session_id":"606202e0008a170c6bc79b43"},{"rt":5298.795000009704,"stimulus":"img/00454.png","slider_start":4,"response":2,"trial_type":"image-slider-response","trial_index":152,"time_elapsed":690580,"internal_node_id":"0.0-3.0-0.149","subject_id":"5e9e043a5998e51ab91bbf78","study_id":"605e2a800ccfa0c8e820d869","session_id":"606202e0008a170c6bc79b43"},{"rt":5447.345000051428,"stimulus":"img/00688.png","slider_start":4,"response":7,"trial_type":"image-slider-response","trial_index":153,"time_elapsed":696032,"internal_node_id":"0.0-3.0-0.150","subject_id":"5e9e043a5998e51ab91bbf78","study_id":"605e2a800ccfa0c8e820d869","session_id":"606202e0008a170c6bc79b43"},{"rt":5763.234999962151,"stimulus":"img/00810.png","slider_start":4,"response":2,"trial_type":"image-slider-response","trial_index":154,"time_elapsed":701801,"internal_node_id":"0.0-3.0-0.151","subject_id":"5e9e043a5998e51ab91bbf78","study_id":"605e2a800ccfa0c8e820d869","session_id":"606202e0008a170c6bc79b43"},{"rt":2668.130000005476,"stimulus":"img/00799.png","slider_start":4,"response":3,"trial_type":"image-slider-response","trial_index":155,"time_elapsed":704474,"internal_node_id":"0.0-3.0-0.152","subject_id":"5e9e043a5998e51ab91bbf78","study_id":"605e2a800ccfa0c8e820d869","session_id":"606202e0008a170c6bc79b43"},{"rt":5122.625000018161,"stimulus":"img/00405.png","slider_start":4,"response":4,"trial_type":"image-slider-response","trial_index":156,"time_elapsed":709600,"internal_node_id":"0.0-3.0-0.153","subject_id":"5e9e043a5998e51ab91bbf78","study_id":"605e2a800ccfa0c8e820d869","session_id":"606202e0008a170c6bc79b43"},{"rt":2920.0849999906495,"stimulus":"img/00731.png","slider_start":4,"response":2,"trial_type":"image-slider-response","trial_index":157,"time_elapsed":712524,"internal_node_id":"0.0-3.0-0.154","subject_id":"5e9e043a5998e51ab91bbf78","study_id":"605e2a800ccfa0c8e820d869","session_id":"606202e0008a170c6bc79b43"},{"rt":3343.784999975469,"stimulus":"img/00759.png","slider_start":4,"response":3,"trial_type":"image-slider-response","trial_index":158,"time_elapsed":715873,"internal_node_id":"0.0-3.0-0.155","subject_id":"5e9e043a5998e51ab91bbf78","study_id":"605e2a800ccfa0c8e820d869","session_id":"606202e0008a170c6bc79b43"},{"rt":2938.0399999790825,"stimulus":"img/00600.png","slider_start":4,"response":2,"trial_type":"image-slider-response","trial_index":159,"time_elapsed":718815,"internal_node_id":"0.0-3.0-0.156","subject_id":"5e9e043a5998e51ab91bbf78","study_id":"605e2a800ccfa0c8e820d869","session_id":"606202e0008a170c6bc79b43"},{"rt":2448.1050000176765,"stimulus":"img/00129.png","slider_start":4,"response":4,"trial_type":"image-slider-response","trial_index":160,"time_elapsed":721268,"internal_node_id":"0.0-3.0-0.157","subject_id":"5e9e043a5998e51ab91bbf78","study_id":"605e2a800ccfa0c8e820d869","session_id":"606202e0008a170c6bc79b43"},{"rt":5481.969999964349,"stimulus":"img/00507.png","slider_start":4,"response":3,"trial_type":"image-slider-response","trial_index":161,"time_elapsed":726753,"internal_node_id":"0.0-3.0-0.158","subject_id":"5e9e043a5998e51ab91bbf78","study_id":"605e2a800ccfa0c8e820d869","session_id":"606202e0008a170c6bc79b43"},{"rt":2757.7600000076927,"stimulus":"img/00930.png","slider_start":4,"response":5,"trial_type":"image-slider-response","trial_index":162,"time_elapsed":729515,"internal_node_id":"0.0-3.0-0.159","subject_id":"5e9e043a5998e51ab91bbf78","study_id":"605e2a800ccfa0c8e820d869","session_id":"606202e0008a170c6bc79b43"},{"rt":2685.4399999720044,"stimulus":"img/00543.png","slider_start":4,"response":3,"trial_type":"image-slider-response","trial_index":163,"time_elapsed":732204,"internal_node_id":"0.0-3.0-0.160","subject_id":"5e9e043a5998e51ab91bbf78","study_id":"605e2a800ccfa0c8e820d869","session_id":"606202e0008a170c6bc79b43"},{"rt":2993.3099999907427,"stimulus":"img/00406.png","slider_start":4,"response":2,"trial_type":"image-slider-response","trial_index":164,"time_elapsed":735201,"internal_node_id":"0.0-3.0-0.161","subject_id":"5e9e043a5998e51ab91bbf78","study_id":"605e2a800ccfa0c8e820d869","session_id":"606202e0008a170c6bc79b43"},{"rt":3215.8150000032037,"stimulus":"img/00718.png","slider_start":4,"response":4,"trial_type":"image-slider-response","trial_index":165,"time_elapsed":738422,"internal_node_id":"0.0-3.0-0.162","subject_id":"5e9e043a5998e51ab91bbf78","study_id":"605e2a800ccfa0c8e820d869","session_id":"606202e0008a170c6bc79b43"},{"rt":2519.6450000512414,"stimulus":"img/00618.png","slider_start":4,"response":4,"trial_type":"image-slider-response","trial_index":166,"time_elapsed":740945,"internal_node_id":"0.0-3.0-0.163","subject_id":"5e9e043a5998e51ab91bbf78","study_id":"605e2a800ccfa0c8e820d869","session_id":"606202e0008a170c6bc79b43"},{"rt":1497.5650000269525,"stimulus":"img/00594.png","slider_start":4,"response":4,"trial_type":"image-slider-response","trial_index":167,"time_elapsed":742446,"internal_node_id":"0.0-3.0-0.164","subject_id":"5e9e043a5998e51ab91bbf78","study_id":"605e2a800ccfa0c8e820d869","session_id":"606202e0008a170c6bc79b43"},{"rt":1338.9399999869056,"stimulus":"img/00418.png","slider_start":4,"response":4,"trial_type":"image-slider-response","trial_index":168,"time_elapsed":743789,"internal_node_id":"0.0-3.0-0.165","subject_id":"5e9e043a5998e51ab91bbf78","study_id":"605e2a800ccfa0c8e820d869","session_id":"606202e0008a170c6bc79b43"},{"rt":80.22000000346452,"stimulus":"img/00432.png","slider_start":4,"response":4,"trial_type":"image-slider-response","trial_index":169,"time_elapsed":743878,"internal_node_id":"0.0-3.0-0.166","subject_id":"5e9e043a5998e51ab91bbf78","study_id":"605e2a800ccfa0c8e820d869","session_id":"606202e0008a170c6bc79b43"},{"rt":1235.950000002049,"stimulus":"img/00542.png","slider_start":4,"response":4,"trial_type":"image-slider-response","trial_index":170,"time_elapsed":745117,"internal_node_id":"0.0-3.0-0.167","subject_id":"5e9e043a5998e51ab91bbf78","study_id":"605e2a800ccfa0c8e820d869","session_id":"606202e0008a170c6bc79b43"},{"rt":4153.820000006817,"stimulus":"img/00064.png","slider_start":4,"response":4,"trial_type":"image-slider-response","trial_index":171,"time_elapsed":749290,"internal_node_id":"0.0-3.0-0.168","subject_id":"5e9e043a5998e51ab91bbf78","study_id":"605e2a800ccfa0c8e820d869","session_id":"606202e0008a170c6bc79b43"},{"rt":3029.485000006389,"stimulus":"img/00045.png","slider_start":4,"response":3,"trial_type":"image-slider-response","trial_index":172,"time_elapsed":752324,"internal_node_id":"0.0-3.0-0.169","subject_id":"5e9e043a5998e51ab91bbf78","study_id":"605e2a800ccfa0c8e820d869","session_id":"606202e0008a170c6bc79b43"},{"rt":3697.634999989532,"stimulus":"img/00447.png","slider_start":4,"response":2,"trial_type":"image-slider-response","trial_index":173,"time_elapsed":756027,"internal_node_id":"0.0-3.0-0.170","subject_id":"5e9e043a5998e51ab91bbf78","study_id":"605e2a800ccfa0c8e820d869","session_id":"606202e0008a170c6bc79b43"},{"rt":3656.0399999725632,"stimulus":"img/00052.png","slider_start":4,"response":2,"trial_type":"image-slider-response","trial_index":174,"time_elapsed":759690,"internal_node_id":"0.0-3.0-0.171","subject_id":"5e9e043a5998e51ab91bbf78","study_id":"605e2a800ccfa0c8e820d869","session_id":"606202e0008a170c6bc79b43"}]