[{"rt":1616067.5300000003,"stimulus":"Welcome to the experiment. Press any key to begin.","response":" ","trial_type":"html-keyboard-response","trial_index":0,"time_elapsed":1616069,"internal_node_id":"0.0-0.0","subject_id":"5d4038b04db54a0018feca44","study_id":"605e2a800ccfa0c8e820d869","session_id":"606202c70ac9b2909037a771"},{"rt":1862.410000001546,"stimulus":"\n        <p>In this experiment, a face will appear on-screen.</p><p> <strong>Rate the face on a 1 - 7 scale based on how attractive he / she is.</strong> </p>\n        </div>\n        <p>Press any key to begin.</p>\n      ","response":" ","trial_type":"html-keyboard-response","trial_index":1,"time_elapsed":1617932,"internal_node_id":"0.0-1.0","subject_id":"5d4038b04db54a0018feca44","study_id":"605e2a800ccfa0c8e820d869","session_id":"606202c70ac9b2909037a771"},{"success":true,"timeout":false,"failed_images":[],"failed_audio":[],"failed_video":[],"trial_type":"preload","trial_index":2,"time_elapsed":1645222,"internal_node_id":"0.0-2.0","subject_id":"5d4038b04db54a0018feca44","study_id":"605e2a800ccfa0c8e820d869","session_id":"606202c70ac9b2909037a771"},{"rt":25101.99499997543,"stimulus":"img/00718.png","slider_start":4,"response":3,"trial_type":"image-slider-response","trial_index":3,"time_elapsed":1670333,"internal_node_id":"0.0-3.0-0.0","subject_id":"5d4038b04db54a0018feca44","study_id":"605e2a800ccfa0c8e820d869","session_id":"606202c70ac9b2909037a771"},{"rt":3196.5199999976903,"stimulus":"img/00130.png","slider_start":4,"response":3,"trial_type":"image-slider-response","trial_index":4,"time_elapsed":1673532,"internal_node_id":"0.0-3.0-0.1","subject_id":"5d4038b04db54a0018feca44","study_id":"605e2a800ccfa0c8e820d869","session_id":"606202c70ac9b2909037a771"},{"rt":4510.309999983292,"stimulus":"img/00913.png","slider_start":4,"response":4,"trial_type":"image-slider-response","trial_index":5,"time_elapsed":1678045,"internal_node_id":"0.0-3.0-0.2","subject_id":"5d4038b04db54a0018feca44","study_id":"605e2a800ccfa0c8e820d869","session_id":"606202c70ac9b2909037a771"},{"rt":2197.7849999675527,"stimulus":"img/00018.png","slider_start":4,"response":4,"trial_type":"image-slider-response","trial_index":6,"time_elapsed":1680245,"internal_node_id":"0.0-3.0-0.3","subject_id":"5d4038b04db54a0018feca44","study_id":"605e2a800ccfa0c8e820d869","session_id":"606202c70ac9b2909037a771"},{"rt":3830.3200000082143,"stimulus":"img/00748.png","slider_start":4,"response":3,"trial_type":"image-slider-response","trial_index":7,"time_elapsed":1684077,"internal_node_id":"0.0-3.0-0.4","subject_id":"5d4038b04db54a0018feca44","study_id":"605e2a800ccfa0c8e820d869","session_id":"606202c70ac9b2909037a771"},{"rt":2590.0849999743514,"stimulus":"img/00957.png","slider_start":4,"response":3,"trial_type":"image-slider-response","trial_index":8,"time_elapsed":1686669,"internal_node_id":"0.0-3.0-0.5","subject_id":"5d4038b04db54a0018feca44","study_id":"605e2a800ccfa0c8e820d869","session_id":"606202c70ac9b2909037a771"},{"rt":7013.760000001639,"stimulus":"img/00742.png","slider_start":4,"response":5,"trial_type":"image-slider-response","trial_index":9,"time_elapsed":1693685,"internal_node_id":"0.0-3.0-0.6","subject_id":"5d4038b04db54a0018feca44","study_id":"605e2a800ccfa0c8e820d869","session_id":"606202c70ac9b2909037a771"},{"rt":2654.104999965057,"stimulus":"img/00991.png","slider_start":4,"response":3,"trial_type":"image-slider-response","trial_index":10,"time_elapsed":1696341,"internal_node_id":"0.0-3.0-0.7","subject_id":"5d4038b04db54a0018feca44","study_id":"605e2a800ccfa0c8e820d869","session_id":"606202c70ac9b2909037a771"},{"rt":2022.1950000268407,"stimulus":"img/00761.png","slider_start":4,"response":4,"trial_type":"image-slider-response","trial_index":11,"time_elapsed":1698365,"internal_node_id":"0.0-3.0-0.8","subject_id":"5d4038b04db54a0018feca44","study_id":"605e2a800ccfa0c8e820d869","session_id":"606202c70ac9b2909037a771"},{"rt":1710.190000012517,"stimulus":"img/00559.png","slider_start":4,"response":4,"trial_type":"image-slider-response","trial_index":12,"time_elapsed":1700077,"internal_node_id":"0.0-3.0-0.9","subject_id":"5d4038b04db54a0018feca44","study_id":"605e2a800ccfa0c8e820d869","session_id":"606202c70ac9b2909037a771"},{"rt":2982.495000003837,"stimulus":"img/00810.png","slider_start":4,"response":3,"trial_type":"image-slider-response","trial_index":13,"time_elapsed":1703061,"internal_node_id":"0.0-3.0-0.10","subject_id":"5d4038b04db54a0018feca44","study_id":"605e2a800ccfa0c8e820d869","session_id":"606202c70ac9b2909037a771"},{"rt":3582.3899999959394,"stimulus":"img/00967.png","slider_start":4,"response":3,"trial_type":"image-slider-response","trial_index":14,"time_elapsed":1706645,"internal_node_id":"0.0-3.0-0.11","subject_id":"5d4038b04db54a0018feca44","study_id":"605e2a800ccfa0c8e820d869","session_id":"606202c70ac9b2909037a771"},{"rt":5005.9800000162795,"stimulus":"img/00093.png","slider_start":4,"response":3,"trial_type":"image-slider-response","trial_index":15,"time_elapsed":1711653,"internal_node_id":"0.0-3.0-0.12","subject_id":"5d4038b04db54a0018feca44","study_id":"605e2a800ccfa0c8e820d869","session_id":"606202c70ac9b2909037a771"},{"rt":3070.0550000183284,"stimulus":"img/00472.png","slider_start":4,"response":4,"trial_type":"image-slider-response","trial_index":16,"time_elapsed":1714725,"internal_node_id":"0.0-3.0-0.13","subject_id":"5d4038b04db54a0018feca44","study_id":"605e2a800ccfa0c8e820d869","session_id":"606202c70ac9b2909037a771"},{"rt":2885.8649999601766,"stimulus":"img/00693.png","slider_start":4,"response":3,"trial_type":"image-slider-response","trial_index":17,"time_elapsed":1717613,"internal_node_id":"0.0-3.0-0.14","subject_id":"5d4038b04db54a0018feca44","study_id":"605e2a800ccfa0c8e820d869","session_id":"606202c70ac9b2909037a771"},{"rt":2486.605000041891,"stimulus":"img/00483.png","slider_start":4,"response":4,"trial_type":"image-slider-response","trial_index":18,"time_elapsed":1720101,"internal_node_id":"0.0-3.0-0.15","subject_id":"5d4038b04db54a0018feca44","study_id":"605e2a800ccfa0c8e820d869","session_id":"606202c70ac9b2909037a771"},{"rt":1702.3449999978766,"stimulus":"img/00631.png","slider_start":4,"response":4,"trial_type":"image-slider-response","trial_index":19,"time_elapsed":1721805,"internal_node_id":"0.0-3.0-0.16","subject_id":"5d4038b04db54a0018feca44","study_id":"605e2a800ccfa0c8e820d869","session_id":"606202c70ac9b2909037a771"},{"rt":2638.45999998739,"stimulus":"img/00755.png","slider_start":4,"response":3,"trial_type":"image-slider-response","trial_index":20,"time_elapsed":1724445,"internal_node_id":"0.0-3.0-0.17","subject_id":"5d4038b04db54a0018feca44","study_id":"605e2a800ccfa0c8e820d869","session_id":"606202c70ac9b2909037a771"},{"rt":3718.150000029709,"stimulus":"img/00105.png","slider_start":4,"response":2,"trial_type":"image-slider-response","trial_index":21,"time_elapsed":1728165,"internal_node_id":"0.0-3.0-0.18","subject_id":"5d4038b04db54a0018feca44","study_id":"605e2a800ccfa0c8e820d869","session_id":"606202c70ac9b2909037a771"},{"rt":2758.3599999779835,"stimulus":"img/00029.png","slider_start":4,"response":3,"trial_type":"image-slider-response","trial_index":22,"time_elapsed":1730925,"internal_node_id":"0.0-3.0-0.19","subject_id":"5d4038b04db54a0018feca44","study_id":"605e2a800ccfa0c8e820d869","session_id":"606202c70ac9b2909037a771"},{"rt":1702.0849999971688,"stimulus":"img/00902.png","slider_start":4,"response":4,"trial_type":"image-slider-response","trial_index":23,"time_elapsed":1732629,"internal_node_id":"0.0-3.0-0.20","subject_id":"5d4038b04db54a0018feca44","study_id":"605e2a800ccfa0c8e820d869","session_id":"606202c70ac9b2909037a771"},{"rt":3070.44500001939,"stimulus":"img/00569.png","slider_start":4,"response":2,"trial_type":"image-slider-response","trial_index":24,"time_elapsed":1735700,"internal_node_id":"0.0-3.0-0.21","subject_id":"5d4038b04db54a0018feca44","study_id":"605e2a800ccfa0c8e820d869","session_id":"606202c70ac9b2909037a771"},{"rt":3190.2199999894947,"stimulus":"img/00406.png","slider_start":4,"response":2,"trial_type":"image-slider-response","trial_index":25,"time_elapsed":1738892,"internal_node_id":"0.0-3.0-0.22","subject_id":"5d4038b04db54a0018feca44","study_id":"605e2a800ccfa0c8e820d869","session_id":"606202c70ac9b2909037a771"},{"rt":2846.0599999525584,"stimulus":"img/00454.png","slider_start":4,"response":3,"trial_type":"image-slider-response","trial_index":26,"time_elapsed":1741740,"internal_node_id":"0.0-3.0-0.23","subject_id":"5d4038b04db54a0018feca44","study_id":"605e2a800ccfa0c8e820d869","session_id":"606202c70ac9b2909037a771"},{"rt":2134.355000045616,"stimulus":"img/00508.png","slider_start":4,"response":4,"trial_type":"image-slider-response","trial_index":27,"time_elapsed":1743876,"internal_node_id":"0.0-3.0-0.24","subject_id":"5d4038b04db54a0018feca44","study_id":"605e2a800ccfa0c8e820d869","session_id":"606202c70ac9b2909037a771"},{"rt":2254.475000023376,"stimulus":"img/00100.png","slider_start":4,"response":3,"trial_type":"image-slider-response","trial_index":28,"time_elapsed":1746132,"internal_node_id":"0.0-3.0-0.25","subject_id":"5d4038b04db54a0018feca44","study_id":"605e2a800ccfa0c8e820d869","session_id":"606202c70ac9b2909037a771"},{"rt":2294.2349999793805,"stimulus":"img/00879.png","slider_start":4,"response":5,"trial_type":"image-slider-response","trial_index":29,"time_elapsed":1748428,"internal_node_id":"0.0-3.0-0.26","subject_id":"5d4038b04db54a0018feca44","study_id":"605e2a800ccfa0c8e820d869","session_id":"606202c70ac9b2909037a771"},{"rt":3246.1049999692477,"stimulus":"img/00042.png","slider_start":4,"response":2,"trial_type":"image-slider-response","trial_index":30,"time_elapsed":1751676,"internal_node_id":"0.0-3.0-0.27","subject_id":"5d4038b04db54a0018feca44","study_id":"605e2a800ccfa0c8e820d869","session_id":"606202c70ac9b2909037a771"},{"rt":134.4249999965541,"stimulus":"img/00525.png","slider_start":4,"response":4,"trial_type":"image-slider-response","trial_index":31,"time_elapsed":1751812,"internal_node_id":"0.0-3.0-0.28","subject_id":"5d4038b04db54a0018feca44","study_id":"605e2a800ccfa0c8e820d869","session_id":"606202c70ac9b2909037a771"},{"rt":2566.350000037346,"stimulus":"img/00002.png","slider_start":4,"response":4,"trial_type":"image-slider-response","trial_index":32,"time_elapsed":1754380,"internal_node_id":"0.0-3.0-0.29","subject_id":"5d4038b04db54a0018feca44","study_id":"605e2a800ccfa0c8e820d869","session_id":"606202c70ac9b2909037a771"},{"rt":2614.225000026636,"stimulus":"img/00785.png","slider_start":4,"response":5,"trial_type":"image-slider-response","trial_index":33,"time_elapsed":1756996,"internal_node_id":"0.0-3.0-0.30","subject_id":"5d4038b04db54a0018feca44","study_id":"605e2a800ccfa0c8e820d869","session_id":"606202c70ac9b2909037a771"},{"rt":1902.5050000054762,"stimulus":"img/00059.png","slider_start":4,"response":4,"trial_type":"image-slider-response","trial_index":34,"time_elapsed":1758900,"internal_node_id":"0.0-3.0-0.31","subject_id":"5d4038b04db54a0018feca44","study_id":"605e2a800ccfa0c8e820d869","session_id":"606202c70ac9b2909037a771"},{"rt":2198.3199999667704,"stimulus":"img/00995.png","slider_start":4,"response":3,"trial_type":"image-slider-response","trial_index":35,"time_elapsed":1761100,"internal_node_id":"0.0-3.0-0.32","subject_id":"5d4038b04db54a0018feca44","study_id":"605e2a800ccfa0c8e820d869","session_id":"606202c70ac9b2909037a771"},{"rt":1798.430000024382,"stimulus":"img/00469.png","slider_start":4,"response":4,"trial_type":"image-slider-response","trial_index":36,"time_elapsed":1762900,"internal_node_id":"0.0-3.0-0.33","subject_id":"5d4038b04db54a0018feca44","study_id":"605e2a800ccfa0c8e820d869","session_id":"606202c70ac9b2909037a771"},{"rt":2438.3599999709986,"stimulus":"img/00867.png","slider_start":4,"response":2,"trial_type":"image-slider-response","trial_index":37,"time_elapsed":1765340,"internal_node_id":"0.0-3.0-0.34","subject_id":"5d4038b04db54a0018feca44","study_id":"605e2a800ccfa0c8e820d869","session_id":"606202c70ac9b2909037a771"},{"rt":2214.3299999879673,"stimulus":"img/00129.png","slider_start":4,"response":4,"trial_type":"image-slider-response","trial_index":38,"time_elapsed":1767556,"internal_node_id":"0.0-3.0-0.35","subject_id":"5d4038b04db54a0018feca44","study_id":"605e2a800ccfa0c8e820d869","session_id":"606202c70ac9b2909037a771"},{"rt":2813.9800000353716,"stimulus":"img/00896.png","slider_start":4,"response":2,"trial_type":"image-slider-response","trial_index":39,"time_elapsed":1770372,"internal_node_id":"0.0-3.0-0.36","subject_id":"5d4038b04db54a0018feca44","study_id":"605e2a800ccfa0c8e820d869","session_id":"606202c70ac9b2909037a771"},{"rt":1334.2249999986961,"stimulus":"img/00618.png","slider_start":4,"response":4,"trial_type":"image-slider-response","trial_index":40,"time_elapsed":1771708,"internal_node_id":"0.0-3.0-0.37","subject_id":"5d4038b04db54a0018feca44","study_id":"605e2a800ccfa0c8e820d869","session_id":"606202c70ac9b2909037a771"},{"rt":10261.564999993425,"stimulus":"img/00082.png","slider_start":4,"response":3,"trial_type":"image-slider-response","trial_index":41,"time_elapsed":1781972,"internal_node_id":"0.0-3.0-0.38","subject_id":"5d4038b04db54a0018feca44","study_id":"605e2a800ccfa0c8e820d869","session_id":"606202c70ac9b2909037a771"},{"rt":2734.244999999646,"stimulus":"img/00576.png","slider_start":4,"response":6,"trial_type":"image-slider-response","trial_index":42,"time_elapsed":1784708,"internal_node_id":"0.0-3.0-0.39","subject_id":"5d4038b04db54a0018feca44","study_id":"605e2a800ccfa0c8e820d869","session_id":"606202c70ac9b2909037a771"},{"rt":1822.2700000042096,"stimulus":"img/00460.png","slider_start":4,"response":4,"trial_type":"image-slider-response","trial_index":43,"time_elapsed":1786532,"internal_node_id":"0.0-3.0-0.40","subject_id":"5d4038b04db54a0018feca44","study_id":"605e2a800ccfa0c8e820d869","session_id":"606202c70ac9b2909037a771"},{"rt":3582.425000029616,"stimulus":"img/00973.png","slider_start":4,"response":3,"trial_type":"image-slider-response","trial_index":44,"time_elapsed":1790116,"internal_node_id":"0.0-3.0-0.41","subject_id":"5d4038b04db54a0018feca44","study_id":"605e2a800ccfa0c8e820d869","session_id":"606202c70ac9b2909037a771"},{"rt":3125.975000031758,"stimulus":"img/00428.png","slider_start":4,"response":2,"trial_type":"image-slider-response","trial_index":45,"time_elapsed":1793244,"internal_node_id":"0.0-3.0-0.42","subject_id":"5d4038b04db54a0018feca44","study_id":"605e2a800ccfa0c8e820d869","session_id":"606202c70ac9b2909037a771"},{"rt":2062.350000021979,"stimulus":"img/00587.png","slider_start":4,"response":5,"trial_type":"image-slider-response","trial_index":46,"time_elapsed":1795309,"internal_node_id":"0.0-3.0-0.43","subject_id":"5d4038b04db54a0018feca44","study_id":"605e2a800ccfa0c8e820d869","session_id":"606202c70ac9b2909037a771"},{"rt":1654.2550000012852,"stimulus":"img/00653.png","slider_start":4,"response":4,"trial_type":"image-slider-response","trial_index":47,"time_elapsed":1796964,"internal_node_id":"0.0-3.0-0.44","subject_id":"5d4038b04db54a0018feca44","study_id":"605e2a800ccfa0c8e820d869","session_id":"606202c70ac9b2909037a771"},{"rt":3166.495000012219,"stimulus":"img/00629.png","slider_start":4,"response":3,"trial_type":"image-slider-response","trial_index":48,"time_elapsed":1800133,"internal_node_id":"0.0-3.0-0.45","subject_id":"5d4038b04db54a0018feca44","study_id":"605e2a800ccfa0c8e820d869","session_id":"606202c70ac9b2909037a771"},{"rt":3765.145000012126,"stimulus":"img/00722.png","slider_start":4,"response":3,"trial_type":"image-slider-response","trial_index":49,"time_elapsed":1803901,"internal_node_id":"0.0-3.0-0.46","subject_id":"5d4038b04db54a0018feca44","study_id":"605e2a800ccfa0c8e820d869","session_id":"606202c70ac9b2909037a771"},{"rt":1742.3300000373274,"stimulus":"img/00986.png","slider_start":4,"response":2,"trial_type":"image-slider-response","trial_index":50,"time_elapsed":1805644,"internal_node_id":"0.0-3.0-0.47","subject_id":"5d4038b04db54a0018feca44","study_id":"605e2a800ccfa0c8e820d869","session_id":"606202c70ac9b2909037a771"},{"rt":2254.205000004731,"stimulus":"img/00041.png","slider_start":4,"response":5,"trial_type":"image-slider-response","trial_index":51,"time_elapsed":1807901,"internal_node_id":"0.0-3.0-0.48","subject_id":"5d4038b04db54a0018feca44","study_id":"605e2a800ccfa0c8e820d869","session_id":"606202c70ac9b2909037a771"},{"rt":2718.364999978803,"stimulus":"img/00405.png","slider_start":4,"response":5,"trial_type":"image-slider-response","trial_index":52,"time_elapsed":1810620,"internal_node_id":"0.0-3.0-0.49","subject_id":"5d4038b04db54a0018feca44","study_id":"605e2a800ccfa0c8e820d869","session_id":"606202c70ac9b2909037a771"},{"rt":2758.2300000358373,"stimulus":"img/00114.png","slider_start":4,"response":2,"trial_type":"image-slider-response","trial_index":53,"time_elapsed":1813381,"internal_node_id":"0.0-3.0-0.50","subject_id":"5d4038b04db54a0018feca44","study_id":"605e2a800ccfa0c8e820d869","session_id":"606202c70ac9b2909037a771"},{"rt":2942.385000002105,"stimulus":"img/00521.png","slider_start":4,"response":2,"trial_type":"image-slider-response","trial_index":54,"time_elapsed":1816324,"internal_node_id":"0.0-3.0-0.51","subject_id":"5d4038b04db54a0018feca44","study_id":"605e2a800ccfa0c8e820d869","session_id":"606202c70ac9b2909037a771"},{"rt":2534.0500000165775,"stimulus":"img/00499.png","slider_start":4,"response":2,"trial_type":"image-slider-response","trial_index":55,"time_elapsed":1818860,"internal_node_id":"0.0-3.0-0.52","subject_id":"5d4038b04db54a0018feca44","study_id":"605e2a800ccfa0c8e820d869","session_id":"606202c70ac9b2909037a771"},{"rt":1614.3699999665841,"stimulus":"img/00686.png","slider_start":4,"response":4,"trial_type":"image-slider-response","trial_index":56,"time_elapsed":1820476,"internal_node_id":"0.0-3.0-0.53","subject_id":"5d4038b04db54a0018feca44","study_id":"605e2a800ccfa0c8e820d869","session_id":"606202c70ac9b2909037a771"},{"rt":1614.4050000002608,"stimulus":"img/00478.png","slider_start":4,"response":4,"trial_type":"image-slider-response","trial_index":57,"time_elapsed":1822092,"internal_node_id":"0.0-3.0-0.54","subject_id":"5d4038b04db54a0018feca44","study_id":"605e2a800ccfa0c8e820d869","session_id":"606202c70ac9b2909037a771"},{"rt":2070.400000025984,"stimulus":"img/00040.png","slider_start":4,"response":2,"trial_type":"image-slider-response","trial_index":58,"time_elapsed":1824164,"internal_node_id":"0.0-3.0-0.55","subject_id":"5d4038b04db54a0018feca44","study_id":"605e2a800ccfa0c8e820d869","session_id":"606202c70ac9b2909037a771"},{"rt":2550.450000038836,"stimulus":"img/00479.png","slider_start":4,"response":4,"trial_type":"image-slider-response","trial_index":59,"time_elapsed":1826717,"internal_node_id":"0.0-3.0-0.56","subject_id":"5d4038b04db54a0018feca44","study_id":"605e2a800ccfa0c8e820d869","session_id":"606202c70ac9b2909037a771"},{"rt":2854.1449999902397,"stimulus":"img/00878.png","slider_start":4,"response":2,"trial_type":"image-slider-response","trial_index":60,"time_elapsed":1829572,"internal_node_id":"0.0-3.0-0.57","subject_id":"5d4038b04db54a0018feca44","study_id":"605e2a800ccfa0c8e820d869","session_id":"606202c70ac9b2909037a771"},{"rt":2454.479999956675,"stimulus":"img/00418.png","slider_start":4,"response":5,"trial_type":"image-slider-response","trial_index":61,"time_elapsed":1832028,"internal_node_id":"0.0-3.0-0.58","subject_id":"5d4038b04db54a0018feca44","study_id":"605e2a800ccfa0c8e820d869","session_id":"606202c70ac9b2909037a771"},{"rt":1870.1350000337698,"stimulus":"img/00511.png","slider_start":4,"response":4,"trial_type":"image-slider-response","trial_index":62,"time_elapsed":1833901,"internal_node_id":"0.0-3.0-0.59","subject_id":"5d4038b04db54a0018feca44","study_id":"605e2a800ccfa0c8e820d869","session_id":"606202c70ac9b2909037a771"},{"rt":2230.03500001505,"stimulus":"img/00793.png","slider_start":4,"response":5,"trial_type":"image-slider-response","trial_index":63,"time_elapsed":1836132,"internal_node_id":"0.0-3.0-0.60","subject_id":"5d4038b04db54a0018feca44","study_id":"605e2a800ccfa0c8e820d869","session_id":"606202c70ac9b2909037a771"},{"rt":2086.1750000040047,"stimulus":"img/00780.png","slider_start":4,"response":2,"trial_type":"image-slider-response","trial_index":64,"time_elapsed":1838221,"internal_node_id":"0.0-3.0-0.61","subject_id":"5d4038b04db54a0018feca44","study_id":"605e2a800ccfa0c8e820d869","session_id":"606202c70ac9b2909037a771"},{"rt":3550.1949999597855,"stimulus":"img/00799.png","slider_start":4,"response":3,"trial_type":"image-slider-response","trial_index":65,"time_elapsed":1841772,"internal_node_id":"0.0-3.0-0.62","subject_id":"5d4038b04db54a0018feca44","study_id":"605e2a800ccfa0c8e820d869","session_id":"606202c70ac9b2909037a771"},{"rt":2134.3399999896064,"stimulus":"img/00791.png","slider_start":4,"response":2,"trial_type":"image-slider-response","trial_index":66,"time_elapsed":1843908,"internal_node_id":"0.0-3.0-0.63","subject_id":"5d4038b04db54a0018feca44","study_id":"605e2a800ccfa0c8e820d869","session_id":"606202c70ac9b2909037a771"},{"rt":2286.1299999640323,"stimulus":"img/00956.png","slider_start":4,"response":3,"trial_type":"image-slider-response","trial_index":67,"time_elapsed":1846196,"internal_node_id":"0.0-3.0-0.64","subject_id":"5d4038b04db54a0018feca44","study_id":"605e2a800ccfa0c8e820d869","session_id":"606202c70ac9b2909037a771"},{"rt":1942.159999976866,"stimulus":"img/00764.png","slider_start":4,"response":2,"trial_type":"image-slider-response","trial_index":68,"time_elapsed":1848141,"internal_node_id":"0.0-3.0-0.65","subject_id":"5d4038b04db54a0018feca44","study_id":"605e2a800ccfa0c8e820d869","session_id":"606202c70ac9b2909037a771"},{"rt":2406.365000002552,"stimulus":"img/00570.png","slider_start":4,"response":3,"trial_type":"image-slider-response","trial_index":69,"time_elapsed":1850549,"internal_node_id":"0.0-3.0-0.66","subject_id":"5d4038b04db54a0018feca44","study_id":"605e2a800ccfa0c8e820d869","session_id":"606202c70ac9b2909037a771"},{"rt":2614.334999991115,"stimulus":"img/00690.png","slider_start":4,"response":2,"trial_type":"image-slider-response","trial_index":70,"time_elapsed":1853164,"internal_node_id":"0.0-3.0-0.67","subject_id":"5d4038b04db54a0018feca44","study_id":"605e2a800ccfa0c8e820d869","session_id":"606202c70ac9b2909037a771"},{"rt":2198.4599999850616,"stimulus":"img/00833.png","slider_start":4,"response":4,"trial_type":"image-slider-response","trial_index":71,"time_elapsed":1855365,"internal_node_id":"0.0-3.0-0.68","subject_id":"5d4038b04db54a0018feca44","study_id":"605e2a800ccfa0c8e820d869","session_id":"606202c70ac9b2909037a771"},{"rt":14765.765000018291,"stimulus":"img/00623.png","slider_start":4,"response":4,"trial_type":"image-slider-response","trial_index":72,"time_elapsed":1870133,"internal_node_id":"0.0-3.0-0.69","subject_id":"5d4038b04db54a0018feca44","study_id":"605e2a800ccfa0c8e820d869","session_id":"606202c70ac9b2909037a771"},{"rt":2374.149999988731,"stimulus":"img/00789.png","slider_start":4,"response":2,"trial_type":"image-slider-response","trial_index":73,"time_elapsed":1872509,"internal_node_id":"0.0-3.0-0.70","subject_id":"5d4038b04db54a0018feca44","study_id":"605e2a800ccfa0c8e820d869","session_id":"606202c70ac9b2909037a771"},{"rt":3782.439999980852,"stimulus":"img/00744.png","slider_start":4,"response":2,"trial_type":"image-slider-response","trial_index":74,"time_elapsed":1876293,"internal_node_id":"0.0-3.0-0.71","subject_id":"5d4038b04db54a0018feca44","study_id":"605e2a800ccfa0c8e820d869","session_id":"606202c70ac9b2909037a771"},{"rt":2061.985000036657,"stimulus":"img/00011.png","slider_start":4,"response":2,"trial_type":"image-slider-response","trial_index":75,"time_elapsed":1878357,"internal_node_id":"0.0-3.0-0.72","subject_id":"5d4038b04db54a0018feca44","study_id":"605e2a800ccfa0c8e820d869","session_id":"606202c70ac9b2909037a771"},{"rt":4318.029999965802,"stimulus":"img/00456.png","slider_start":4,"response":3,"trial_type":"image-slider-response","trial_index":76,"time_elapsed":1882677,"internal_node_id":"0.0-3.0-0.73","subject_id":"5d4038b04db54a0018feca44","study_id":"605e2a800ccfa0c8e820d869","session_id":"606202c70ac9b2909037a771"},{"rt":3782.2550000273623,"stimulus":"img/00542.png","slider_start":4,"response":2,"trial_type":"image-slider-response","trial_index":77,"time_elapsed":1886461,"internal_node_id":"0.0-3.0-0.74","subject_id":"5d4038b04db54a0018feca44","study_id":"605e2a800ccfa0c8e820d869","session_id":"606202c70ac9b2909037a771"},{"rt":2334.0600000228733,"stimulus":"img/00989.png","slider_start":4,"response":5,"trial_type":"image-slider-response","trial_index":78,"time_elapsed":1888797,"internal_node_id":"0.0-3.0-0.75","subject_id":"5d4038b04db54a0018feca44","study_id":"605e2a800ccfa0c8e820d869","session_id":"606202c70ac9b2909037a771"},{"rt":2030.4449999821372,"stimulus":"img/00401.png","slider_start":4,"response":2,"trial_type":"image-slider-response","trial_index":79,"time_elapsed":1890829,"internal_node_id":"0.0-3.0-0.76","subject_id":"5d4038b04db54a0018feca44","study_id":"605e2a800ccfa0c8e820d869","session_id":"606202c70ac9b2909037a771"},{"rt":1262.064999958966,"stimulus":"img/00006.png","slider_start":4,"response":4,"trial_type":"image-slider-response","trial_index":80,"time_elapsed":1892093,"internal_node_id":"0.0-3.0-0.77","subject_id":"5d4038b04db54a0018feca44","study_id":"605e2a800ccfa0c8e820d869","session_id":"606202c70ac9b2909037a771"},{"rt":2518.470000009984,"stimulus":"img/00549.png","slider_start":4,"response":3,"trial_type":"image-slider-response","trial_index":81,"time_elapsed":1894613,"internal_node_id":"0.0-3.0-0.78","subject_id":"5d4038b04db54a0018feca44","study_id":"605e2a800ccfa0c8e820d869","session_id":"606202c70ac9b2909037a771"},{"rt":2782.2700000251643,"stimulus":"img/00756.png","slider_start":4,"response":5,"trial_type":"image-slider-response","trial_index":82,"time_elapsed":1897397,"internal_node_id":"0.0-3.0-0.79","subject_id":"5d4038b04db54a0018feca44","study_id":"605e2a800ccfa0c8e820d869","session_id":"606202c70ac9b2909037a771"},{"rt":1790.4099999577738,"stimulus":"img/00078.png","slider_start":4,"response":2,"trial_type":"image-slider-response","trial_index":83,"time_elapsed":1899189,"internal_node_id":"0.0-3.0-0.80","subject_id":"5d4038b04db54a0018feca44","study_id":"605e2a800ccfa0c8e820d869","session_id":"606202c70ac9b2909037a771"},{"rt":2982.4200000148267,"stimulus":"img/00447.png","slider_start":4,"response":1,"trial_type":"image-slider-response","trial_index":84,"time_elapsed":1902173,"internal_node_id":"0.0-3.0-0.81","subject_id":"5d4038b04db54a0018feca44","study_id":"605e2a800ccfa0c8e820d869","session_id":"606202c70ac9b2909037a771"},{"rt":2061.32500001695,"stimulus":"img/00545.png","slider_start":4,"response":3,"trial_type":"image-slider-response","trial_index":85,"time_elapsed":1904237,"internal_node_id":"0.0-3.0-0.82","subject_id":"5d4038b04db54a0018feca44","study_id":"605e2a800ccfa0c8e820d869","session_id":"606202c70ac9b2909037a771"},{"rt":2086.360000015702,"stimulus":"img/00581.png","slider_start":4,"response":2,"trial_type":"image-slider-response","trial_index":86,"time_elapsed":1906325,"internal_node_id":"0.0-3.0-0.83","subject_id":"5d4038b04db54a0018feca44","study_id":"605e2a800ccfa0c8e820d869","session_id":"606202c70ac9b2909037a771"},{"rt":2350.235000019893,"stimulus":"img/00898.png","slider_start":4,"response":2,"trial_type":"image-slider-response","trial_index":87,"time_elapsed":1908677,"internal_node_id":"0.0-3.0-0.84","subject_id":"5d4038b04db54a0018feca44","study_id":"605e2a800ccfa0c8e820d869","session_id":"606202c70ac9b2909037a771"},{"rt":1726.1549999821,"stimulus":"img/00438.png","slider_start":4,"response":2,"trial_type":"image-slider-response","trial_index":88,"time_elapsed":1910405,"internal_node_id":"0.0-3.0-0.85","subject_id":"5d4038b04db54a0018feca44","study_id":"605e2a800ccfa0c8e820d869","session_id":"606202c70ac9b2909037a771"},{"rt":1334.2749999719672,"stimulus":"img/00759.png","slider_start":4,"response":4,"trial_type":"image-slider-response","trial_index":89,"time_elapsed":1911741,"internal_node_id":"0.0-3.0-0.86","subject_id":"5d4038b04db54a0018feca44","study_id":"605e2a800ccfa0c8e820d869","session_id":"606202c70ac9b2909037a771"},{"rt":3918.5149999684654,"stimulus":"img/00045.png","slider_start":4,"response":1,"trial_type":"image-slider-response","trial_index":90,"time_elapsed":1915660,"internal_node_id":"0.0-3.0-0.87","subject_id":"5d4038b04db54a0018feca44","study_id":"605e2a800ccfa0c8e820d869","session_id":"606202c70ac9b2909037a771"},{"rt":2110.110000008717,"stimulus":"img/00801.png","slider_start":4,"response":1,"trial_type":"image-slider-response","trial_index":91,"time_elapsed":1917772,"internal_node_id":"0.0-3.0-0.88","subject_id":"5d4038b04db54a0018feca44","study_id":"605e2a800ccfa0c8e820d869","session_id":"606202c70ac9b2909037a771"},{"rt":1750.4100000369363,"stimulus":"img/00688.png","slider_start":4,"response":4,"trial_type":"image-slider-response","trial_index":92,"time_elapsed":1919524,"internal_node_id":"0.0-3.0-0.89","subject_id":"5d4038b04db54a0018feca44","study_id":"605e2a800ccfa0c8e820d869","session_id":"606202c70ac9b2909037a771"},{"rt":2102.3849999764934,"stimulus":"img/00115.png","slider_start":4,"response":1,"trial_type":"image-slider-response","trial_index":93,"time_elapsed":1921628,"internal_node_id":"0.0-3.0-0.90","subject_id":"5d4038b04db54a0018feca44","study_id":"605e2a800ccfa0c8e820d869","session_id":"606202c70ac9b2909037a771"},{"rt":2526.364999997895,"stimulus":"img/00432.png","slider_start":4,"response":6,"trial_type":"image-slider-response","trial_index":94,"time_elapsed":1924156,"internal_node_id":"0.0-3.0-0.91","subject_id":"5d4038b04db54a0018feca44","study_id":"605e2a800ccfa0c8e820d869","session_id":"606202c70ac9b2909037a771"},{"rt":3974.110000010114,"stimulus":"img/00926.png","slider_start":4,"response":4,"trial_type":"image-slider-response","trial_index":95,"time_elapsed":1928132,"internal_node_id":"0.0-3.0-0.92","subject_id":"5d4038b04db54a0018feca44","study_id":"605e2a800ccfa0c8e820d869","session_id":"606202c70ac9b2909037a771"},{"rt":1814.0049999929033,"stimulus":"img/00462.png","slider_start":4,"response":1,"trial_type":"image-slider-response","trial_index":96,"time_elapsed":1929948,"internal_node_id":"0.0-3.0-0.93","subject_id":"5d4038b04db54a0018feca44","study_id":"605e2a800ccfa0c8e820d869","session_id":"606202c70ac9b2909037a771"},{"rt":2278.3950000302866,"stimulus":"img/00850.png","slider_start":4,"response":1,"trial_type":"image-slider-response","trial_index":97,"time_elapsed":1932228,"internal_node_id":"0.0-3.0-0.94","subject_id":"5d4038b04db54a0018feca44","study_id":"605e2a800ccfa0c8e820d869","session_id":"606202c70ac9b2909037a771"},{"rt":1877.909999981057,"stimulus":"img/00052.png","slider_start":4,"response":1,"trial_type":"image-slider-response","trial_index":98,"time_elapsed":1934108,"internal_node_id":"0.0-3.0-0.95","subject_id":"5d4038b04db54a0018feca44","study_id":"605e2a800ccfa0c8e820d869","session_id":"606202c70ac9b2909037a771"},{"rt":2574.4399999966845,"stimulus":"img/00612.png","slider_start":4,"response":2,"trial_type":"image-slider-response","trial_index":99,"time_elapsed":1936684,"internal_node_id":"0.0-3.0-0.96","subject_id":"5d4038b04db54a0018feca44","study_id":"605e2a800ccfa0c8e820d869","session_id":"606202c70ac9b2909037a771"},{"rt":1198.374999978114,"stimulus":"img/00481.png","slider_start":4,"response":4,"trial_type":"image-slider-response","trial_index":100,"time_elapsed":1937884,"internal_node_id":"0.0-3.0-0.97","subject_id":"5d4038b04db54a0018feca44","study_id":"605e2a800ccfa0c8e820d869","session_id":"606202c70ac9b2909037a771"},{"rt":1894.2249999963678,"stimulus":"img/00988.png","slider_start":4,"response":2,"trial_type":"image-slider-response","trial_index":101,"time_elapsed":1939780,"internal_node_id":"0.0-3.0-0.98","subject_id":"5d4038b04db54a0018feca44","study_id":"605e2a800ccfa0c8e820d869","session_id":"606202c70ac9b2909037a771"},{"rt":1878.3549999934621,"stimulus":"img/00415.png","slider_start":4,"response":2,"trial_type":"image-slider-response","trial_index":102,"time_elapsed":1941660,"internal_node_id":"0.0-3.0-0.99","subject_id":"5d4038b04db54a0018feca44","study_id":"605e2a800ccfa0c8e820d869","session_id":"606202c70ac9b2909037a771"},{"rt":2278.264999971725,"stimulus":"img/00543.png","slider_start":4,"response":3,"trial_type":"image-slider-response","trial_index":103,"time_elapsed":1943940,"internal_node_id":"0.0-3.0-0.100","subject_id":"5d4038b04db54a0018feca44","study_id":"605e2a800ccfa0c8e820d869","session_id":"606202c70ac9b2909037a771"},{"rt":2486.6999999503605,"stimulus":"img/00982.png","slider_start":4,"response":2,"trial_type":"image-slider-response","trial_index":104,"time_elapsed":1946428,"internal_node_id":"0.0-3.0-0.101","subject_id":"5d4038b04db54a0018feca44","study_id":"605e2a800ccfa0c8e820d869","session_id":"606202c70ac9b2909037a771"},{"rt":1966.1650000489317,"stimulus":"img/00015.png","slider_start":4,"response":2,"trial_type":"image-slider-response","trial_index":105,"time_elapsed":1948396,"internal_node_id":"0.0-3.0-0.102","subject_id":"5d4038b04db54a0018feca44","study_id":"605e2a800ccfa0c8e820d869","session_id":"606202c70ac9b2909037a771"},{"rt":2974.1550000035204,"stimulus":"img/00768.png","slider_start":4,"response":3,"trial_type":"image-slider-response","trial_index":106,"time_elapsed":1951372,"internal_node_id":"0.0-3.0-0.103","subject_id":"5d4038b04db54a0018feca44","study_id":"605e2a800ccfa0c8e820d869","session_id":"606202c70ac9b2909037a771"},{"rt":2030.2149999770336,"stimulus":"img/00522.png","slider_start":4,"response":3,"trial_type":"image-slider-response","trial_index":107,"time_elapsed":1953404,"internal_node_id":"0.0-3.0-0.104","subject_id":"5d4038b04db54a0018feca44","study_id":"605e2a800ccfa0c8e820d869","session_id":"606202c70ac9b2909037a771"},{"rt":2142.5900000031106,"stimulus":"img/00404.png","slider_start":4,"response":1,"trial_type":"image-slider-response","trial_index":108,"time_elapsed":1955548,"internal_node_id":"0.0-3.0-0.105","subject_id":"5d4038b04db54a0018feca44","study_id":"605e2a800ccfa0c8e820d869","session_id":"606202c70ac9b2909037a771"},{"rt":1862.2900000191294,"stimulus":"img/00817.png","slider_start":4,"response":3,"trial_type":"image-slider-response","trial_index":109,"time_elapsed":1957412,"internal_node_id":"0.0-3.0-0.106","subject_id":"5d4038b04db54a0018feca44","study_id":"605e2a800ccfa0c8e820d869","session_id":"606202c70ac9b2909037a771"},{"rt":1886.434999993071,"stimulus":"img/00790.png","slider_start":4,"response":2,"trial_type":"image-slider-response","trial_index":110,"time_elapsed":1959300,"internal_node_id":"0.0-3.0-0.107","subject_id":"5d4038b04db54a0018feca44","study_id":"605e2a800ccfa0c8e820d869","session_id":"606202c70ac9b2909037a771"},{"rt":3725.674999994226,"stimulus":"img/00815.png","slider_start":4,"response":4,"trial_type":"image-slider-response","trial_index":111,"time_elapsed":1963028,"internal_node_id":"0.0-3.0-0.108","subject_id":"5d4038b04db54a0018feca44","study_id":"605e2a800ccfa0c8e820d869","session_id":"606202c70ac9b2909037a771"},{"rt":2414.19500001939,"stimulus":"img/00708.png","slider_start":4,"response":3,"trial_type":"image-slider-response","trial_index":112,"time_elapsed":1965444,"internal_node_id":"0.0-3.0-0.109","subject_id":"5d4038b04db54a0018feca44","study_id":"605e2a800ccfa0c8e820d869","session_id":"606202c70ac9b2909037a771"},{"rt":2006.485000019893,"stimulus":"img/00016.png","slider_start":4,"response":2,"trial_type":"image-slider-response","trial_index":113,"time_elapsed":1967452,"internal_node_id":"0.0-3.0-0.110","subject_id":"5d4038b04db54a0018feca44","study_id":"605e2a800ccfa0c8e820d869","session_id":"606202c70ac9b2909037a771"},{"rt":2790.389999980107,"stimulus":"img/00773.png","slider_start":4,"response":3,"trial_type":"image-slider-response","trial_index":114,"time_elapsed":1970244,"internal_node_id":"0.0-3.0-0.111","subject_id":"5d4038b04db54a0018feca44","study_id":"605e2a800ccfa0c8e820d869","session_id":"606202c70ac9b2909037a771"},{"rt":4470.0299999676645,"stimulus":"img/00496.png","slider_start":4,"response":3,"trial_type":"image-slider-response","trial_index":115,"time_elapsed":1974717,"internal_node_id":"0.0-3.0-0.112","subject_id":"5d4038b04db54a0018feca44","study_id":"605e2a800ccfa0c8e820d869","session_id":"606202c70ac9b2909037a771"},{"rt":3678.2400000374764,"stimulus":"img/00564.png","slider_start":4,"response":2,"trial_type":"image-slider-response","trial_index":116,"time_elapsed":1978397,"internal_node_id":"0.0-3.0-0.113","subject_id":"5d4038b04db54a0018feca44","study_id":"605e2a800ccfa0c8e820d869","session_id":"606202c70ac9b2909037a771"},{"rt":2061.534999986179,"stimulus":"img/00809.png","slider_start":4,"response":2,"trial_type":"image-slider-response","trial_index":117,"time_elapsed":1980461,"internal_node_id":"0.0-3.0-0.114","subject_id":"5d4038b04db54a0018feca44","study_id":"605e2a800ccfa0c8e820d869","session_id":"606202c70ac9b2909037a771"},{"rt":1950.414999970235,"stimulus":"img/00507.png","slider_start":4,"response":1,"trial_type":"image-slider-response","trial_index":118,"time_elapsed":1982413,"internal_node_id":"0.0-3.0-0.115","subject_id":"5d4038b04db54a0018feca44","study_id":"605e2a800ccfa0c8e820d869","session_id":"606202c70ac9b2909037a771"},{"rt":1966.5899999672547,"stimulus":"img/00848.png","slider_start":4,"response":3,"trial_type":"image-slider-response","trial_index":119,"time_elapsed":1984381,"internal_node_id":"0.0-3.0-0.116","subject_id":"5d4038b04db54a0018feca44","study_id":"605e2a800ccfa0c8e820d869","session_id":"606202c70ac9b2909037a771"},{"rt":1637.2299999929965,"stimulus":"img/00731.png","slider_start":4,"response":2,"trial_type":"image-slider-response","trial_index":120,"time_elapsed":1986021,"internal_node_id":"0.0-3.0-0.117","subject_id":"5d4038b04db54a0018feca44","study_id":"605e2a800ccfa0c8e820d869","session_id":"606202c70ac9b2909037a771"},{"rt":2910.1550000486895,"stimulus":"img/00048.png","slider_start":4,"response":2,"trial_type":"image-slider-response","trial_index":121,"time_elapsed":1988933,"internal_node_id":"0.0-3.0-0.118","subject_id":"5d4038b04db54a0018feca44","study_id":"605e2a800ccfa0c8e820d869","session_id":"606202c70ac9b2909037a771"},{"rt":2270.0650000479072,"stimulus":"img/00439.png","slider_start":4,"response":1,"trial_type":"image-slider-response","trial_index":122,"time_elapsed":1991205,"internal_node_id":"0.0-3.0-0.119","subject_id":"5d4038b04db54a0018feca44","study_id":"605e2a800ccfa0c8e820d869","session_id":"606202c70ac9b2909037a771"},{"rt":4126.140000007581,"stimulus":"img/40.png","slider_start":4,"response":4,"trial_type":"image-slider-response","trial_index":123,"time_elapsed":1995333,"internal_node_id":"0.0-3.0-0.120","subject_id":"5d4038b04db54a0018feca44","study_id":"605e2a800ccfa0c8e820d869","session_id":"606202c70ac9b2909037a771"},{"rt":2734.264999977313,"stimulus":"img/00603.png","slider_start":4,"response":2,"trial_type":"image-slider-response","trial_index":124,"time_elapsed":1998069,"internal_node_id":"0.0-3.0-0.121","subject_id":"5d4038b04db54a0018feca44","study_id":"605e2a800ccfa0c8e820d869","session_id":"606202c70ac9b2909037a771"},{"rt":1686.0749999759719,"stimulus":"img/00853.png","slider_start":4,"response":5,"trial_type":"image-slider-response","trial_index":125,"time_elapsed":1999757,"internal_node_id":"0.0-3.0-0.122","subject_id":"5d4038b04db54a0018feca44","study_id":"605e2a800ccfa0c8e820d869","session_id":"606202c70ac9b2909037a771"},{"rt":1798.3499999972992,"stimulus":"img/00122.png","slider_start":4,"response":5,"trial_type":"image-slider-response","trial_index":126,"time_elapsed":2001557,"internal_node_id":"0.0-3.0-0.123","subject_id":"5d4038b04db54a0018feca44","study_id":"605e2a800ccfa0c8e820d869","session_id":"606202c70ac9b2909037a771"},{"rt":2638.4349999716505,"stimulus":"img/00113.png","slider_start":4,"response":1,"trial_type":"image-slider-response","trial_index":127,"time_elapsed":2004197,"internal_node_id":"0.0-3.0-0.124","subject_id":"5d4038b04db54a0018feca44","study_id":"605e2a800ccfa0c8e820d869","session_id":"606202c70ac9b2909037a771"},{"rt":3990.1450000470504,"stimulus":"img/00689.png","slider_start":4,"response":2,"trial_type":"image-slider-response","trial_index":128,"time_elapsed":2008189,"internal_node_id":"0.0-3.0-0.125","subject_id":"5d4038b04db54a0018feca44","study_id":"605e2a800ccfa0c8e820d869","session_id":"606202c70ac9b2909037a771"},{"rt":2733.940000005532,"stimulus":"img/00998.png","slider_start":4,"response":1,"trial_type":"image-slider-response","trial_index":129,"time_elapsed":2010925,"internal_node_id":"0.0-3.0-0.126","subject_id":"5d4038b04db54a0018feca44","study_id":"605e2a800ccfa0c8e820d869","session_id":"606202c70ac9b2909037a771"},{"rt":2574.399999983143,"stimulus":"img/00951.png","slider_start":4,"response":3,"trial_type":"image-slider-response","trial_index":130,"time_elapsed":2013501,"internal_node_id":"0.0-3.0-0.127","subject_id":"5d4038b04db54a0018feca44","study_id":"605e2a800ccfa0c8e820d869","session_id":"606202c70ac9b2909037a771"},{"rt":2054.2599999462254,"stimulus":"img/00079.png","slider_start":4,"response":1,"trial_type":"image-slider-response","trial_index":131,"time_elapsed":2015557,"internal_node_id":"0.0-3.0-0.128","subject_id":"5d4038b04db54a0018feca44","study_id":"605e2a800ccfa0c8e820d869","session_id":"606202c70ac9b2909037a771"},{"rt":2134.4999999855645,"stimulus":"img/00055.png","slider_start":4,"response":4,"trial_type":"image-slider-response","trial_index":132,"time_elapsed":2017693,"internal_node_id":"0.0-3.0-0.129","subject_id":"5d4038b04db54a0018feca44","study_id":"605e2a800ccfa0c8e820d869","session_id":"606202c70ac9b2909037a771"},{"rt":2350.0999999814667,"stimulus":"img/00464.png","slider_start":4,"response":1,"trial_type":"image-slider-response","trial_index":133,"time_elapsed":2020045,"internal_node_id":"0.0-3.0-0.130","subject_id":"5d4038b04db54a0018feca44","study_id":"605e2a800ccfa0c8e820d869","session_id":"606202c70ac9b2909037a771"},{"rt":2550.40500004543,"stimulus":"img/00797.png","slider_start":4,"response":3,"trial_type":"image-slider-response","trial_index":134,"time_elapsed":2022597,"internal_node_id":"0.0-3.0-0.131","subject_id":"5d4038b04db54a0018feca44","study_id":"605e2a800ccfa0c8e820d869","session_id":"606202c70ac9b2909037a771"},{"rt":3286.1249999841675,"stimulus":"img/00563.png","slider_start":4,"response":2,"trial_type":"image-slider-response","trial_index":135,"time_elapsed":2025885,"internal_node_id":"0.0-3.0-0.132","subject_id":"5d4038b04db54a0018feca44","study_id":"605e2a800ccfa0c8e820d869","session_id":"606202c70ac9b2909037a771"},{"rt":1798.1499999877997,"stimulus":"img/00064.png","slider_start":4,"response":3,"trial_type":"image-slider-response","trial_index":136,"time_elapsed":2027685,"internal_node_id":"0.0-3.0-0.133","subject_id":"5d4038b04db54a0018feca44","study_id":"605e2a800ccfa0c8e820d869","session_id":"606202c70ac9b2909037a771"},{"rt":1718.5450000106357,"stimulus":"img/00860.png","slider_start":4,"response":1,"trial_type":"image-slider-response","trial_index":137,"time_elapsed":2029405,"internal_node_id":"0.0-3.0-0.134","subject_id":"5d4038b04db54a0018feca44","study_id":"605e2a800ccfa0c8e820d869","session_id":"606202c70ac9b2909037a771"},{"rt":2734.2899999930523,"stimulus":"img/00854.png","slider_start":4,"response":1,"trial_type":"image-slider-response","trial_index":138,"time_elapsed":2032141,"internal_node_id":"0.0-3.0-0.135","subject_id":"5d4038b04db54a0018feca44","study_id":"605e2a800ccfa0c8e820d869","session_id":"606202c70ac9b2909037a771"},{"rt":2029.930000018794,"stimulus":"img/00127.png","slider_start":4,"response":1,"trial_type":"image-slider-response","trial_index":139,"time_elapsed":2034173,"internal_node_id":"0.0-3.0-0.136","subject_id":"5d4038b04db54a0018feca44","study_id":"605e2a800ccfa0c8e820d869","session_id":"606202c70ac9b2909037a771"},{"rt":2406.444999971427,"stimulus":"img/00842.png","slider_start":4,"response":5,"trial_type":"image-slider-response","trial_index":140,"time_elapsed":2036580,"internal_node_id":"0.0-3.0-0.137","subject_id":"5d4038b04db54a0018feca44","study_id":"605e2a800ccfa0c8e820d869","session_id":"606202c70ac9b2909037a771"},{"rt":2998.3200000133365,"stimulus":"img/00554.png","slider_start":4,"response":2,"trial_type":"image-slider-response","trial_index":141,"time_elapsed":2039580,"internal_node_id":"0.0-3.0-0.138","subject_id":"5d4038b04db54a0018feca44","study_id":"605e2a800ccfa0c8e820d869","session_id":"606202c70ac9b2909037a771"},{"rt":2893.2849999982864,"stimulus":"img/00437.png","slider_start":4,"response":2,"trial_type":"image-slider-response","trial_index":142,"time_elapsed":2042476,"internal_node_id":"0.0-3.0-0.139","subject_id":"5d4038b04db54a0018feca44","study_id":"605e2a800ccfa0c8e820d869","session_id":"606202c70ac9b2909037a771"},{"rt":2486.0549999866635,"stimulus":"img/00930.png","slider_start":4,"response":2,"trial_type":"image-slider-response","trial_index":143,"time_elapsed":2044964,"internal_node_id":"0.0-3.0-0.140","subject_id":"5d4038b04db54a0018feca44","study_id":"605e2a800ccfa0c8e820d869","session_id":"606202c70ac9b2909037a771"},{"rt":1438.4149999823421,"stimulus":"img/00077.png","slider_start":4,"response":4,"trial_type":"image-slider-response","trial_index":144,"time_elapsed":2046404,"internal_node_id":"0.0-3.0-0.141","subject_id":"5d4038b04db54a0018feca44","study_id":"605e2a800ccfa0c8e820d869","session_id":"606202c70ac9b2909037a771"},{"rt":1886.2999999546446,"stimulus":"img/00752.png","slider_start":4,"response":3,"trial_type":"image-slider-response","trial_index":145,"time_elapsed":2048292,"internal_node_id":"0.0-3.0-0.142","subject_id":"5d4038b04db54a0018feca44","study_id":"605e2a800ccfa0c8e820d869","session_id":"606202c70ac9b2909037a771"},{"rt":2086.4049999509007,"stimulus":"img/00811.png","slider_start":4,"response":2,"trial_type":"image-slider-response","trial_index":146,"time_elapsed":2050380,"internal_node_id":"0.0-3.0-0.143","subject_id":"5d4038b04db54a0018feca44","study_id":"605e2a800ccfa0c8e820d869","session_id":"606202c70ac9b2909037a771"},{"rt":1806.3299999921583,"stimulus":"img/00101.png","slider_start":4,"response":2,"trial_type":"image-slider-response","trial_index":147,"time_elapsed":2052188,"internal_node_id":"0.0-3.0-0.144","subject_id":"5d4038b04db54a0018feca44","study_id":"605e2a800ccfa0c8e820d869","session_id":"606202c70ac9b2909037a771"},{"rt":1869.9249999481253,"stimulus":"img/00822.png","slider_start":4,"response":3,"trial_type":"image-slider-response","trial_index":148,"time_elapsed":2054060,"internal_node_id":"0.0-3.0-0.145","subject_id":"5d4038b04db54a0018feca44","study_id":"605e2a800ccfa0c8e820d869","session_id":"606202c70ac9b2909037a771"},{"rt":2454.3699999921955,"stimulus":"img/00037.png","slider_start":4,"response":3,"trial_type":"image-slider-response","trial_index":149,"time_elapsed":2056516,"internal_node_id":"0.0-3.0-0.146","subject_id":"5d4038b04db54a0018feca44","study_id":"605e2a800ccfa0c8e820d869","session_id":"606202c70ac9b2909037a771"},{"rt":1646.1050000507385,"stimulus":"img/00691.png","slider_start":4,"response":1,"trial_type":"image-slider-response","trial_index":150,"time_elapsed":2058164,"internal_node_id":"0.0-3.0-0.147","subject_id":"5d4038b04db54a0018feca44","study_id":"605e2a800ccfa0c8e820d869","session_id":"606202c70ac9b2909037a771"},{"rt":2398.044999979902,"stimulus":"img/00561.png","slider_start":4,"response":2,"trial_type":"image-slider-response","trial_index":151,"time_elapsed":2060564,"internal_node_id":"0.0-3.0-0.148","subject_id":"5d4038b04db54a0018feca44","study_id":"605e2a800ccfa0c8e820d869","session_id":"606202c70ac9b2909037a771"},{"rt":1998.699999996461,"stimulus":"img/00841.png","slider_start":4,"response":4,"trial_type":"image-slider-response","trial_index":152,"time_elapsed":2062565,"internal_node_id":"0.0-3.0-0.149","subject_id":"5d4038b04db54a0018feca44","study_id":"605e2a800ccfa0c8e820d869","session_id":"606202c70ac9b2909037a771"},{"rt":3653.63499999512,"stimulus":"img/00424.png","slider_start":4,"response":2,"trial_type":"image-slider-response","trial_index":153,"time_elapsed":2066220,"internal_node_id":"0.0-3.0-0.150","subject_id":"5d4038b04db54a0018feca44","study_id":"605e2a800ccfa0c8e820d869","session_id":"606202c70ac9b2909037a771"},{"rt":199412.63000003528,"stimulus":"img/00600.png","slider_start":4,"response":2,"trial_type":"image-slider-response","trial_index":154,"time_elapsed":2265637,"internal_node_id":"0.0-3.0-0.151","subject_id":"5d4038b04db54a0018feca44","study_id":"605e2a800ccfa0c8e820d869","session_id":"606202c70ac9b2909037a771"},{"rt":2093.875000020489,"stimulus":"img/00903.png","slider_start":4,"response":5,"trial_type":"image-slider-response","trial_index":155,"time_elapsed":2267733,"internal_node_id":"0.0-3.0-0.152","subject_id":"5d4038b04db54a0018feca44","study_id":"605e2a800ccfa0c8e820d869","session_id":"606202c70ac9b2909037a771"},{"rt":4494.49499999173,"stimulus":"img/00760.png","slider_start":4,"response":3,"trial_type":"image-slider-response","trial_index":156,"time_elapsed":2272229,"internal_node_id":"0.0-3.0-0.153","subject_id":"5d4038b04db54a0018feca44","study_id":"605e2a800ccfa0c8e820d869","session_id":"606202c70ac9b2909037a771"},{"rt":2621.340000012424,"stimulus":"img/00023.png","slider_start":4,"response":2,"trial_type":"image-slider-response","trial_index":157,"time_elapsed":2274853,"internal_node_id":"0.0-3.0-0.154","subject_id":"5d4038b04db54a0018feca44","study_id":"605e2a800ccfa0c8e820d869","session_id":"606202c70ac9b2909037a771"},{"rt":2526.4099999913014,"stimulus":"img/00949.png","slider_start":4,"response":3,"trial_type":"image-slider-response","trial_index":158,"time_elapsed":2277381,"internal_node_id":"0.0-3.0-0.155","subject_id":"5d4038b04db54a0018feca44","study_id":"605e2a800ccfa0c8e820d869","session_id":"606202c70ac9b2909037a771"},{"rt":2302.3249999969266,"stimulus":"img/00928.png","slider_start":4,"response":3,"trial_type":"image-slider-response","trial_index":159,"time_elapsed":2279685,"internal_node_id":"0.0-3.0-0.156","subject_id":"5d4038b04db54a0018feca44","study_id":"605e2a800ccfa0c8e820d869","session_id":"606202c70ac9b2909037a771"},{"rt":4829.695000022184,"stimulus":"img/00825.png","slider_start":4,"response":4,"trial_type":"image-slider-response","trial_index":160,"time_elapsed":2284517,"internal_node_id":"0.0-3.0-0.157","subject_id":"5d4038b04db54a0018feca44","study_id":"605e2a800ccfa0c8e820d869","session_id":"606202c70ac9b2909037a771"},{"rt":1926.3599999831058,"stimulus":"img/00126.png","slider_start":4,"response":2,"trial_type":"image-slider-response","trial_index":161,"time_elapsed":2286445,"internal_node_id":"0.0-3.0-0.158","subject_id":"5d4038b04db54a0018feca44","study_id":"605e2a800ccfa0c8e820d869","session_id":"606202c70ac9b2909037a771"},{"rt":2029.419999977108,"stimulus":"img/00504.png","slider_start":4,"response":2,"trial_type":"image-slider-response","trial_index":162,"time_elapsed":2288477,"internal_node_id":"0.0-3.0-0.159","subject_id":"5d4038b04db54a0018feca44","study_id":"605e2a800ccfa0c8e820d869","session_id":"606202c70ac9b2909037a771"},{"rt":310.5000000214204,"stimulus":"img/00779.png","slider_start":4,"response":4,"trial_type":"image-slider-response","trial_index":163,"time_elapsed":2288789,"internal_node_id":"0.0-3.0-0.160","subject_id":"5d4038b04db54a0018feca44","study_id":"605e2a800ccfa0c8e820d869","session_id":"606202c70ac9b2909037a771"},{"rt":2414.2400000127964,"stimulus":"img/00012.png","slider_start":4,"response":2,"trial_type":"image-slider-response","trial_index":164,"time_elapsed":2291205,"internal_node_id":"0.0-3.0-0.161","subject_id":"5d4038b04db54a0018feca44","study_id":"605e2a800ccfa0c8e820d869","session_id":"606202c70ac9b2909037a771"},{"rt":3334.4749999814667,"stimulus":"img/00503.png","slider_start":4,"response":2,"trial_type":"image-slider-response","trial_index":165,"time_elapsed":2294541,"internal_node_id":"0.0-3.0-0.162","subject_id":"5d4038b04db54a0018feca44","study_id":"605e2a800ccfa0c8e820d869","session_id":"606202c70ac9b2909037a771"},{"rt":2182.055000041146,"stimulus":"img/00440.png","slider_start":4,"response":2,"trial_type":"image-slider-response","trial_index":166,"time_elapsed":2296725,"internal_node_id":"0.0-3.0-0.163","subject_id":"5d4038b04db54a0018feca44","study_id":"605e2a800ccfa0c8e820d869","session_id":"606202c70ac9b2909037a771"},{"rt":1326.4400000334717,"stimulus":"img/00644.png","slider_start":4,"response":4,"trial_type":"image-slider-response","trial_index":167,"time_elapsed":2298053,"internal_node_id":"0.0-3.0-0.164","subject_id":"5d4038b04db54a0018feca44","study_id":"605e2a800ccfa0c8e820d869","session_id":"606202c70ac9b2909037a771"},{"rt":2110.3149999980815,"stimulus":"img/00427.png","slider_start":4,"response":5,"trial_type":"image-slider-response","trial_index":168,"time_elapsed":2300165,"internal_node_id":"0.0-3.0-0.165","subject_id":"5d4038b04db54a0018feca44","study_id":"605e2a800ccfa0c8e820d869","session_id":"606202c70ac9b2909037a771"},{"rt":1838.6049999971874,"stimulus":"img/00592.png","slider_start":4,"response":5,"trial_type":"image-slider-response","trial_index":169,"time_elapsed":2302005,"internal_node_id":"0.0-3.0-0.166","subject_id":"5d4038b04db54a0018feca44","study_id":"605e2a800ccfa0c8e820d869","session_id":"606202c70ac9b2909037a771"},{"rt":3198.119999957271,"stimulus":"img/00489.png","slider_start":4,"response":3,"trial_type":"image-slider-response","trial_index":170,"time_elapsed":2305205,"internal_node_id":"0.0-3.0-0.167","subject_id":"5d4038b04db54a0018feca44","study_id":"605e2a800ccfa0c8e820d869","session_id":"606202c70ac9b2909037a771"},{"rt":1774.0999999805354,"stimulus":"img/00594.png","slider_start":4,"response":3,"trial_type":"image-slider-response","trial_index":171,"time_elapsed":2306981,"internal_node_id":"0.0-3.0-0.168","subject_id":"5d4038b04db54a0018feca44","study_id":"605e2a800ccfa0c8e820d869","session_id":"606202c70ac9b2909037a771"},{"rt":1142.3099999665283,"stimulus":"img/00747.png","slider_start":4,"response":4,"trial_type":"image-slider-response","trial_index":172,"time_elapsed":2308125,"internal_node_id":"0.0-3.0-0.169","subject_id":"5d4038b04db54a0018feca44","study_id":"605e2a800ccfa0c8e820d869","session_id":"606202c70ac9b2909037a771"},{"rt":1894.3900000303984,"stimulus":"img/00466.png","slider_start":4,"response":2,"trial_type":"image-slider-response","trial_index":173,"time_elapsed":2310021,"internal_node_id":"0.0-3.0-0.170","subject_id":"5d4038b04db54a0018feca44","study_id":"605e2a800ccfa0c8e820d869","session_id":"606202c70ac9b2909037a771"},{"rt":1958.1699999980628,"stimulus":"img/00413.png","slider_start":4,"response":2,"trial_type":"image-slider-response","trial_index":174,"time_elapsed":2311981,"internal_node_id":"0.0-3.0-0.171","subject_id":"5d4038b04db54a0018feca44","study_id":"605e2a800ccfa0c8e820d869","session_id":"606202c70ac9b2909037a771"}]